time;acc_x;acc_y;acc_z;gyro_x;gyro_y;gyro_z
0000543581;6.5936;-15.9837;1.9082;-0.0173;0.0380;-0.0241
0000543589;6.5386;-16.0292;1.9321;-0.0233;0.0409;-0.0188
0000543596;6.6224;-16.0052;1.8818;-0.0153;0.0349;-0.0195
0000543604;6.4356;-16.1321;1.9034;-0.0161;0.0374;-0.0192
0000543612;6.7756;-15.8041;1.8986;-0.0169;0.0418;-0.0183
0000543620;6.7397;-15.8113;1.8483;-0.0084;0.0334;-0.0262
0000543628;6.5481;-16.0340;1.8483;-0.0132;0.0392;-0.0211
0000543636;6.7469;-15.7538;1.7813;-0.0100;0.0334;-0.0268
0000543644;6.7109;-15.9669;1.8052;-0.0152;0.0377;-0.0246
0000543652;6.6631;-15.8448;1.9824;-0.0124;0.0417;-0.0258
0000543660;6.6008;-16.0268;1.9345;-0.0159;0.0462;-0.0258
0000543668;6.5625;-15.9382;1.8627;-0.0171;0.0442;-0.0286
0000543676;6.6032;-16.0268;1.9920;-0.0187;0.0449;-0.0268
0000543684;6.7133;-15.8975;1.8842;-0.0232;0.0429;-0.0261
0000543692;6.7876;-15.7826;2.0207;-0.0132;0.0337;-0.0348
0000543700;6.5386;-15.9478;1.9896;-0.0167;0.0354;-0.0337
0000543708;6.6774;-15.9262;1.9824;-0.0212;0.0393;-0.0245
0000543716;6.6798;-15.8329;2.0063;-0.0200;0.0346;-0.0270
0000543724;6.6176;-15.8760;1.9106;-0.0137;0.0309;-0.0337
0000543732;6.6798;-15.9023;1.9944;-0.0151;0.0309;-0.0256
0000543740;6.6942;-15.8568;1.9537;-0.0111;0.0262;-0.0334
0000543748;6.5817;-15.9502;1.9800;-0.0215;0.0268;-0.0278
0000543756;6.6128;-15.9190;1.9010;-0.0145;0.0218;-0.0318
0000543764;6.6415;-15.9047;1.9704;-0.0176;0.0193;-0.0297
0000543772;6.7445;-15.9023;1.8818;-0.0233;0.0234;-0.0246
0000543780;6.6511;-15.9693;1.9273;-0.0252;0.0253;-0.0248
0000543788;6.5769;-15.8903;1.9106;-0.0234;0.0203;-0.0216
0000543796;6.5386;-15.9789;1.8387;-0.0230;0.0226;-0.0211
0000543804;6.5912;-16.0795;1.9704;-0.0212;0.0229;-0.0200
0000543812;6.8331;-15.8544;1.9249;-0.0139;0.0135;-0.0257
0000543820;6.5505;-15.9095;1.9465;-0.0180;0.0200;-0.0175
0000543828;6.6367;-15.9621;1.9201;-0.0177;0.0203;-0.0221
0000543836;6.5625;-15.9837;1.9752;-0.0116;0.0157;-0.0233
0000543844;6.6080;-15.9502;2.0111;-0.0143;0.0113;-0.0309
0000543852;6.6272;-16.0076;1.9968;-0.0077;0.0113;-0.0314
0000543860;6.6343;-16.0435;1.9273;-0.0077;0.0145;-0.0284
0000543868;6.5290;-16.0890;1.8962;-0.0024;0.0175;-0.0272
0000543876;6.6248;-16.0196;1.9824;0.0053;0.0127;-0.0329
0000543884;6.5601;-16.2375;1.9297;0.0121;0.0083;-0.0365
0000543892;6.7253;-15.9861;1.9632;0.0161;0.0127;-0.0306
0000543900;6.7900;-15.9143;1.9369;0.0199;0.0169;-0.0273
0000543908;6.6870;-16.0005;1.8747;0.0200;0.0177;-0.0336
0000543916;6.6200;-15.9645;1.9441;0.0233;0.0095;-0.0380
0000543924;6.6056;-15.8640;2.0183;0.0260;0.0088;-0.0356
0000543932;6.6152;-16.0076;1.9489;0.0204;0.0103;-0.0357
0000543940;6.6200;-15.9885;1.9728;0.0217;0.0040;-0.0430
0000543948;6.5290;-15.8472;2.0901;0.0191;0.0016;-0.0358
0000543956;6.6846;-15.7754;2.0303;0.0111;0.0027;-0.0332
0000543964;6.6918;-15.8520;2.0183;0.0108;-0.0079;-0.0377
0000543972;6.4332;-15.9143;2.0255;0.0132;-0.0097;-0.0394
0000543980;6.4332;-16.0651;2.0662;0.0093;-0.0141;-0.0313
0000543988;6.7708;-15.7155;1.9872;0.0071;-0.0157;-0.0277
0000543996;6.5338;-15.8999;1.9393;0.0067;-0.0252;-0.0320
0000544004;6.5290;-15.9645;1.9704;0.0149;-0.0313;-0.0286
0000544012;6.6128;-15.9071;2.0303;0.0109;-0.0256;-0.0209
0000544020;6.6607;-15.9502;1.9297;0.0144;-0.0289;-0.0201
0000544028;6.9097;-15.8807;2.0279;0.0204;-0.0360;-0.0245
0000544036;6.6176;-15.9286;2.0566;0.0167;-0.0369;-0.0161
0000544044;6.5434;-15.9813;2.0279;0.0242;-0.0422;-0.0229
0000544052;6.5817;-16.0675;1.9561;0.0273;-0.0482;-0.0200
0000544060;6.6726;-15.9214;1.9680;0.0233;-0.0468;-0.0127
0000544068;6.5745;-15.9478;1.9944;0.0167;-0.0476;-0.0164
0000544076;6.7229;-15.9023;2.0087;0.0257;-0.0581;-0.0159
0000544084;6.6056;-15.9334;2.0614;0.0221;-0.0561;-0.0101
0000544092;6.5338;-15.9286;1.9154;0.0160;-0.0606;-0.0095
0000544100;6.6846;-15.9334;2.0279;0.0181;-0.0593;-0.0083
0000544108;6.5122;-16.0531;1.9585;0.0189;-0.0659;-0.0075
0000544116;6.5960;-16.0412;2.0542;0.0119;-0.0634;-0.0085
0000544124;6.6319;-15.8640;2.0183;0.0183;-0.0679;-0.0097
0000544132;6.6918;-15.8472;1.9872;0.0165;-0.0666;-0.0063
0000544140;6.6894;-15.9334;1.9824;0.0226;-0.0790;-0.0100
0000544167;6.7732;-15.7227;2.0614;0.0266;-0.0790;-0.0063
0000544175;6.6679;-15.8736;2.0542;0.0222;-0.0806;-0.0032
0000544183;6.9312;-15.7730;2.0135;0.0157;-0.0741;0.0024
0000544191;6.7516;-15.8664;2.0734;0.0127;-0.0762;-0.0013
0000544199;6.6679;-15.8089;2.0423;0.0120;-0.0829;-0.0073
0000544207;6.7493;-15.7491;2.0901;-0.0019;-0.0754;-0.0012
0000544215;6.5625;-15.7922;2.0590;-0.0037;-0.0777;-0.0069
0000544223;6.7181;-15.8017;2.0399;-0.0131;-0.0741;-0.0016
0000544231;6.6702;-15.8712;1.9920;-0.0163;-0.0766;-0.0071
0000544239;6.8259;-15.8783;1.9441;-0.0143;-0.0785;-0.0045
0000544247;6.7900;-15.9334;2.1093;-0.0211;-0.0741;-0.0024
0000544255;6.6080;-16.0076;2.0207;-0.0135;-0.0761;-0.0096
0000544263;6.6152;-15.8568;1.9561;-0.0171;-0.0698;-0.0029
0000544271;6.8067;-15.7634;2.0255;-0.0201;-0.0689;-0.0009
0000544279;6.6152;-15.8975;2.0159;-0.0132;-0.0726;-0.0091
0000544287;6.6248;-15.8783;2.1021;-0.0116;-0.0773;-0.0049
0000544295;6.6942;-15.8688;2.0039;-0.0157;-0.0685;-0.0047
0000544303;6.7636;-15.8760;2.0590;-0.0165;-0.0698;-0.0040
0000544311;6.7014;-15.9597;2.0351;-0.0175;-0.0726;-0.0096
0000544319;6.7373;-16.0005;2.0830;-0.0203;-0.0671;-0.0107
0000544327;6.7636;-15.8831;1.9800;-0.0172;-0.0548;-0.0076
0000544335;6.6056;-16.0675;2.0782;-0.0144;-0.0545;-0.0125
0000544343;6.8929;-15.9382;2.0949;-0.0040;-0.0578;-0.0107
0000544351;6.8331;-15.9358;2.1380;-0.0104;-0.0512;-0.0120
0000544359;6.6008;-15.9957;2.0997;-0.0120;-0.0474;-0.0103
0000544367;6.7325;-15.9119;2.0087;-0.0205;-0.0464;-0.0100
0000544375;6.7516;-15.7802;2.0446;-0.0313;-0.0401;-0.0089
0000544383;6.7636;-15.7993;1.9848;-0.0336;-0.0441;-0.0157
0000544391;6.7038;-15.9310;1.9201;-0.0353;-0.0442;-0.0179
0000544399;6.6870;-15.9382;2.0590;-0.0440;-0.0394;-0.0128
0000544407;6.6559;-16.1010;2.0159;-0.0401;-0.0389;-0.0143
0000544415;6.6559;-15.9789;2.0159;-0.0278;-0.0390;-0.0211
0000544423;6.7133;-15.9119;2.0423;-0.0232;-0.0393;-0.0133
0000544431;6.6248;-15.8712;2.0901;-0.0191;-0.0365;-0.0124
0000544439;6.4955;-15.9023;2.1069;-0.0196;-0.0416;-0.0167
0000544447;6.7373;-15.7778;2.0423;-0.0249;-0.0370;-0.0160
0000544455;6.5841;-15.9119;2.0279;-0.0264;-0.0414;-0.0188
0000544463;6.6272;-15.7993;2.0423;-0.0281;-0.0426;-0.0203
0000544471;6.6942;-15.8760;2.0446;-0.0325;-0.0406;-0.0176
0000544479;6.5984;-16.0028;2.0423;-0.0300;-0.0390;-0.0220
0000544487;6.7038;-15.9095;2.0111;-0.0268;-0.0357;-0.0252
0000544495;6.5386;-16.0771;2.1021;-0.0304;-0.0332;-0.0179
0000544503;6.6990;-16.0005;2.0758;-0.0232;-0.0396;-0.0221
0000544511;6.5793;-16.1154;2.0686;-0.0168;-0.0322;-0.0188
0000544519;6.7062;-15.9741;2.0231;-0.0203;-0.0285;-0.0192
0000544527;6.6535;-16.0196;1.9225;-0.0153;-0.0341;-0.0229
0000544535;6.5936;-16.0172;2.0111;-0.0184;-0.0284;-0.0171
0000544543;6.7660;-15.8089;2.0159;-0.0100;-0.0306;-0.0209
0000544551;6.7732;-15.8305;1.9465;-0.0148;-0.0232;-0.0195
0000544559;6.5888;-15.9717;2.0303;-0.0076;-0.0256;-0.0276
0000544567;6.6774;-15.9119;2.0638;-0.0159;-0.0218;-0.0230
0000544575;6.8402;-15.7658;2.1356;-0.0173;-0.0224;-0.0249
0000544583;6.7493;-15.8544;2.0135;-0.0159;-0.0200;-0.0242
0000544591;6.7349;-15.8855;2.0566;-0.0163;-0.0240;-0.0237
0000544599;6.6008;-15.8688;1.9776;-0.0137;-0.0301;-0.0356
0000544607;6.6726;-15.9190;2.0470;-0.0185;-0.0205;-0.0253
0000544615;6.8091;-15.7515;2.0925;-0.0249;-0.0184;-0.0215
0000544623;6.8163;-15.7467;2.0614;-0.0201;-0.0211;-0.0245
0000544631;6.7708;-15.7802;2.1117;-0.0216;-0.0265;-0.0242
0000544639;6.6726;-15.9334;2.0782;-0.0284;-0.0290;-0.0156
0000544647;6.6822;-15.9502;1.9824;-0.0377;-0.0199;-0.0151
0000544655;6.6918;-15.8736;2.1141;-0.0401;-0.0252;-0.0149
0000544663;6.5050;-16.0076;2.1237;-0.0429;-0.0313;-0.0212
0000544671;6.7804;-15.8664;2.0638;-0.0464;-0.0344;-0.0187
0000544679;6.5697;-15.8712;2.1117;-0.0505;-0.0270;-0.0156
0000544687;6.5888;-16.0699;1.9944;-0.0590;-0.0318;-0.0205
0000544695;6.7181;-16.0100;1.9656;-0.0561;-0.0366;-0.0211
0000544703;6.6295;-16.0076;1.9585;-0.0529;-0.0330;-0.0183
0000544711;6.5864;-16.0747;2.0207;-0.0442;-0.0381;-0.0192
0000544796;6.7205;-16.0124;1.9513;0.0179;-0.0485;-0.0131
0000544804;6.5864;-16.0196;2.0375;0.0183;-0.0438;-0.0099
0000544812;6.5912;-16.0771;2.0303;0.0230;-0.0496;-0.0149
0000544820;6.6894;-15.9286;1.9728;0.0156;-0.0478;-0.0088
0000544828;6.6008;-15.8137;1.9106;0.0023;-0.0465;-0.0100
0000544836;6.7062;-15.8712;2.0470;0.0005;-0.0557;-0.0157
0000544844;6.5505;-15.9023;1.9752;-0.0217;-0.0430;-0.0068
0000544852;6.5769;-15.8783;2.0423;-0.0254;-0.0428;-0.0092
0000544860;6.6224;-16.0052;1.9704;-0.0262;-0.0488;-0.0169
0000544868;6.9767;-15.8472;2.0111;-0.0269;-0.0438;-0.0121
0000544876;6.7732;-15.9262;1.9968;-0.0262;-0.0429;-0.0108
0000544884;6.6918;-16.0100;1.9680;-0.0164;-0.0488;-0.0124
0000544892;6.7277;-15.8712;2.0207;-0.0161;-0.0414;-0.0105
0000544900;6.6918;-15.9669;1.9369;-0.0125;-0.0493;-0.0057
0000544908;6.6487;-15.9238;2.0470;-0.0180;-0.0374;-0.0032
0000544916;6.5505;-15.8376;2.0758;-0.0179;-0.0453;-0.0099
0000544924;6.4332;-15.9550;1.9824;-0.0217;-0.0440;-0.0073
0000544932;6.7301;-15.8472;1.9010;-0.0288;-0.0373;0.0001
0000544940;6.5960;-15.8592;1.9776;-0.0365;-0.0412;0.0004
0000544948;6.6774;-15.8999;1.8507;-0.0385;-0.0474;-0.0004
0000544956;6.5577;-15.9574;1.8675;-0.0424;-0.0478;-0.0012
0000544964;6.6224;-15.9813;1.9896;-0.0446;-0.0474;0.0021
0000544972;6.6607;-15.9502;2.0351;-0.0408;-0.0525;-0.0041
0000544980;6.5553;-16.0555;1.9968;-0.0277;-0.0546;0.0039
0000544988;6.5386;-15.9717;1.8675;-0.0344;-0.0444;0.0095
0000544996;6.6056;-15.8903;1.9106;-0.0290;-0.0466;0.0029
0000545004;6.4021;-16.2662;2.0063;-0.0277;-0.0466;0.0004
0000545012;6.7062;-15.9167;1.9968;-0.0254;-0.0484;0.0047
0000545020;6.7588;-15.8376;2.0135;-0.0286;-0.0438;0.0059
0000545028;6.5793;-16.0005;1.9537;-0.0321;-0.0412;0.0056
0000545036;6.6894;-15.9310;2.0159;-0.0321;-0.0429;0.0037
0000545044;6.6726;-15.7586;1.9585;-0.0332;-0.0477;0.0001
0000545052;6.6319;-15.9717;1.9273;-0.0361;-0.0488;0.0004
0000545060;6.7325;-15.9214;1.9704;-0.0377;-0.0418;0.0067
0000545068;6.8163;-15.8065;1.9585;-0.0390;-0.0458;-0.0017
0000545076;6.5936;-16.0316;2.0303;-0.0477;-0.0454;0.0028
0000545084;6.5410;-15.9238;2.0087;-0.0454;-0.0398;0.0063
0000545092;6.7038;-15.9837;1.9273;-0.0429;-0.0465;-0.0009
0000545100;6.5960;-15.9454;1.9656;-0.0357;-0.0516;0.0011
0000545108;6.6487;-15.9238;1.9489;-0.0377;-0.0430;0.0008
0000545116;6.5984;-16.0292;1.9034;-0.0421;-0.0372;0.0057
0000545124;6.4955;-16.0244;1.9106;-0.0346;-0.0442;-0.0009
0000545132;6.7564;-15.9119;1.9609;-0.0350;-0.0413;0.0013
0000545140;6.7516;-15.8712;1.9848;-0.0396;-0.0413;0.0008
0000545148;6.6152;-16.0076;1.8316;-0.0337;-0.0440;0.0012
0000545156;6.5266;-15.9981;2.0423;-0.0338;-0.0417;0.0017
0000545164;6.6032;-16.0364;1.9154;-0.0324;-0.0485;-0.0021
0000545172;6.5793;-16.0292;1.9369;-0.0322;-0.0476;0.0025
0000545180;6.4883;-16.0986;1.9297;-0.0292;-0.0444;0.0007
0000545188;6.7014;-15.9214;1.9082;-0.0308;-0.0390;0.0059
0000545196;6.6128;-16.0914;1.9321;-0.0290;-0.0442;-0.0004
0000545204;6.4548;-16.0938;1.9824;-0.0207;-0.0460;0.0020
0000545212;6.6463;-15.9214;2.0135;-0.0240;-0.0426;0.0103
0000545220;6.4883;-16.1393;1.9585;-0.0254;-0.0410;0.0033
0000545228;6.6870;-15.9861;1.9513;-0.0213;-0.0446;-0.0031
0000545236;6.6463;-15.9574;1.8938;-0.0257;-0.0361;0.0019
0000545244;6.5793;-16.0268;1.9201;-0.0218;-0.0306;-0.0011
0000545252;6.6272;-15.9645;1.9824;-0.0180;-0.0304;-0.0005
0000545260;6.7588;-15.9238;2.0494;-0.0125;-0.0388;-0.0052
0000545268;6.6343;-16.0292;1.9704;-0.0124;-0.0340;0.0029
0000545276;6.6248;-15.9597;1.9776;-0.0101;-0.0402;-0.0007
0000545284;6.5625;-16.0268;1.9609;-0.0155;-0.0328;0.0051
0000545292;6.7924;-15.8688;1.9297;-0.0187;-0.0321;0.0067
0000545300;6.5314;-15.8352;1.9441;-0.0226;-0.0356;0.0048
0000545308;6.6990;-15.8807;1.9010;-0.0220;-0.0398;-0.0059
0000545316;6.7900;-15.8089;1.8962;-0.0273;-0.0314;0.0048
0000545324;6.8450;-15.8616;1.8699;-0.0221;-0.0365;-0.0035
0000545332;6.8115;-15.9430;1.8986;-0.0167;-0.0373;-0.0068
0000545340;6.6679;-15.9071;1.8938;-0.0176;-0.0253;0.0003
0000545348;6.9528;-15.9310;1.8866;-0.0199;-0.0230;-0.0027
0000545434;6.6655;-15.7419;1.9106;-0.0057;-0.0207;-0.0216
0000545442;6.6487;-15.7155;1.9321;-0.0234;-0.0238;-0.0137
0000545450;6.6367;-15.7155;2.0399;-0.0328;-0.0240;-0.0156
0000545458;6.6463;-15.8999;1.9992;-0.0329;-0.0321;-0.0246
0000545466;6.7588;-15.8736;1.9776;-0.0301;-0.0294;-0.0175
0000545474;6.4572;-16.0627;1.8818;-0.0272;-0.0253;-0.0140
0000545482;6.6367;-15.8592;1.9680;-0.0189;-0.0199;-0.0125
0000545490;6.5218;-16.0459;1.9106;-0.0036;-0.0245;-0.0196
0000545498;6.5936;-16.0747;1.9345;0.0004;-0.0141;-0.0176
0000545506;6.7038;-16.1345;1.9225;0.0155;-0.0244;-0.0233
0000545514;6.9480;-15.8807;1.8794;0.0119;-0.0208;-0.0213
0000545522;6.8331;-15.9502;1.8627;0.0104;-0.0185;-0.0189
0000545530;6.8761;-15.7682;1.8651;0.0151;-0.0238;-0.0253
0000545538;6.6104;-15.9693;1.8507;0.0137;-0.0242;-0.0342
0000545546;6.7612;-15.9981;1.8531;0.0100;-0.0232;-0.0333
0000545554;6.5841;-15.9693;1.8699;0.0065;-0.0191;-0.0317
0000545562;6.5721;-16.1010;1.9656;0.0171;-0.0204;-0.0348
0000545570;6.6679;-16.0052;1.9609;0.0188;-0.0112;-0.0281
0000545578;6.6894;-15.9957;1.9106;0.0274;-0.0061;-0.0257
0000545586;6.4548;-16.0986;1.9417;0.0425;-0.0091;-0.0281
0000545594;6.4955;-16.0627;1.9680;0.0516;-0.0055;-0.0187
0000545602;6.6990;-15.9310;1.9896;0.0554;-0.0115;-0.0213
0000545610;6.5745;-15.9669;2.0327;0.0537;-0.0032;-0.0175
0000545618;6.6918;-15.8233;2.0279;0.0442;-0.0033;-0.0168
0000545626;6.6918;-15.8113;1.9465;0.0352;-0.0095;-0.0208
0000545634;6.7373;-15.9047;2.0063;0.0306;-0.0141;-0.0215
0000545642;6.5146;-15.8496;2.0446;0.0216;-0.0101;-0.0224
0000545650;6.4835;-15.9813;2.0470;0.0184;-0.0164;-0.0281
0000545658;6.6583;-15.8783;2.1428;0.0077;-0.0120;-0.0173
0000545666;6.6870;-15.9310;1.9968;0.0153;-0.0123;-0.0205
0000545674;6.6990;-15.9143;1.9920;0.0200;-0.0149;-0.0265
0000545682;6.6535;-16.0555;2.0207;0.0152;-0.0083;-0.0189
0000545690;6.7109;-16.1321;2.0423;0.0213;-0.0040;-0.0164
0000545698;6.6463;-16.1058;2.0039;0.0301;-0.0095;-0.0207
0000545706;6.7445;-15.9597;2.0423;0.0441;-0.0083;-0.0192
0000545714;6.6104;-16.0531;2.0207;0.0474;-0.0105;-0.0204
0000545722;6.5386;-15.9502;1.9896;0.0521;-0.0184;-0.0195
0000545730;6.5290;-16.0627;2.1141;0.0445;-0.0099;-0.0171
0000545738;6.6272;-15.8616;1.9848;0.0322;-0.0065;-0.0132
0000545746;6.6822;-15.7538;1.9178;0.0366;-0.0104;-0.0167
0000545754;6.6080;-15.9430;1.9441;0.0278;-0.0089;-0.0163
0000545762;6.7516;-15.7634;1.9609;0.0332;-0.0147;-0.0222
0000545770;6.6679;-15.8592;2.0662;0.0262;-0.0099;-0.0165
0000545778;6.7804;-15.7993;2.0949;0.0314;-0.0120;-0.0119
0000545786;6.7732;-15.8664;1.9752;0.0314;-0.0152;-0.0168
0000545794;6.5553;-16.0196;2.0566;0.0384;-0.0225;-0.0171
0000545802;6.6080;-15.9238;2.1189;0.0330;-0.0225;-0.0160
0000545810;6.7062;-15.7658;2.0686;0.0268;-0.0293;-0.0157
0000545818;6.7133;-15.7826;2.0542;0.0230;-0.0321;-0.0144
0000545826;6.6367;-15.8329;2.0111;0.0117;-0.0302;-0.0133
0000545834;6.6104;-15.8185;1.9561;0.0028;-0.0361;-0.0177
0000545842;6.5697;-15.8927;2.0806;0.0017;-0.0458;-0.0226
0000545850;6.6750;-15.9478;1.9201;0.0013;-0.0384;-0.0191
0000545858;6.5864;-15.9741;2.0327;-0.0055;-0.0408;-0.0153
0000545866;6.6391;-15.9837;2.1045;0.0011;-0.0521;-0.0256
0000545874;6.6655;-16.0124;2.0183;0.0047;-0.0474;-0.0230
0000545882;6.6655;-15.9861;1.9848;0.0021;-0.0482;-0.0208
0000545890;6.8091;-15.9406;2.1045;0.0127;-0.0618;-0.0218
0000545898;6.7133;-15.9286;2.0470;0.0096;-0.0633;-0.0222
0000545906;6.7421;-16.0316;1.9944;0.0155;-0.0722;-0.0316
0000545914;6.7756;-16.0028;2.0087;0.0225;-0.0773;-0.0318
0000545922;6.5864;-16.0651;2.0446;0.0242;-0.0830;-0.0284
0000545930;6.7780;-15.9717;2.0303;0.0256;-0.0875;-0.0312
0000545938;6.8618;-15.9262;2.0997;0.0265;-0.0922;-0.0308
0000545946;6.7564;-15.9406;2.0327;0.0226;-0.1058;-0.0284
0000545954;6.6248;-15.9981;2.0303;0.0242;-0.1248;-0.0421
0000545962;6.7924;-16.1297;1.9992;0.0224;-0.1363;-0.0392
0000545970;6.8235;-16.2447;2.0207;0.0200;-0.1573;-0.0392
0000545978;6.9959;-16.2949;2.0662;0.0320;-0.1799;-0.0465
0000545986;7.0605;-16.3141;2.0231;0.0460;-0.2105;-0.0524
0000545994;6.8378;-16.6565;2.1644;0.0726;-0.2422;-0.0661
0000546080;8.4635;-16.0723;3.4836;0.4000;-0.4828;-0.0264
0000546088;8.4013;-16.1034;3.6057;0.4037;-0.4732;-0.0151
0000546096;8.7125;-15.9119;3.6368;0.4185;-0.4711;-0.0031
0000546104;8.6239;-15.8209;3.8044;0.4449;-0.4690;-0.0001
0000546112;8.7293;-15.7730;3.7996;0.4679;-0.4502;0.0189
0000546120;8.7508;-15.8113;3.9528;0.5104;-0.4393;0.0217
0000546128;9.1698;-15.7036;3.9289;0.5646;-0.4108;0.0171
0000546136;9.3182;-15.7634;3.9552;0.6185;-0.3645;0.0117
0000546144;9.8641;-15.4977;4.0366;0.6752;-0.3195;-0.0072
0000546152;10.1347;-15.2989;4.0845;0.7429;-0.2654;-0.0381
0000546160;10.5680;-14.9207;3.9193;0.7894;-0.2085;-0.0823
0000546168;10.9271;-14.4729;3.7541;0.8090;-0.1466;-0.1331
0000546176;10.8529;-14.1689;3.3926;0.8114;-0.0751;-0.1917
0000546184;10.7691;-13.8169;3.2010;0.8066;-0.0143;-0.2445
0000546192;10.4651;-13.3525;3.0742;0.8038;0.0401;-0.2907
0000546200;9.8881;-13.2184;2.8395;0.7723;0.0925;-0.3247
0000546208;9.1482;-13.3620;2.8443;0.7721;0.1322;-0.3444
0000546216;8.7891;-13.1059;2.7533;0.8086;0.1503;-0.3471
0000546224;8.5904;-13.5608;2.6719;0.8444;0.1725;-0.3417
0000546232;8.0661;-13.8816;2.7629;0.9321;0.1629;-0.3619
0000546240;7.9895;-13.9103;2.4397;1.0413;0.1338;-0.3917
0000546248;8.0278;-13.9223;2.2075;1.1710;0.1011;-0.4494
0000546256;8.1570;-13.7355;2.2960;1.3499;0.0883;-0.5215
0000546264;8.2839;-13.4841;2.4732;1.5055;0.0730;-0.6282
0000546272;8.4922;-12.9622;2.5666;1.6149;0.0546;-0.7609
0000546280;8.7724;-12.3972;2.5043;1.6866;0.0674;-0.9192
0000546288;9.0333;-11.7292;2.5115;1.7304;0.1276;-1.0376
0000546296;9.1243;-11.0516;2.1356;1.7098;0.2113;-1.1048
0000546304;9.2344;-10.8409;1.4820;1.7208;0.3223;-1.1394
0000546312;8.9064;-10.5776;1.0942;1.7305;0.4835;-1.1230
0000546320;8.6311;-10.1825;-0.0407;1.6643;0.6366;-1.0845
0000546328;8.8633;-9.4355;-0.4214;1.5918;0.7798;-1.0559
0000546336;8.7149;-8.5832;-0.5650;1.5439;0.9126;-1.0661
0000546344;7.8650;-8.0804;-0.8236;1.4389;1.0515;-1.1143
0000546352;6.9599;-7.4148;-1.3384;1.3602;1.2113;-1.1776
0000546360;5.9089;-6.9839;-1.7095;1.2950;1.4242;-1.2228
0000546368;5.3726;-6.2632;-1.6903;1.4190;1.6447;-1.2295
0000546376;4.5610;-5.6096;-2.7438;1.6133;1.8535;-1.1892
0000546384;4.3574;-4.2521;-2.9951;1.7676;2.0155;-1.0913
0000546392;4.2042;-2.8252;-3.2322;1.7365;2.1269;-0.9681
0000546400;4.4029;-1.6424;-3.4979;1.6443;2.2411;-0.8128
0000546408;4.8459;-0.8452;-4.2521;1.4206;2.3465;-0.5938
0000546416;5.1834;-0.8595;-4.3790;1.1583;2.4958;-0.3407
0000546424;5.9831;-1.4246;-3.4884;1.0259;2.6791;-0.1218
0000546432;6.5745;-2.2362;-3.0335;0.8944;2.8424;0.1208
0000546440;7.8147;-3.1388;-1.7741;0.7101;2.9964;0.3335
0000546448;9.3158;-4.8171;-0.1700;0.5260;3.1485;0.4783
0000546456;11.7316;-8.6072;3.7589;0.4626;3.3109;0.4740
0000546464;13.3644;-13.2184;7.5489;0.5694;3.4347;0.3826
0000546472;13.7427;-17.6955;9.8641;0.7568;3.5316;0.2802
0000546480;11.4922;-19.9006;9.4978;0.9109;3.4536;0.2603
0000546488;9.9144;-20.1927;9.6654;1.0516;3.1540;0.2200
0000546496;8.7676;-17.8584;7.0054;1.0292;2.7892;0.0228
0000546504;7.0773;-13.8385;5.6647;0.9034;2.5486;-0.2618
0000546512;6.0980;-11.2097;6.2824;0.8877;2.4177;-0.4746
0000546520;5.2481;-9.6965;6.7301;0.8920;2.3253;-0.6181
0000546528;4.6878;-8.7077;6.2824;0.8001;2.2484;-0.6844
0000546536;4.9656;-9.3565;6.3542;0.5676;2.1020;-0.6672
0000546544;6.3231;-11.2456;7.7381;0.3027;1.9632;-0.5950
0000546552;7.2089;-13.6254;10.8170;0.1956;1.8795;-0.4852
0000546560;5.7509;-15.3468;13.3477;0.4068;1.8179;-0.2028
0000546568;5.9520;-16.0412;11.5424;0.5753;1.8098;0.2178
0000546576;5.6671;-15.4067;9.4715;0.4766;1.7292;0.5574
0000546584;4.7597;-13.3094;7.6878;0.1348;1.5571;0.7043
0000546592;4.0869;-11.0875;8.1570;-0.2218;1.3977;0.6757
0000546600;4.0941;-9.1028;8.8490;-0.5861;1.3051;0.5542
0000546608;3.9217;-7.9296;8.3534;-1.0339;1.2734;0.4606
0000546616;4.0223;-7.7572;8.3294;-1.4879;1.1548;0.4110
0000546624;3.7230;-8.9687;9.1554;-1.8644;0.9569;0.3277
0000546632;4.1420;-10.1801;10.9200;-2.1108;0.7995;0.2797
0000546640;3.0981;-11.3270;11.5927;-2.1972;0.7494;0.3621
0000546725;2.8515;-23.5230;27.1239;-3.8026;1.1774;0.9745
0000546733;-9.1147;-38.6975;21.2581;-4.0913;2.1522;1.5950
0000546741;-23.2333;-42.3032;7.1395;-3.2567;2.6346;3.3873
0000546749;-28.9531;-41.6902;0.3472;-3.5185;2.5115;4.3656
0000546757;-24.6914;-37.0838;-3.8164;-3.8553;1.8230;4.3656
0000546765;-18.1720;-33.5883;-4.6615;-3.8918;0.8892;4.3656
0000546773;-15.5575;-32.5875;-4.8698;-3.9342;0.0735;4.3656
0000546781;-13.2830;-31.8525;-1.8914;-3.6893;-0.3822;4.3656
0000546789;-11.2575;-29.3505;1.0032;-3.2768;-0.7666;4.3656
0000546797;-8.5425;-25.3929;0.4884;-2.7560;-1.2769;4.1074
0000546805;-5.3870;-21.5909;-0.6800;-2.1731;-1.7745;4.2455
0000546813;-2.3391;-18.4497;-0.9218;-1.6341;-2.1225;4.3656
0000546821;0.7422;-15.9933;-1.1827;-1.3406;-2.3387;4.3656
0000546829;2.4157;-13.8576;-0.8978;-1.2430;-2.5245;4.3656
0000546837;4.3981;-12.1051;-0.5890;-1.2752;-2.5915;4.3656
0000546845;6.3015;-11.3126;-1.4653;-1.3821;-2.6364;4.3656
0000546853;7.6184;-11.3413;-3.2441;-1.4861;-2.6893;4.3656
0000546861;9.1937;-11.5424;-2.8683;-1.5212;-2.7212;4.3656
0000546869;10.1945;-12.5073;-1.4030;-1.4762;-2.7280;4.3656
0000546877;10.2903;-13.7068;-0.2298;-1.3755;-2.6913;4.3656
0000546885;10.3190;-15.3109;0.5363;-1.1453;-2.5794;4.3656
0000546893;10.3860;-16.7498;0.6297;-0.7273;-2.3355;4.3656
0000546901;11.8321;-17.9637;-0.1245;-0.3111;-2.0043;4.3656
0000546909;13.4865;-17.8200;-0.1939;0.0573;-1.7156;4.3656
0000546917;14.3939;-17.0180;-0.3950;0.4238;-1.4256;4.3597
0000546925;14.4873;-15.4043;-0.2418;0.8091;-1.1840;3.9071
0000546933;13.6469;-13.4458;-0.7039;1.1402;-0.8887;3.4059
0000546941;13.4027;-12.2176;-0.4621;1.3800;-0.5680;2.8174
0000546949;13.1130;-11.2216;-1.5754;1.4773;-0.1524;2.0646
0000546957;12.0740;-10.4531;-3.3519;1.2837;0.3908;1.1560
0000546965;7.5058;-8.8346;-2.8180;1.2797;1.0459;0.3889
0000546973;0.0263;-6.4955;-2.2817;1.4955;1.8876;0.0496
0000546981;-6.3039;-4.4149;-2.0399;1.6277;2.8404;0.0476
0000546989;-14.5759;-2.4397;-2.5283;1.2768;3.8892;0.2863
0000546997;-20.8056;1.4724;-0.9098;0.9481;4.3656;0.9755
0000547005;-23.2525;3.5410;-1.6472;0.4553;4.3656;1.5415
0000547013;-24.0450;5.3415;-1.4078;-0.3653;4.3656;1.8361
0000547021;-23.8415;5.2241;1.6664;-0.9743;4.3656;1.9906
0000547029;-21.9476;3.7709;2.0901;-1.3332;4.3656;2.0540
0000547037;-20.7960;1.2665;0.5052;-1.7825;4.0632;2.0777
0000547045;-18.1193;-1.3934;-0.7230;-2.2856;3.7225;2.1949
0000547053;-16.2399;-2.8994;0.2179;-2.6412;3.2996;2.2853
0000547061;-14.9709;-4.5777;1.6807;-2.7023;2.6366;2.2513
0000547069;-15.0715;-6.4667;2.9377;-2.5061;1.6647;2.2127
0000547077;-16.2806;-8.6503;3.1220;-2.1426;0.6639;2.2078
0000547085;-18.7993;-10.0054;4.6950;-1.6999;-0.2218;2.2010
0000547093;-21.6627;-9.7540;6.5242;-1.1799;-0.9092;2.0191
0000547101;-22.4983;-9.0621;5.5737;-0.6678;-1.4894;1.6110
0000547109;-18.7131;-6.6104;1.1684;-0.2887;-2.0860;1.0962
0000547117;-13.9414;-4.6471;-3.5291;-0.1046;-2.6221;0.6332
0000547125;-10.6039;-3.3184;-6.1028;-0.1320;-3.0922;0.2790
0000547133;-7.4172;-2.0111;-6.3542;-0.2582;-3.4059;0.0512
0000547141;-3.4979;-1.3072;-4.9847;-0.3432;-3.5458;-0.1665
0000547149;0.1413;-0.8739;-3.3974;-0.2908;-3.5730;-0.4169
0000547157;3.5267;-0.4166;-3.0047;-0.1756;-3.4683;-0.6407
0000547165;6.4428;-0.1915;-2.0279;-0.0911;-3.2623;-0.8332
0000547173;9.4930;0.3256;-1.3072;-0.0461;-2.9603;-1.0635
0000547181;11.5784;0.0479;-0.6153;0.0081;-2.5540;-1.3221
0000547189;12.6246;-0.2107;-0.8284;0.1026;-2.1068;-1.5508
0000547197;12.6055;-0.5195;-1.1013;0.2008;-1.6114;-1.6569
0000547205;12.6127;-0.5650;-1.2043;0.2084;-1.1258;-1.5657
0000547213;12.0596;-0.5243;-1.2641;0.1184;-0.6279;-1.4190
0000547221;11.1402;-0.3950;-1.5586;-0.0554;-0.1681;-1.1934
0000547229;9.9120;-0.3926;-1.1684;-0.2591;0.3223;-0.8876
0000547237;8.3127;-0.3879;-0.6752;-0.3897;0.7646;-0.5930
0000547245;6.6990;-0.6847;-0.2777;-0.4924;1.1459;-0.3459
0000547253;5.1164;-1.2426;-0.0120;-0.5445;1.4489;-0.1532
0000547261;2.9760;-1.8914;0.0479;-0.5317;1.6690;-0.0195
0000547269;-0.1293;-3.0622;0.0599;-0.5480;1.7881;0.0881
0000547277;-2.9568;-3.7397;0.1125;-0.5694;1.8410;0.1420
0000547362;-7.1826;-2.1284;-2.2075;0.5452;0.0614;0.2581
0000547370;-6.7876;-1.5371;-2.6743;0.3890;-0.0754;0.1828
0000547378;-6.5218;-1.2306;-2.8706;0.2180;-0.1768;0.1152
0000547386;-6.1770;-1.5514;-2.9544;0.0365;-0.2537;0.0775
0000547394;-5.7221;-2.0063;-2.8084;-0.1266;-0.2978;0.0501
0000547402;-4.8459;-2.5762;-2.4804;-0.2727;-0.3184;0.0139
0000547410;-4.2760;-3.2561;-1.9082;-0.3933;-0.3423;-0.0305
0000547418;-3.6775;-3.9720;-1.0534;-0.4603;-0.3639;-0.0829
0000547426;-3.2561;-4.7477;-0.4190;-0.4922;-0.3575;-0.1136
0000547434;-2.5786;-5.1643;-0.0431;-0.4732;-0.3548;-0.1450
0000547442;-2.4517;-5.8873;0.4142;-0.4266;-0.3131;-0.1725
0000547450;-2.0997;-6.3758;0.8571;-0.3424;-0.2705;-0.2030
0000547458;-1.7933;-6.3805;1.1851;-0.2390;-0.2407;-0.2369
0000547466;-1.6664;-6.7469;1.1564;-0.1246;-0.2074;-0.2699
0000547474;-1.4796;-6.5984;0.9577;-0.0313;-0.1928;-0.3102
0000547482;-1.3336;-6.4883;1.0008;0.0456;-0.1883;-0.3543
0000547490;-1.2929;-6.3039;0.9744;0.1259;-0.1851;-0.4078
0000547498;-1.4653;-6.0071;0.8859;0.1716;-0.1832;-0.4608
0000547506;-1.7238;-5.7126;0.9960;0.1958;-0.1863;-0.5113
0000547514;-2.0016;-5.6072;1.0223;0.1875;-0.2042;-0.5578
0000547522;-2.4469;-5.2744;1.0271;0.1636;-0.2121;-0.5660
0000547530;-2.9257;-5.1523;1.1516;0.0945;-0.2224;-0.5510
0000547538;-3.7397;-5.5522;1.1971;0.0081;-0.2369;-0.5037
0000547546;-3.6583;-5.7197;1.2210;-0.0842;-0.2617;-0.4596
0000547554;-4.1539;-6.1196;1.6616;-0.1496;-0.2706;-0.4134
0000547562;-4.4819;-6.3327;1.9609;-0.1322;-0.2765;-0.3874
0000547570;-4.4939;-6.4021;2.1883;-0.1234;-0.2710;-0.3463
0000547578;-4.9416;-6.9719;2.1620;-0.1240;-0.2745;-0.3119
0000547586;-4.5753;-7.1132;2.1715;-0.1308;-0.3060;-0.2673
0000547594;-4.3407;-7.5058;2.1907;-0.1468;-0.3391;-0.2277
0000547602;-4.4077;-7.7285;2.1045;-0.0931;-0.3729;-0.2274
0000547610;-4.1061;-7.5992;1.8387;-0.0449;-0.3838;-0.2200
0000547618;-4.1037;-7.6375;1.8364;-0.0446;-0.3796;-0.2080
0000547626;-4.3407;-7.6255;1.8268;-0.0418;-0.3639;-0.1913
0000547634;-4.1084;-7.6758;1.7358;-0.0424;-0.3635;-0.1723
0000547642;-4.1108;-7.7237;1.6951;-0.0414;-0.3449;-0.1378
0000547650;-3.7565;-7.6495;1.8842;-0.0224;-0.3311;-0.1159
0000547658;-3.6081;-7.7859;1.9393;-0.0019;-0.3114;-0.0882
0000547666;-3.2968;-7.7500;1.9800;0.0192;-0.3039;-0.0786
0000547674;-3.1699;-7.8769;2.0135;0.0300;-0.2856;-0.0739
0000547682;-2.8922;-7.9416;2.0446;0.0330;-0.2665;-0.0695
0000547690;-2.7485;-7.9655;2.0662;0.0414;-0.2562;-0.0801
0000547698;-2.6624;-8.1259;2.1668;0.0398;-0.2308;-0.0719
0000547706;-2.6983;-8.2361;2.3248;0.0389;-0.2068;-0.0679
0000547714;-2.5091;-8.0517;2.3655;0.0530;-0.1917;-0.0640
0000547722;-2.3798;-8.1044;2.4636;0.0739;-0.1685;-0.0450
0000547730;-2.4110;-8.0996;2.3846;0.0917;-0.1335;-0.0277
0000547738;-2.4900;-7.9200;2.1644;0.1152;-0.1021;-0.0131
0000547746;-2.5259;-7.4196;2.2505;0.1256;-0.0690;0.0039
0000547754;-2.8994;-7.2832;2.0518;0.1320;-0.0441;0.0149
0000547762;-3.0287;-7.0198;1.9082;0.1203;-0.0131;0.0445
0000547770;-3.3423;-6.7660;1.8244;0.1002;0.0089;0.0465
0000547778;-3.6320;-6.7636;1.6903;0.0823;0.0238;0.0492
0000547786;-3.8044;-6.9336;1.7119;0.0654;0.0406;0.0717
0000547794;-3.5793;-6.6966;1.5802;0.0545;0.0433;0.0838
0000547802;-3.5721;-6.8211;1.6807;0.0522;0.0412;0.0898
0000547810;-3.5698;-6.8307;1.7549;0.0469;0.0478;0.0945
0000547818;-3.5817;-6.8450;1.6783;0.0502;0.0537;0.0931
0000547826;-3.5099;-6.9504;1.6664;0.0600;0.0598;0.0862
0000547834;-3.5889;-6.7469;1.7310;0.0682;0.0699;0.0873
0000547842;-3.5698;-6.6990;1.7262;0.0645;0.0706;0.0781
0000547850;-3.4405;-6.4165;1.8771;0.0574;0.0589;0.0644
0000547858;-3.5219;-6.4380;1.8986;0.0452;0.0608;0.0569
0000547866;-3.4884;-6.2991;2.0016;0.0232;0.0679;0.0530
0000547874;-3.4189;-6.2752;2.0159;0.0147;0.0725;0.0492
0000547882;-3.4381;-6.3877;2.1596;0.0140;0.0734;0.0458
0000547890;-3.3375;-6.3877;2.1572;0.0052;0.0897;0.0521
0000547898;-3.2872;-6.6463;2.1284;0.0220;0.1045;0.0418
0000547906;-3.4860;-6.6104;1.7549;0.0366;0.1088;0.0454
0000547914;-3.4836;-6.6990;1.3575;0.0787;0.0869;0.0426
0000547922;-3.7493;-6.7756;1.0175;0.1124;0.0602;0.0345
0000548013;-2.6504;-7.0246;1.4317;0.0699;0.0589;-0.1142
0000548021;-2.3798;-7.0940;0.9529;0.1018;0.0093;-0.1130
0000548029;-2.7294;-7.1156;0.7877;0.1331;-0.0230;-0.1091
0000548037;-2.9113;-7.0988;0.8380;0.1700;-0.0374;-0.1086
0000548045;-3.2226;-6.9671;0.9146;0.1912;-0.0348;-0.0990
0000548053;-3.5841;-6.9432;0.9936;0.2005;-0.0366;-0.1071
0000548061;-4.1994;-6.7828;1.0750;0.1848;-0.0266;-0.1085
0000548069;-4.4436;-6.9049;1.1157;0.1649;-0.0185;-0.0969
0000548077;-4.4580;-6.7157;1.5060;0.1410;0.0112;-0.0655
0000548085;-4.1731;-6.8857;1.9752;0.1239;0.0408;-0.0426
0000548093;-3.6919;-6.7900;2.2027;0.1023;0.0586;-0.0278
0000548101;-3.5937;-6.8570;2.2505;0.0923;0.0710;-0.0256
0000548109;-3.3423;-6.7876;2.0351;0.0835;0.0845;-0.0124
0000548117;-3.3710;-6.8570;1.7597;0.0781;0.0914;0.0115
0000548125;-3.6057;-6.9815;1.3455;0.0851;0.0839;0.0280
0000548133;-3.7733;-6.8666;1.0558;0.1027;0.0392;0.0429
0000548141;-3.8259;-6.8354;1.0367;0.1058;0.0076;0.0612
0000548149;-3.8188;-6.8307;1.1588;0.1013;-0.0037;0.0514
0000548157;-4.3096;-6.6248;1.3048;0.1156;-0.0192;0.0333
0000548165;-4.4796;-6.5481;1.1947;0.1010;-0.0424;0.0278
0000548173;-4.4843;-6.5793;1.2163;0.0777;-0.0482;0.0330
0000548181;-4.2186;-6.4931;1.1133;0.0604;-0.0528;0.0310
0000548189;-3.4884;-6.4643;1.0511;0.0508;-0.0621;0.0236
0000548197;-3.1508;-6.3111;1.3120;0.0522;-0.0658;0.0149
0000548205;-3.1173;-6.4332;1.5514;0.0316;-0.0494;0.0115
0000548213;-2.8371;-6.2249;1.9154;0.0167;-0.0429;0.0121
0000548221;-3.1388;-6.3973;1.9561;-0.0085;-0.0229;0.0207
0000548229;-3.0718;-6.3590;1.9297;-0.0262;0.0004;0.0200
0000548237;-3.2130;-6.5457;1.8364;-0.0232;0.0313;0.0049
0000548245;-3.4907;-6.5625;1.6927;-0.0157;0.0425;0.0088
0000548253;-3.4500;-6.6535;1.4653;-0.0095;0.0333;0.0092
0000548261;-3.1412;-6.6008;1.2546;0.0019;-0.0111;0.0004
0000548269;-3.3040;-6.6990;1.1684;0.0304;-0.0476;-0.0225
0000548277;-3.3926;-6.5721;1.1013;0.0533;-0.0797;-0.0349
0000548285;-3.4261;-6.4476;0.8475;0.0594;-0.0939;-0.0474
0000548293;-3.6871;-6.7062;0.8428;0.0564;-0.0990;-0.0654
0000548301;-3.7110;-6.4165;0.7207;0.0536;-0.0929;-0.0763
0000548309;-3.8020;-6.3470;0.9026;0.0361;-0.0802;-0.0737
0000548317;-3.6703;-6.5577;1.1037;0.0048;-0.0693;-0.0528
0000548325;-3.4884;-6.5050;1.1157;-0.0310;-0.0705;-0.0392
0000548333;-3.1244;-6.8522;1.2737;-0.0413;-0.0757;-0.0390
0000548341;-3.0813;-7.0892;1.5969;-0.0280;-0.0730;-0.0445
0000548349;-3.0598;-6.9623;2.0183;-0.0016;-0.0610;-0.0409
0000548357;-3.1077;-6.9480;2.2769;0.0254;-0.0496;-0.0333
0000548365;-3.3662;-6.8690;2.3463;0.0426;-0.0273;-0.0249
0000548373;-3.8403;-6.9360;2.2649;0.0508;-0.0035;-0.0175
0000548381;-3.7230;-6.6272;1.9561;0.0529;0.0149;-0.0191
0000548389;-3.7493;-6.6463;1.6903;0.0374;0.0128;-0.0151
0000548397;-3.8595;-6.7876;1.2450;0.0252;-0.0081;-0.0067
0000548405;-3.4788;-6.5864;1.0989;0.0201;-0.0460;0.0044
0000548413;-3.6727;-6.7325;1.0678;0.0556;-0.0803;-0.0017
0000548421;-3.7062;-6.7325;1.0056;0.0918;-0.0995;-0.0193
0000548429;-3.7038;-6.3805;0.8332;0.1054;-0.1118;-0.0442
0000548437;-3.7038;-6.4236;0.8332;0.1042;-0.1247;-0.0677
0000548445;-3.8140;-6.4284;0.8906;0.0835;-0.1222;-0.0750
0000548453;-3.6799;-6.2489;0.8811;0.0524;-0.1150;-0.0654
0000548461;-3.4716;-6.3590;1.0223;-0.0067;-0.1023;-0.0454
0000548469;-3.4189;-6.5050;1.0104;-0.0612;-0.0951;-0.0358
0000548477;-3.1053;-6.5697;1.1085;-0.1014;-0.0821;-0.0318
0000548485;-3.1508;-7.0437;1.3001;-0.1035;-0.0733;-0.0258
0000548493;-2.9616;-6.9216;1.6400;-0.0795;-0.0546;-0.0056
0000548501;-3.1699;-7.1395;1.9872;-0.0342;-0.0425;0.0060
0000548509;-3.2370;-7.1682;2.4852;0.0133;-0.0484;0.0107
0000548517;-3.6105;-7.1084;2.7078;0.0450;-0.0554;0.0116
0000548525;-3.8451;-6.9767;2.8323;0.0500;-0.0436;0.0220
0000548533;-4.0606;-6.7756;2.7054;0.0557;-0.0205;0.0264
0000548541;-4.3024;-6.6295;2.4876;0.0488;0.0401;0.0413
0000548549;-4.4365;-6.6966;2.0758;0.0489;0.0612;0.0445
0000548557;-4.3383;-6.6487;1.4844;0.0522;0.0338;0.0406
0000548565;-3.8547;-6.3805;1.0989;0.0484;-0.0156;0.0313
0000548573;-3.6392;-6.3758;0.8715;0.0364;-0.0733;0.0120
0000548660;-3.3279;-7.5489;1.7526;0.0005;-0.0294;0.0124
0000548669;-3.4213;-7.4579;1.8675;0.0765;-0.0260;0.0191
0000548678;-3.2657;-7.1491;2.2003;0.1380;-0.0276;0.0310
0000548687;-3.8140;-6.9145;2.3391;0.1835;-0.0318;0.0310
0000548696;-4.0390;-6.5721;2.3104;0.1835;-0.0338;0.0366
0000548705;-4.0893;-6.1914;2.1476;0.1584;-0.0294;0.0312
0000548714;-4.3407;-6.1004;1.9417;0.1005;-0.0011;0.0377
0000548723;-4.3407;-5.8490;1.5850;0.0646;0.0124;0.0405
0000548732;-4.1276;-5.9568;1.2857;0.0175;0.0005;0.0334
0000548741;-3.7302;-5.9616;1.1277;-0.0071;-0.0164;0.0104
0000548750;-3.3878;-6.0861;1.0606;-0.0352;-0.0368;-0.0151
0000548759;-2.9568;-6.0980;1.2139;-0.0465;-0.0506;-0.0458
0000548768;-2.7869;-6.1435;1.1013;-0.0750;-0.0422;-0.0533
0000548777;-2.7342;-6.4380;1.2019;-0.0962;-0.0337;-0.0625
0000548786;-2.6624;-6.5410;1.2833;-0.1188;-0.0209;-0.0681
0000548795;-2.7892;-6.7469;1.4485;-0.1272;-0.0144;-0.0569
0000548804;-3.1603;-7.1108;1.4581;-0.1191;-0.0246;-0.0496
0000548813;-3.3447;-7.1443;1.5514;-0.0913;-0.0215;-0.0325
0000548822;-3.5171;-7.2903;1.6113;-0.0412;-0.0225;-0.0244
0000548831;-3.5554;-7.3574;1.5299;0.0241;-0.0274;-0.0147
0000548840;-3.6919;-7.2113;1.5778;0.0669;-0.0238;0.0008
0000548849;-3.8930;-7.1036;1.6927;0.1029;-0.0260;0.0043
0000548858;-3.8882;-6.7971;1.7262;0.1058;-0.0245;0.0176
0000548867;-3.9002;-6.5122;1.7190;0.1009;-0.0364;0.0124
0000548876;-3.9935;-6.4643;1.6281;0.0759;-0.0321;0.0127
0000548885;-3.8571;-6.2034;1.5299;0.0377;-0.0284;0.0168
0000548894;-4.1252;-6.2776;1.4269;0.0111;-0.0260;0.0099
0000548903;-3.9720;-6.3063;1.3815;-0.0264;-0.0135;0.0083
0000548912;-3.6655;-6.3734;1.4006;-0.0402;-0.0236;-0.0031
0000548921;-3.2274;-6.3470;1.4150;-0.0493;-0.0296;-0.0097
0000548930;-3.1675;-6.5290;1.4724;-0.0430;-0.0417;-0.0292
0000548939;-2.9090;-6.5027;1.3120;-0.0493;-0.0332;-0.0304
0000548948;-2.9329;-6.5410;1.3001;-0.0510;-0.0333;-0.0434
0000548957;-2.9928;-6.6272;1.2905;-0.0594;-0.0280;-0.0398
0000548966;-3.2322;-6.6942;1.3408;-0.0650;-0.0224;-0.0330
0000548975;-3.2106;-6.7349;1.4748;-0.0521;-0.0332;-0.0344
0000548984;-3.6583;-7.0844;1.5826;-0.0392;-0.0298;-0.0225
0000548993;-3.6607;-7.0485;1.5802;-0.0116;-0.0372;-0.0149
0000549002;-3.6176;-6.9599;1.6185;0.0047;-0.0334;-0.0028
0000549011;-3.7230;-7.0102;1.5179;0.0293;-0.0417;-0.0037
0000549020;-3.6607;-6.7780;1.4940;0.0380;-0.0442;0.0031
0000549029;-3.3758;-6.5553;1.4269;0.0362;-0.0392;0.0135
0000549038;-3.5817;-6.6008;1.3503;0.0494;-0.0474;0.0052
0000549047;-3.6009;-6.5266;1.4461;0.0370;-0.0392;0.0085
0000549056;-3.5793;-6.5457;1.4724;0.0364;-0.0490;-0.0009
0000549065;-3.5171;-6.4069;1.5706;0.0196;-0.0477;-0.0056
0000549074;-3.8571;-6.5841;1.7071;0.0057;-0.0474;-0.0044
0000549083;-3.6990;-6.5314;1.7334;-0.0169;-0.0517;0.0029
0000549092;-3.6152;-6.6463;1.7933;-0.0288;-0.0545;-0.0008
0000549101;-3.5099;-6.6248;1.6544;-0.0373;-0.0389;0.0087
0000549110;-3.4955;-6.6607;1.5754;-0.0248;-0.0301;0.0013
0000549119;-3.5745;-6.6846;1.5155;-0.0001;-0.0264;0.0041
0000549128;-3.3878;-6.5410;1.4964;0.0121;-0.0354;-0.0117
0000549137;-3.2346;-6.5146;1.3048;0.0111;-0.0352;-0.0125
0000549146;-3.2058;-6.5098;1.3168;0.0117;-0.0405;-0.0244
0000549155;-3.2370;-6.4883;1.3120;0.0041;-0.0321;-0.0246
0000549164;-3.2202;-6.4356;1.4653;-0.0089;-0.0348;-0.0300
0000549173;-3.4357;-6.5553;1.5251;-0.0300;-0.0322;-0.0191
0000549182;-3.5410;-6.7469;1.5299;-0.0289;-0.0309;-0.0218
0000549191;-3.6440;-6.8115;1.5658;-0.0207;-0.0336;-0.0233
0000549200;-3.7014;-6.7804;1.6855;-0.0013;-0.0297;-0.0159
0000549209;-3.6583;-6.7971;1.7789;0.0017;-0.0236;-0.0069
0000549218;-3.6727;-6.8785;1.7190;0.0176;-0.0266;-0.0035
0000549227;-3.7900;-6.7373;1.5347;0.0121;-0.0164;0.0080
0000549236;-3.7230;-6.5960;1.5203;0.0079;-0.0168;0.0029
0000549245;-3.6344;-6.4596;1.4772;0.0045;-0.0169;0.0096
0000549254;-3.6368;-6.5721;1.4509;0.0075;-0.0245;-0.0020
0000549263;-3.3806;-6.4308;1.2761;0.0019;-0.0292;-0.0093
0000549272;-3.3926;-6.4907;1.2761;-0.0001;-0.0296;-0.0117
0000549281;-3.2154;-6.4739;1.3072;-0.0063;-0.0369;-0.0258
0000549290;-3.3782;-6.5170;1.4222;-0.0222;-0.0358;-0.0204
0000549377;-3.5314;-6.5745;1.6712;0.0149;-0.0352;0.0061
0000549386;-3.5578;-6.4643;1.5634;0.0093;-0.0434;-0.0004
0000549395;-3.5841;-6.5242;1.4724;-0.0020;-0.0302;0.0044
0000549404;-3.5362;-6.4284;1.4581;-0.0057;-0.0253;0.0021
0000549413;-3.6272;-6.4739;1.5467;-0.0137;-0.0245;0.0020
0000549422;-3.6009;-6.5577;1.5275;-0.0145;-0.0278;0.0009
0000549431;-3.4261;-6.5481;1.3719;-0.0104;-0.0374;-0.0083
0000549440;-3.3615;-6.4835;1.3408;-0.0085;-0.0344;-0.0101
0000549449;-3.2992;-6.5098;1.3647;-0.0036;-0.0402;-0.0225
0000549458;-3.3088;-6.6080;1.4844;-0.0123;-0.0346;-0.0204
0000549467;-3.3519;-6.6056;1.5730;-0.0160;-0.0394;-0.0234
0000549476;-3.2729;-6.5218;1.5395;-0.0281;-0.0316;-0.0205
0000549485;-3.3423;-6.6607;1.6233;-0.0248;-0.0326;-0.0273
0000549494;-3.4046;-6.5888;1.7238;-0.0254;-0.0221;-0.0155
0000549503;-3.4716;-6.6248;1.7430;-0.0139;-0.0195;-0.0191
0000549512;-3.6607;-6.6655;1.6735;-0.0069;-0.0112;-0.0023
0000549521;-3.5410;-6.5697;1.5395;0.0003;-0.0131;-0.0071
0000549530;-3.6607;-6.7277;1.4365;0.0073;-0.0155;0.0037
0000549539;-3.6368;-6.6295;1.3815;0.0067;-0.0072;-0.0048
0000549548;-3.7014;-6.5529;1.2713;0.0176;-0.0081;-0.0105
0000549557;-3.5937;-6.3159;1.2067;0.0019;-0.0249;-0.0155
0000549566;-3.4285;-6.3853;1.2091;-0.0157;-0.0437;-0.0302
0000549575;-3.5314;-6.5050;1.2258;-0.0290;-0.0488;-0.0264
0000549584;-3.3974;-6.6104;1.3216;-0.0405;-0.0508;-0.0282
0000549593;-3.2801;-6.6535;1.4892;-0.0404;-0.0504;-0.0188
0000549602;-3.4477;-6.8091;1.7406;-0.0293;-0.0533;-0.0253
0000549611;-3.3662;-6.7876;1.9800;-0.0191;-0.0501;-0.0171
0000549620;-3.3926;-6.7876;2.0710;-0.0011;-0.0458;-0.0084
0000549629;-3.5195;-6.7947;1.9680;0.0083;-0.0241;0.0033
0000549638;-3.5578;-6.6487;1.9034;0.0242;-0.0036;0.0137
0000549647;-3.6703;-6.6774;1.7071;0.0332;-0.0049;0.0129
0000549656;-3.7158;-6.5290;1.5227;0.0421;0.0040;0.0224
0000549665;-3.8211;-6.5410;1.2498;0.0500;-0.0183;0.0159
0000549674;-3.6895;-6.4883;1.0989;0.0534;-0.0390;0.0017
0000549683;-3.3088;-6.2537;0.8930;0.0570;-0.0560;-0.0207
0000549692;-3.3639;-6.3758;0.8835;0.0400;-0.0652;-0.0293
0000549701;-3.2154;-6.2728;0.9122;0.0143;-0.0714;-0.0396
0000549710;-3.1867;-6.2944;1.1157;-0.0290;-0.0714;-0.0308
0000549719;-3.3016;-6.7253;1.2330;-0.0444;-0.0807;-0.0273
0000549728;-3.1077;-6.7876;1.4605;-0.0529;-0.0801;-0.0135
0000549737;-3.4213;-7.0725;1.5203;-0.0262;-0.0854;-0.0125
0000549746;-3.3088;-7.0366;1.6520;0.0133;-0.0769;-0.0023
0000549755;-3.2537;-6.8666;1.6305;0.0526;-0.0795;0.0035
0000549764;-3.4620;-6.8546;1.6017;0.0774;-0.0738;0.0189
0000549773;-3.5267;-6.7445;1.5969;0.1066;-0.0859;0.0127
0000549782;-3.7637;-6.5529;1.5850;0.1168;-0.0839;0.0220
0000549791;-3.7517;-6.4691;1.8220;0.1086;-0.0861;0.0248
0000549800;-3.8283;-6.2010;1.9704;0.0850;-0.0871;0.0228
0000549809;-3.9385;-6.0956;1.9824;0.0358;-0.0710;0.0234
0000549818;-3.9049;-5.9831;1.9896;-0.0149;-0.0544;0.0077
0000549827;-3.9289;-6.0454;1.7454;-0.0630;-0.0374;0.0115
0000549836;-3.9792;-6.2752;1.5155;-0.0877;-0.0364;0.0109
0000549845;-3.8092;-6.4787;1.3743;-0.0857;-0.0494;0.0008
0000549854;-3.5578;-6.6176;1.3120;-0.0586;-0.0666;-0.0072
0000549863;-3.1005;-6.4356;1.2474;-0.0436;-0.0779;-0.0205
0000549872;-2.7677;-6.4212;1.1851;-0.0266;-0.0806;-0.0408
0000549881;-2.7174;-6.5050;1.1636;-0.0386;-0.0742;-0.0468
0000549890;-2.6528;-6.4548;1.2354;-0.0561;-0.0620;-0.0497
0000549899;-2.7725;-6.4500;1.4461;-0.0745;-0.0566;-0.0500
0000549908;-2.9113;-6.6008;1.5658;-0.0901;-0.0457;-0.0388
0000549917;-3.1675;-6.7756;1.8938;-0.0722;-0.0337;-0.0305
0000549926;-3.4381;-6.9815;2.1644;-0.0453;-0.0233;-0.0233
0000549935;-3.8666;-7.0677;2.3367;-0.0097;-0.0137;-0.0204
0000549944;-3.9935;-6.9528;2.2913;0.0099;0.0048;-0.0084
0000549953;-3.8379;-6.6655;2.2721;0.0334;0.0260;-0.0040
0000549962;-3.8499;-6.5074;1.9130;0.0493;0.0366;-0.0055
0000549971;-4.0390;-6.4380;1.5227;0.0504;0.0253;-0.0097
0000549980;-3.9911;-6.4236;1.3048;0.0494;0.0008;-0.0225
0000549989;-3.5721;-6.0047;1.0654;0.0328;-0.0352;-0.0482
0000549998;-3.4524;-6.0406;0.9720;-0.0008;-0.0549;-0.0624
0000550085;-3.7493;-6.7516;2.3008;0.1042;0.0561;-0.0057
0000550094;-3.8906;-6.5074;2.2386;0.1170;0.0897;-0.0027
0000550103;-4.0199;-6.3494;2.0399;0.1071;0.1154;0.0033
0000550112;-4.1492;-6.1699;1.6328;0.0833;0.0946;0.0064
0000550121;-4.2162;-6.2824;1.3096;0.0488;0.0410;-0.0113
0000550130;-3.8211;-6.1962;1.1037;0.0414;-0.0238;-0.0250
0000550139;-3.7062;-6.2201;0.8547;0.0350;-0.0644;-0.0405
0000550148;-3.5674;-6.2824;0.6632;0.0234;-0.0854;-0.0609
0000550157;-3.3854;-6.1699;0.5986;-0.0184;-0.0610;-0.0711
0000550166;-3.0813;-6.1866;0.5387;-0.0590;-0.0540;-0.0807
0000550175;-2.6001;-6.3039;0.4812;-0.1014;-0.0508;-0.0730
0000550184;-2.6719;-6.8067;0.7398;-0.1291;-0.0553;-0.0698
0000550193;-2.5091;-6.8594;1.2713;-0.1334;-0.0374;-0.0578
0000550202;-2.7653;-7.1850;1.6568;-0.1049;-0.0205;-0.0497
0000550211;-3.2322;-7.3622;2.0901;-0.0650;0.0016;-0.0226
0000550220;-3.5434;-7.4029;2.4828;-0.0048;0.0093;-0.0023
0000550229;-4.1635;-7.3813;2.6911;0.0408;0.0095;0.0189
0000550238;-4.3694;-7.0102;2.7892;0.0950;0.0119;0.0245
0000550247;-4.5825;-6.7469;2.4565;0.1224;0.0508;0.0381
0000550256;-4.7740;-6.5386;1.9585;0.1464;0.0556;0.0289
0000550265;-4.6424;-6.1244;1.5275;0.1403;0.0508;0.0253
0000550274;-4.4077;-5.9927;1.3695;0.1226;0.0077;0.0043
0000550283;-4.0701;-5.9113;1.0367;0.0917;-0.0422;-0.0300
0000550292;-3.5961;-5.6120;0.9313;0.0201;-0.0817;-0.0584
0000550301;-3.2346;-5.6072;0.7302;-0.0585;-0.1104;-0.0806
0000550310;-2.8419;-5.8179;0.7494;-0.1407;-0.1059;-0.0862
0000550319;-2.5019;-6.1746;0.7278;-0.1904;-0.0899;-0.0774
0000550326;-2.3248;-6.5457;0.6728;-0.2176;-0.0658;-0.0726
0000550334;-2.1021;-6.7756;0.6512;-0.2369;-0.0402;-0.0703
0000550342;-2.3511;-7.3095;0.8140;-0.2168;-0.0175;-0.0743
0000550350;-2.5522;-7.5633;1.1708;-0.1792;-0.0013;-0.0585
0000550358;-2.7007;-7.6423;1.6137;-0.1085;-0.0044;-0.0364
0000550366;-3.4189;-8.0038;1.9106;-0.0296;0.0063;-0.0151
0000550374;-3.7373;-7.6399;2.2625;0.0330;0.0184;0.0060
0000550382;-4.0725;-7.2688;2.4086;0.0890;0.0181;0.0125
0000550390;-4.5681;-7.0988;2.5474;0.1279;0.0139;0.0264
0000550398;-4.6687;-6.9001;2.4804;0.1522;0.0175;0.0398
0000550406;-4.6160;-6.5505;2.0087;0.1536;0.0256;0.0450
0000550414;-4.4269;-6.1124;1.5275;0.1524;0.0369;0.0330
0000550422;-4.4101;-6.1651;1.1827;0.1410;0.0176;0.0143
0000550430;-3.8523;-5.7102;0.8380;0.1130;-0.0115;-0.0040
0000550438;-3.5362;-5.5665;0.6752;0.0674;-0.0508;-0.0208
0000550446;-3.2633;-5.5785;0.5746;0.0140;-0.0711;-0.0522
0000550454;-3.0957;-5.8395;0.4908;-0.0552;-0.0718;-0.0711
0000550462;-2.9113;-5.9017;0.6297;-0.1367;-0.0612;-0.0674
0000550470;-2.7198;-6.3351;0.8356;-0.1923;-0.0481;-0.0604
0000550478;-2.7366;-6.7900;1.0630;-0.2129;-0.0554;-0.0665
0000550486;-2.8012;-7.0677;1.3815;-0.2164;-0.0538;-0.0526
0000550494;-2.7174;-7.4077;1.5754;-0.1957;-0.0540;-0.0321
0000550502;-2.9951;-7.6950;1.5634;-0.1304;-0.0286;-0.0216
0000550510;-3.2513;-7.6136;1.6688;-0.0446;-0.0360;-0.0124
0000550518;-3.7182;-7.8266;1.8507;0.0304;-0.0266;0.0115
0000550526;-3.4979;-7.3646;2.0542;0.1005;-0.0149;0.0151
0000550534;-3.6536;-7.0174;2.0566;0.1422;-0.0159;0.0297
0000550542;-4.0965;-6.8929;2.1572;0.1560;-0.0104;0.0436
