time;acc_x;acc_y;acc_z;gyro_x;gyro_y;gyro_z
0000384110;6.4883;2.2290;4.0677;0.0069;0.0172;-0.0497
0000384118;6.3829;2.1428;4.0725;0.0075;0.0133;-0.0452
0000384125;6.5386;2.2984;3.9193;-0.0007;0.0073;-0.0396
0000384133;6.3327;2.1117;3.9744;-0.0048;0.0015;-0.0406
0000384141;6.5434;2.3272;3.9887;-0.0157;-0.0105;-0.0376
0000384149;6.3111;2.1237;4.1013;-0.0156;-0.0120;-0.0334
0000384157;6.4572;2.3224;4.1492;-0.0301;-0.0080;-0.0296
0000384165;6.5721;2.4253;4.1492;-0.0404;-0.0124;-0.0304
0000384173;6.5888;2.3463;4.1659;-0.0436;-0.0193;-0.0346
0000384181;6.5170;2.3367;4.1683;-0.0502;-0.0167;-0.0334
0000384189;6.5434;2.1500;4.1132;-0.0530;-0.0153;-0.0326
0000384197;6.6008;2.1261;4.1061;-0.0580;-0.0160;-0.0412
0000384205;6.6631;2.2098;4.0247;-0.0500;-0.0268;-0.0453
0000384213;6.6894;2.2697;4.0749;-0.0518;-0.0262;-0.0394
0000384221;6.3255;2.0470;4.0917;-0.0456;-0.0393;-0.0512
0000384229;6.4260;2.0877;3.9696;-0.0408;-0.0465;-0.0493
0000384237;6.3303;2.0949;4.0366;-0.0454;-0.0493;-0.0441
0000384245;6.4141;2.2194;4.0917;-0.0486;-0.0533;-0.0437
0000384253;6.3901;2.1715;4.0223;-0.0486;-0.0600;-0.0486
0000384261;6.4524;2.4014;4.0414;-0.0508;-0.0622;-0.0408
0000384269;6.4883;2.3176;4.0007;-0.0617;-0.0683;-0.0328
0000384277;6.6080;2.3679;4.1156;-0.0652;-0.0741;-0.0321
0000384285;6.5122;2.2697;4.1946;-0.0715;-0.0827;-0.0272
0000384293;6.5170;2.1907;4.1899;-0.0750;-0.0897;-0.0245
0000384301;6.5553;2.0806;4.1683;-0.0725;-0.0926;-0.0258
0000384309;6.5649;2.1380;4.3048;-0.0722;-0.0935;-0.0250
0000384317;6.6152;2.1883;4.1946;-0.0650;-0.0970;-0.0266
0000384325;6.5960;2.1284;4.2401;-0.0532;-0.0942;-0.0284
0000384333;6.7205;2.0327;4.1922;-0.0452;-0.1027;-0.0357
0000384341;6.8546;2.0183;4.1468;-0.0400;-0.0951;-0.0292
0000384349;6.8642;2.1261;4.1779;-0.0330;-0.0949;-0.0338
0000384357;6.7014;2.1739;4.1587;-0.0212;-0.0957;-0.0378
0000384365;6.7493;2.1715;4.1396;-0.0268;-0.0879;-0.0345
0000384373;6.7253;2.1548;4.1587;-0.0233;-0.0933;-0.0378
0000384381;6.7181;2.1811;4.1970;-0.0229;-0.0857;-0.0298
0000384389;6.8402;2.1883;4.2114;-0.0294;-0.0893;-0.0233
0000384397;6.9001;2.2362;4.1539;-0.0253;-0.0965;-0.0233
0000384405;6.8211;2.0734;4.0821;-0.0294;-0.0875;-0.0137
0000384413;6.8043;1.9489;4.0725;-0.0274;-0.0829;-0.0072
0000384421;6.6798;1.8986;4.0797;-0.0149;-0.0841;-0.0076
0000384429;6.6798;1.8771;4.0438;-0.0036;-0.0891;-0.0088
0000384437;6.8618;1.9345;4.0677;0.0000;-0.0815;-0.0099
0000384445;6.8402;2.0063;4.0247;0.0039;-0.0870;-0.0125
0000384453;6.7971;2.0590;4.0031;0.0045;-0.0751;-0.0079
0000384461;6.6726;2.0710;4.0223;0.0056;-0.0697;-0.0073
0000384469;6.7995;2.0494;4.0438;0.0045;-0.0717;-0.0111
0000384477;6.7876;2.0710;4.1084;0.0115;-0.0722;-0.0140
0000384485;6.6966;1.9992;4.0773;0.0072;-0.0709;-0.0085
0000384493;6.6032;1.9656;4.0917;0.0100;-0.0809;-0.0104
0000384501;6.8522;2.2003;4.1132;0.0159;-0.0877;-0.0044
0000384509;6.8522;2.1859;4.1037;0.0108;-0.0899;0.0028
0000384517;6.8259;2.2936;4.0797;0.0155;-0.1022;-0.0011
0000384525;6.7660;2.2386;4.1611;0.0092;-0.1035;0.0052
0000384533;6.6679;2.1715;4.1659;0.0051;-0.1115;0.0037
0000384541;6.6894;2.2793;4.1013;0.0064;-0.1200;-0.0064
0000384549;6.8067;2.2027;4.1037;0.0116;-0.1232;-0.0133
0000384557;6.6726;2.0925;4.1611;0.0091;-0.1239;-0.0161
0000384565;6.6439;2.1524;4.1755;0.0101;-0.1207;-0.0200
0000384573;6.7612;2.0614;4.1348;0.0101;-0.1223;-0.0298
0000384581;6.8690;2.0853;4.1396;0.0179;-0.1252;-0.0348
0000384589;6.9384;2.2098;4.0989;0.0168;-0.1227;-0.0340
0000384597;6.8283;2.0614;4.2162;0.0085;-0.1103;-0.0338
0000384605;6.7947;2.0446;4.1252;0.0048;-0.1206;-0.0412
0000384613;6.7445;1.9920;4.0821;0.0076;-0.1163;-0.0408
0000384621;6.9599;2.0614;4.1180;0.0068;-0.1119;-0.0404
0000384629;6.6894;2.1308;4.0941;0.0053;-0.1120;-0.0416
0000384637;6.8307;2.1045;4.1659;0.0116;-0.1108;-0.0402
0000384645;6.8714;2.1213;4.1563;0.0069;-0.1051;-0.0368
0000384653;6.8881;2.0375;4.0989;0.0131;-0.1075;-0.0368
0000384661;6.8666;2.1715;4.0749;0.0145;-0.1110;-0.0409
0000384669;6.7828;2.1620;4.0247;0.0105;-0.1035;-0.0369
0000384677;6.9647;2.2314;4.1084;0.0148;-0.1120;-0.0381
0000384704;6.8019;2.1572;4.0989;0.0145;-0.1308;-0.0466
0000384712;6.8187;2.0758;4.0438;0.0181;-0.1299;-0.0378
0000384720;6.8163;2.1572;4.0677;0.0171;-0.1311;-0.0397
0000384728;6.8187;2.0423;4.0989;0.0276;-0.1356;-0.0457
0000384736;6.8211;2.1332;4.0127;0.0286;-0.1380;-0.0510
0000384744;6.8259;2.0303;4.1061;0.0288;-0.1384;-0.0532
0000384752;6.8570;2.0925;4.1037;0.0289;-0.1292;-0.0508
0000384760;6.8091;2.1093;4.2018;0.0183;-0.1211;-0.0530
0000384768;6.7373;2.0087;4.1396;0.0216;-0.1244;-0.0628
0000384776;6.8666;2.1524;4.0749;0.0160;-0.1160;-0.0565
0000384784;6.7780;1.9680;4.2018;0.0195;-0.1222;-0.0646
0000384792;6.6942;1.9968;4.1348;0.0280;-0.1178;-0.0690
0000384800;6.7732;1.9656;4.1970;0.0296;-0.1124;-0.0624
0000384808;6.8019;2.1213;4.0606;0.0312;-0.1119;-0.0594
0000384816;6.5745;2.0399;4.0773;0.0421;-0.1236;-0.0650
0000384824;6.7205;2.0758;4.0701;0.0406;-0.1256;-0.0557
0000384832;6.6655;2.1021;4.1156;0.0413;-0.1371;-0.0588
0000384840;6.6607;2.2003;4.0677;0.0370;-0.1410;-0.0597
0000384848;6.4787;1.9728;4.0869;0.0277;-0.1398;-0.0572
0000384856;6.7493;2.2745;4.1037;0.0297;-0.1483;-0.0577
0000384864;6.8331;2.4612;4.1372;0.0260;-0.1412;-0.0516
0000384872;6.8594;2.4110;4.1013;0.0207;-0.1411;-0.0534
0000384880;6.9743;2.4756;4.1683;0.0226;-0.1430;-0.0581
0000384888;6.9145;2.3990;4.0438;0.0152;-0.1344;-0.0468
0000384896;6.7229;2.3056;4.1827;0.0148;-0.1306;-0.0548
0000384904;6.7516;2.1931;4.0917;0.0167;-0.1366;-0.0513
0000384912;6.9408;2.2745;4.0318;0.0103;-0.1316;-0.0472
0000384920;6.8091;2.1763;4.1707;0.0104;-0.1326;-0.0486
0000384928;6.7229;2.1500;4.0654;0.0037;-0.1335;-0.0370
0000384936;6.5864;2.1189;4.1300;-0.0031;-0.1339;-0.0329
0000384944;6.6583;2.1811;4.1108;-0.0107;-0.1403;-0.0249
0000384952;6.7900;2.2625;3.9193;-0.0064;-0.1508;-0.0270
0000384960;6.6870;2.0901;4.0127;-0.0141;-0.1428;-0.0204
0000384968;6.6224;2.0877;3.9600;-0.0167;-0.1478;-0.0123
0000384976;6.7540;2.1500;3.9744;-0.0113;-0.1535;-0.0156
0000384984;6.8211;2.0614;3.9337;-0.0156;-0.1555;-0.0119
0000384992;6.8522;2.0901;3.8595;-0.0075;-0.1624;-0.0173
0000385000;6.8881;2.1093;3.9217;-0.0045;-0.1592;-0.0133
0000385008;6.8043;2.0470;3.8164;-0.0044;-0.1564;-0.0177
0000385016;6.8977;2.1404;3.9696;-0.0028;-0.1595;-0.0246
0000385024;6.8187;2.1763;3.8164;0.0029;-0.1601;-0.0297
0000385032;6.6990;2.0782;3.8618;0.0085;-0.1691;-0.0420
0000385040;6.6966;2.2338;3.9002;0.0160;-0.1792;-0.0481
0000385048;6.4189;2.0686;3.9624;0.0132;-0.1843;-0.0477
0000385056;6.4691;2.3128;3.9576;0.0168;-0.1998;-0.0537
0000385064;6.4979;2.3056;3.9720;0.0109;-0.2100;-0.0496
0000385072;6.3039;2.1548;4.0007;0.0151;-0.2333;-0.0617
0000385080;6.2752;2.3343;4.0630;0.0113;-0.2443;-0.0633
0000385088;6.5817;2.5307;4.0510;-0.0005;-0.2583;-0.0787
0000385096;6.2153;2.3367;4.2066;-0.0079;-0.2726;-0.0966
0000385104;6.2680;2.4110;4.2186;-0.0188;-0.2789;-0.1050
0000385112;6.4069;2.3990;4.2545;-0.0246;-0.2996;-0.1188
0000385120;6.4284;2.3080;4.2329;-0.0394;-0.3103;-0.1236
0000385128;6.3925;2.4493;4.3000;-0.0458;-0.3269;-0.1350
0000385136;6.2824;2.4157;4.2401;-0.0404;-0.3503;-0.1436
0000385144;6.1076;2.3415;4.3167;-0.0430;-0.3745;-0.1448
0000385152;6.0525;2.2266;4.2353;-0.0488;-0.3986;-0.1400
0000385160;6.3255;2.3942;4.3527;-0.0494;-0.4227;-0.1436
0000385168;6.1746;2.3224;4.2162;-0.0542;-0.4611;-0.1520
0000385176;6.1531;2.3224;4.1252;-0.0545;-0.4927;-0.1615
0000385184;6.0286;2.2290;4.1970;-0.0683;-0.5199;-0.1671
0000385192;6.1148;2.1500;4.2258;-0.0718;-0.5542;-0.1768
0000385200;6.2441;2.2984;4.2449;-0.0913;-0.5810;-0.1868
0000385208;6.3877;2.2410;4.1755;-0.1057;-0.6067;-0.2022
0000385216;6.3782;2.0830;4.2425;-0.1280;-0.6178;-0.2094
0000385224;6.6152;2.2793;4.2377;-0.1484;-0.6319;-0.2228
0000385232;6.6128;2.2386;4.2425;-0.1655;-0.6530;-0.2380
0000385240;6.6846;2.2745;4.4149;-0.1939;-0.6560;-0.2478
0000385248;6.8163;2.3655;4.5705;-0.2198;-0.6700;-0.2627
0000385256;6.6702;2.2386;4.6639;-0.2385;-0.6768;-0.2721
0000385264;6.7397;2.2266;4.7501;-0.2447;-0.6861;-0.2787
0000385272;6.7349;1.9920;4.7692;-0.2491;-0.6825;-0.2794
0000385280;6.8857;2.2290;4.9153;-0.2531;-0.6743;-0.2774
0000385365;6.8785;0.7973;4.0941;-0.2321;-0.5902;-0.4259
0000385373;7.1611;1.0965;3.9504;-0.2230;-0.5612;-0.4523
0000385381;7.2808;1.1995;3.9576;-0.2325;-0.5281;-0.4656
0000385389;7.4603;1.3743;3.9696;-0.2574;-0.5107;-0.4699
0000385397;7.5346;1.5921;4.0127;-0.2847;-0.5028;-0.4630
0000385405;7.4579;1.8387;4.0582;-0.3210;-0.4974;-0.4351
0000385413;7.3095;2.1548;4.1683;-0.3725;-0.5008;-0.4033
0000385421;7.2137;2.3822;4.4077;-0.4245;-0.5083;-0.3726
0000385429;6.7971;2.6360;4.5370;-0.4856;-0.5163;-0.3372
0000385437;6.4428;2.7773;4.6878;-0.5280;-0.5357;-0.3107
0000385445;6.2800;3.0167;4.6663;-0.5813;-0.5510;-0.2894
0000385453;6.1746;2.9688;4.4628;-0.6318;-0.5621;-0.2811
0000385461;6.2465;3.2801;4.4365;-0.6744;-0.5610;-0.2485
0000385469;6.1507;3.2250;4.2737;-0.7156;-0.5640;-0.2124
0000385477;6.3997;3.1125;4.1611;-0.7490;-0.5672;-0.1775
0000385485;6.9001;2.9975;4.0558;-0.7833;-0.5657;-0.1391
0000385493;7.5513;2.9760;4.0582;-0.7837;-0.5496;-0.1063
0000385501;8.1163;2.9736;4.1635;-0.7434;-0.5279;-0.0913
0000385509;8.6191;3.2777;4.3048;-0.6772;-0.4810;-0.0761
0000385517;8.8897;3.4979;4.5298;-0.6233;-0.4306;-0.0834
0000385525;9.2680;3.7014;4.7932;-0.5766;-0.3802;-0.0855
0000385533;9.2009;3.7134;4.9871;-0.5594;-0.3124;-0.0566
0000385541;9.1363;3.5434;5.1380;-0.5472;-0.2663;-0.0237
0000385549;8.6503;2.9951;5.2433;-0.5064;-0.2402;0.0077
0000385557;8.2863;2.2913;4.9249;-0.4379;-0.2093;0.0608
0000385565;7.8650;1.7286;4.9608;-0.3519;-0.1875;0.1106
0000385573;7.6327;1.2354;4.8363;-0.2575;-0.1953;0.1498
0000385581;7.1299;0.7470;4.5298;-0.1455;-0.1992;0.1800
0000385589;6.9815;0.5578;4.1994;-0.0484;-0.1948;0.2122
0000385597;6.4332;0.3926;3.9289;0.0300;-0.1966;0.2474
0000385605;6.3327;0.6560;3.7900;0.0854;-0.2062;0.2719
0000385613;5.9400;0.6871;3.7373;0.0999;-0.2201;0.2903
0000385621;6.2177;0.9074;3.6105;0.0934;-0.2470;0.2952
0000385629;6.3566;1.0630;3.4860;0.0646;-0.2639;0.2731
0000385637;6.4524;0.9888;3.5386;0.0328;-0.2951;0.2539
0000385645;6.7924;0.9218;3.5027;0.0111;-0.3172;0.2172
0000385653;7.3909;1.0487;3.5793;0.0064;-0.3409;0.1731
0000385661;7.4364;0.9337;3.5410;0.0204;-0.3519;0.1195
0000385669;7.7189;0.7997;3.6943;0.0460;-0.3440;0.0600
0000385677;8.0062;0.6081;3.5099;0.1045;-0.3195;-0.0072
0000385685;8.3007;0.6488;3.5482;0.1591;-0.2825;-0.0795
0000385693;8.5736;0.7278;3.3950;0.2144;-0.2427;-0.1466
0000385701;8.7149;0.9361;3.7278;0.2237;-0.1772;-0.2088
0000385709;8.6359;0.9960;4.6902;0.1943;-0.1435;-0.2741
0000385717;8.4731;1.2713;5.0111;0.1571;-0.1334;-0.3447
0000385725;8.0014;1.6664;4.9847;0.1102;-0.1027;-0.3997
0000385733;7.0868;1.8172;5.3439;0.0930;-0.0959;-0.4644
0000385741;6.1028;2.0303;5.6000;0.0981;-0.1046;-0.5052
0000385749;5.0422;2.4110;5.7700;0.1134;-0.1418;-0.5276
0000385757;4.6280;3.0335;5.8945;0.1286;-0.2308;-0.5325
0000385765;4.5466;3.5219;6.1124;0.1339;-0.3757;-0.5128
0000385773;4.9081;4.0270;6.2824;0.1272;-0.5481;-0.4587
0000385781;5.3151;4.1994;6.2824;0.1302;-0.7164;-0.3988
0000385789;6.0214;4.3622;5.9568;0.1555;-0.8591;-0.3603
0000385797;6.7564;4.1156;5.5522;0.1736;-0.9293;-0.3515
0000385805;7.2185;3.4453;4.8004;0.1713;-0.9438;-0.3866
0000385813;8.0254;2.9904;4.2593;0.1537;-0.9332;-0.4407
0000385821;8.9328;2.4229;3.7302;0.1160;-0.8930;-0.4839
0000385829;9.3805;1.8387;3.6966;0.0875;-0.8420;-0.5180
0000385837;9.5792;1.3072;3.4046;0.0594;-0.7779;-0.5251
0000385845;9.7899;1.0558;3.3830;0.0546;-0.7137;-0.5243
0000385853;9.8258;0.7278;3.3184;0.0306;-0.6195;-0.4803
0000385861;9.7588;0.4836;3.4189;0.0024;-0.5175;-0.4351
0000385869;9.2584;0.2059;3.5698;-0.0157;-0.4189;-0.3721
0000385877;8.7149;0.0287;3.7637;-0.0249;-0.3276;-0.3000
0000385885;8.4922;0.0383;3.9097;-0.0422;-0.2409;-0.2182
0000385893;7.9200;0.0503;4.0247;-0.0518;-0.1687;-0.1408
0000385901;7.5465;0.2514;4.3096;-0.0508;-0.1347;-0.0767
0000385909;7.2520;0.3256;4.4293;-0.0465;-0.1011;-0.0167
0000385917;7.0413;0.4453;4.6064;-0.0433;-0.0801;0.0288
0000385925;6.8809;0.7111;4.8219;-0.0232;-0.0605;0.0453
0000385933;6.9456;0.9697;5.0302;0.0080;-0.0481;0.0497
0000385941;7.0126;1.1779;5.1116;0.0406;-0.0209;0.0486
0000386027;6.8498;2.0518;5.8945;0.1867;0.1042;-0.0313
0000386035;6.7947;2.1356;5.8562;0.2042;0.1074;-0.0043
0000386043;7.0126;2.2266;5.7006;0.2258;0.1222;0.0129
0000386051;7.2568;2.1811;5.4516;0.2320;0.1632;0.0302
0000386059;7.6662;2.1308;5.2313;0.2427;0.1969;0.0353
0000386067;8.0062;2.0087;5.1164;0.2451;0.2489;0.0476
0000386075;8.0254;1.7310;4.7645;0.2557;0.2919;0.0565
0000386083;8.0325;1.5586;4.6352;0.2590;0.3404;0.0729
0000386091;8.2983;1.6616;4.3574;0.2513;0.4080;0.1006
0000386099;8.0493;1.4605;4.2425;0.2515;0.4583;0.1199
0000386107;7.9344;1.4150;3.9744;0.2510;0.5079;0.1440
0000386115;7.7812;1.3120;3.7876;0.2457;0.5545;0.1640
0000386123;7.6614;1.3024;3.7781;0.2447;0.5834;0.1856
0000386131;7.3574;1.4102;3.7110;0.2365;0.6055;0.2112
0000386139;7.4005;1.6472;3.7589;0.2304;0.6190;0.2332
0000386147;7.3406;2.1237;3.8427;0.2220;0.6125;0.2510
0000386155;7.0749;2.2936;4.0151;0.2044;0.6013;0.2690
0000386163;6.8929;2.4828;4.2473;0.1851;0.5820;0.2896
0000386171;6.9001;2.7366;4.4293;0.1600;0.5649;0.2983
0000386179;7.0437;2.8946;4.5346;0.1291;0.5409;0.2930
0000386187;6.7660;2.9042;4.5729;0.0937;0.5248;0.2943
0000386195;6.7828;2.8252;4.5538;0.0652;0.4999;0.2795
0000386203;6.6726;2.6217;4.6926;0.0461;0.4794;0.2633
0000386211;6.8019;2.6336;4.6280;0.0256;0.4644;0.2526
0000386219;6.7636;2.4972;4.6448;0.0088;0.4501;0.2418
0000386227;6.4787;2.1548;4.6064;0.0111;0.4267;0.2244
0000386235;6.5577;1.9082;4.5250;0.0193;0.3989;0.2062
0000386243;6.7588;1.8866;4.5035;0.0209;0.3837;0.2057
0000386251;6.6487;1.5802;4.5633;0.0300;0.3621;0.1888
0000386259;6.9528;1.8196;4.4843;0.0477;0.3467;0.1772
0000386267;7.0725;1.7765;4.4029;0.0458;0.3401;0.1695
0000386275;6.8307;1.6185;4.3407;0.0554;0.3291;0.1555
0000386283;7.0677;1.9010;4.4341;0.0514;0.3231;0.1519
0000386291;7.1970;2.0638;4.4149;0.0624;0.3063;0.1284
0000386299;7.0677;2.0542;4.4005;0.0648;0.2936;0.1220
0000386307;7.0174;2.1907;4.3455;0.0636;0.2734;0.1083
0000386315;7.1395;2.4732;4.3551;0.0578;0.2352;0.0986
0000386323;7.0437;2.3583;4.2090;0.0156;0.2030;0.1231
0000386331;6.9240;2.3535;4.2737;-0.0260;0.1703;0.1471
0000386339;6.8546;2.3272;4.1970;-0.0421;0.1356;0.1368
0000386347;6.8139;2.1811;4.2473;-0.0437;0.0957;0.1199
0000386355;6.7780;1.9992;4.2258;-0.0424;0.0777;0.1160
0000386363;6.7924;1.9273;4.3000;-0.0321;0.0697;0.0997
0000386371;6.8929;2.1668;4.3503;-0.0234;0.0846;0.0998
0000386379;7.0509;2.2745;4.3862;-0.0184;0.0922;0.0971
0000386387;7.2377;2.3750;4.2090;-0.0289;0.1009;0.0997
0000386395;7.3095;2.4253;4.2737;-0.0450;0.1138;0.0970
0000386403;7.7021;2.6073;4.1444;-0.0699;0.1215;0.1055
0000386411;7.6303;2.3583;4.1827;-0.0994;0.1356;0.1135
0000386419;7.5633;2.2434;4.2258;-0.1146;0.1355;0.1168
0000386427;7.2999;1.9417;4.3503;-0.1258;0.1494;0.1307
0000386435;7.2784;1.8962;4.2569;-0.1155;0.1608;0.1286
0000386443;7.0797;1.7933;4.3048;-0.1005;0.1627;0.1202
0000386451;6.8929;1.6017;4.2665;-0.0781;0.1647;0.1218
0000386459;6.8307;1.6328;4.2018;-0.0612;0.1528;0.1147
0000386467;6.5649;1.6592;4.2689;-0.0406;0.1408;0.1082
0000386475;6.6008;1.7765;4.2737;-0.0246;0.1216;0.1019
0000386483;6.6128;1.8794;4.1755;-0.0228;0.1058;0.0985
0000386491;6.5793;2.0614;4.1132;-0.0286;0.0855;0.0870
0000386499;6.5721;2.1332;4.2952;-0.0380;0.0621;0.0734
0000386507;6.6104;2.4421;4.2138;-0.0641;0.0380;0.0638
0000386515;6.3973;2.3990;4.3359;-0.0849;0.0144;0.0472
0000386523;6.5290;2.4253;4.3120;-0.1015;-0.0225;0.0278
0000386531;6.2513;2.3583;4.3551;-0.1199;-0.0410;0.0200
0000386539;6.3327;2.2841;4.4652;-0.1264;-0.0681;0.0087
0000386547;6.4189;2.3008;4.5298;-0.1283;-0.0847;-0.0064
0000386555;6.5410;2.1476;4.5035;-0.1151;-0.1047;-0.0244
0000386563;6.6272;2.1141;4.5131;-0.1102;-0.1099;-0.0321
0000386571;6.6200;1.8938;4.4652;-0.0997;-0.1246;-0.0545
0000386579;6.7421;2.0159;4.3790;-0.0974;-0.1307;-0.0565
0000386587;6.7780;1.8411;4.3215;-0.0954;-0.1346;-0.0633
0000386595;6.9456;1.9225;4.2760;-0.0967;-0.1432;-0.0689
0000386603;6.7804;1.7909;4.3383;-0.1146;-0.1398;-0.0580
0000386611;6.7947;2.0039;4.2617;-0.1239;-0.1436;-0.0588
0000386697;6.5027;2.0662;4.7118;-0.0749;-0.3084;-0.0725
0000386705;6.5338;1.9944;4.6759;-0.0723;-0.3277;-0.0831
0000386713;6.3949;1.7621;4.6112;-0.0777;-0.3455;-0.0874
0000386721;6.2944;1.6544;4.5681;-0.0794;-0.3579;-0.0835
0000386729;6.3039;1.7166;4.5538;-0.0823;-0.3738;-0.0913
0000386737;6.1220;1.6065;4.4460;-0.0729;-0.3925;-0.0999
0000386745;6.1962;1.7047;4.4365;-0.0727;-0.4169;-0.1118
0000386753;6.3231;1.9297;4.5059;-0.0751;-0.4358;-0.1266
0000386761;6.4596;2.2003;4.5322;-0.0819;-0.4486;-0.1446
0000386769;6.3327;2.2434;4.6328;-0.0914;-0.4735;-0.1640
0000386777;6.3446;2.3272;4.4652;-0.0973;-0.5003;-0.1900
0000386785;6.5290;2.4828;4.5945;-0.1062;-0.5129;-0.2073
0000386793;6.5745;2.3032;4.5035;-0.1148;-0.5263;-0.2300
0000386801;6.7804;2.3487;4.5059;-0.1227;-0.5361;-0.2487
0000386809;6.6463;2.0399;4.5633;-0.1324;-0.5442;-0.2698
0000386817;6.7636;2.0686;4.4365;-0.1391;-0.5454;-0.2770
0000386825;6.6798;1.8771;4.4125;-0.1544;-0.5419;-0.2844
0000386833;6.7947;1.9178;4.2952;-0.1587;-0.5432;-0.2930
0000386841;6.9192;1.7262;4.3646;-0.1641;-0.5440;-0.2951
0000386849;6.9097;1.6855;4.3622;-0.1745;-0.5341;-0.2919
0000386857;7.0461;1.6712;4.3958;-0.1711;-0.5301;-0.2915
0000386865;7.0653;1.6305;4.5107;-0.1701;-0.5087;-0.2835
0000386873;7.5968;1.9393;4.6208;-0.1660;-0.4823;-0.2825
0000386881;7.5944;1.8220;4.7238;-0.1637;-0.4477;-0.2822
0000386889;7.7716;1.9752;4.8052;-0.1723;-0.3940;-0.2773
0000386897;8.2313;1.9585;4.9392;-0.1783;-0.3513;-0.2830
0000386905;8.3199;2.0111;4.8937;-0.1911;-0.3010;-0.2675
0000386913;8.2935;1.9609;4.8076;-0.2208;-0.2550;-0.2603
0000386921;8.4683;2.0542;4.7932;-0.2378;-0.2346;-0.2435
0000386929;7.9487;1.8076;4.6424;-0.2751;-0.2216;-0.2140
0000386937;7.5369;1.5945;4.6064;-0.2887;-0.2282;-0.1943
0000386945;7.3047;1.3719;4.6471;-0.2771;-0.2354;-0.1603
0000386953;7.1539;1.3551;4.7046;-0.2559;-0.2262;-0.1295
0000386961;7.0150;1.2115;4.7549;-0.2145;-0.2245;-0.0949
0000386969;6.9839;1.1540;4.8890;-0.1709;-0.2142;-0.0621
0000386977;7.1371;1.1971;4.9488;-0.1383;-0.2065;-0.0296
0000386985;7.0844;1.2689;4.9488;-0.1090;-0.2078;-0.0043
0000386993;7.1036;1.3719;4.9368;-0.0863;-0.2250;0.0123
0000387001;7.2353;1.5993;4.8770;-0.0790;-0.2318;0.0313
0000387009;7.4172;1.7262;5.0015;-0.0786;-0.2320;0.0481
0000387017;7.2161;1.5897;5.0494;-0.0797;-0.2290;0.0481
0000387025;7.4484;1.6089;5.1116;-0.0757;-0.2201;0.0573
0000387033;7.3191;1.4509;5.0589;-0.0727;-0.2076;0.0553
0000387041;7.3837;1.5107;5.0996;-0.0604;-0.2029;0.0474
0000387049;7.5226;1.5802;5.0494;-0.0610;-0.1853;0.0402
0000387057;7.2616;1.6328;4.9775;-0.0605;-0.1848;0.0314
0000387065;7.3454;1.9249;4.9799;-0.0518;-0.1896;0.0229
0000387073;7.1730;1.9034;5.1068;-0.0711;-0.1881;0.0234
0000387081;7.0174;1.9178;5.0781;-0.0739;-0.2002;0.0222
0000387089;6.8690;1.9273;5.0350;-0.0875;-0.2122;0.0296
0000387097;6.6439;1.8627;5.0637;-0.1049;-0.2353;0.0306
0000387105;6.6200;1.9896;5.1212;-0.1116;-0.2529;0.0397
0000387113;6.6080;1.9441;5.0949;-0.1368;-0.2755;0.0492
0000387121;6.5266;1.8914;5.1092;-0.1609;-0.2927;0.0633
0000387129;6.5888;1.8507;5.0566;-0.1795;-0.3066;0.0767
0000387137;6.6008;1.7286;5.0685;-0.1973;-0.3183;0.0883
0000387145;6.5912;1.7119;5.1260;-0.2064;-0.3341;0.0977
0000387153;6.6702;1.7310;5.1404;-0.2205;-0.3460;0.1088
0000387161;6.7564;1.6783;5.0877;-0.2284;-0.3585;0.1159
0000387169;6.8163;1.7095;5.1595;-0.2474;-0.3581;0.1350
0000387177;6.7780;1.6496;5.2146;-0.2641;-0.3605;0.1439
0000387185;6.7852;1.7119;5.2074;-0.2663;-0.3672;0.1426
0000387193;6.6272;1.5850;4.9991;-0.2856;-0.3607;0.1475
0000387201;6.6702;1.8100;4.8794;-0.3004;-0.3588;0.1488
0000387209;6.7516;2.0830;4.9895;-0.3011;-0.3669;0.1440
0000387217;6.8067;2.1404;4.9991;-0.3194;-0.3480;0.1475
0000387225;6.6559;2.1955;5.0566;-0.3361;-0.3551;0.1428
0000387233;6.5218;1.9824;5.0566;-0.3680;-0.3437;0.1568
0000387241;6.7445;1.6017;5.0494;-0.3912;-0.3416;0.1659
0000387249;6.7133;1.3527;4.9752;-0.3870;-0.3204;0.1731
0000387257;7.0246;1.0439;4.8842;-0.3748;-0.2954;0.1753
0000387265;7.1539;0.8236;4.7812;-0.3429;-0.2830;0.1697
0000387273;7.1084;0.6105;4.6807;-0.3055;-0.2514;0.1719
0000387359;6.7924;1.4557;5.1236;-0.1704;-0.1507;0.2150
0000387367;6.6439;1.3192;5.2409;-0.1593;-0.1202;0.1989
0000387375;7.0006;1.5634;5.3941;-0.1561;-0.1055;0.1867
0000387383;6.8761;1.1109;5.5809;-0.1673;-0.0866;0.1759
0000387391;7.5202;1.5754;5.9568;-0.1503;-0.0665;0.1653
0000387399;7.4555;1.4246;5.9496;-0.1549;-0.0392;0.1612
0000387407;7.4005;1.4653;5.8993;-0.1652;-0.0163;0.1747
0000387415;7.5848;1.2905;5.8155;-0.1966;0.0032;0.1848
0000387423;7.4005;1.1899;5.8059;-0.2268;0.0172;0.2001
0000387431;7.1874;0.8212;5.5067;-0.2254;0.0273;0.2118
0000387439;7.2137;0.5914;4.8818;-0.2204;0.0289;0.2313
0000387447;7.1994;0.3424;4.5825;-0.2085;0.0326;0.2541
0000387455;6.9240;0.2538;4.3383;-0.2089;0.0153;0.2634
0000387463;6.6607;-0.1101;3.9600;-0.2000;0.0112;0.2702
0000387471;6.5817;-0.1508;3.8595;-0.1976;0.0089;0.2791
0000387479;6.5362;-0.0120;4.0869;-0.1841;-0.0047;0.2678
0000387487;6.4979;-0.0862;4.4317;-0.1807;-0.0071;0.2626
0000387495;6.6487;0.3759;4.7645;-0.1720;-0.0161;0.2550
0000387503;6.9145;0.7518;5.1116;-0.1748;-0.0195;0.2549
0000387511;6.9073;1.1899;5.6790;-0.1563;-0.0245;0.2517
0000387519;7.1299;1.4054;5.6671;-0.1410;-0.0067;0.2629
0000387527;7.1778;1.4581;5.6144;-0.1440;-0.0055;0.2697
0000387535;7.2903;1.4772;5.3630;-0.1713;-0.0053;0.2939
0000387543;7.4675;1.2570;5.1595;-0.1755;-0.0224;0.3104
0000387551;7.5585;0.8691;4.8554;-0.1916;-0.0293;0.3475
0000387559;7.6758;0.9002;4.7836;-0.2128;-0.0444;0.3757
0000387567;7.6279;0.4717;4.9416;-0.2373;-0.0574;0.3900
0000387575;7.5346;0.4956;5.1020;-0.2761;-0.0609;0.3982
0000387583;7.3430;0.5938;5.3343;-0.2649;-0.0566;0.3842
0000387591;6.8953;0.8404;5.4540;-0.2705;-0.0572;0.3669
0000387599;6.7421;0.9768;5.5115;-0.2996;-0.0389;0.3636
0000387607;6.5146;0.7350;5.3032;-0.3214;-0.0430;0.3600
0000387615;6.2537;0.2083;5.0996;-0.3312;-0.0473;0.3732
0000387623;6.2321;-0.3041;4.5801;-0.2868;-0.0699;0.3922
0000387631;6.2896;-0.8332;4.1779;-0.2442;-0.0925;0.4177
0000387639;5.9424;-1.5347;3.8092;-0.1920;-0.1387;0.4523
0000387647;6.0214;-1.6831;3.5793;-0.1214;-0.1981;0.4990
0000387655;5.8969;-1.6879;3.5458;-0.0709;-0.2663;0.5473
0000387663;5.8826;-1.6568;3.5051;-0.0397;-0.3320;0.5943
0000387671;5.9161;-1.5993;3.7828;-0.0401;-0.3773;0.6496
0000387679;6.1268;-1.1756;3.6990;-0.0454;-0.4226;0.6979
0000387687;6.4212;-0.9936;3.7876;-0.0596;-0.4406;0.7226
0000387695;6.9025;-0.8930;3.6655;-0.1005;-0.4277;0.7362
0000387703;7.1994;-1.4222;3.5602;-0.1328;-0.3914;0.7481
0000387711;7.4172;-2.0542;3.5291;-0.1354;-0.3511;0.7582
0000387719;7.8889;-2.8204;3.1771;-0.0983;-0.2813;0.7714
0000387727;8.0804;-3.3806;2.4181;-0.0454;-0.1978;0.8031
0000387735;8.2935;-3.7948;1.6185;0.0211;-0.1282;0.8407
0000387743;8.6886;-3.8092;1.1085;0.0749;-0.0842;0.8757
0000387751;8.9471;-3.8116;0.7111;0.1396;-0.0581;0.9120
0000387759;8.8131;-3.3758;0.5171;0.1780;-0.0292;0.9450
0000387767;8.4180;-2.7653;0.8284;0.1972;-0.0191;0.9566
0000387775;7.7045;-2.3391;1.3599;0.2073;-0.0171;0.9437
0000387783;6.8259;-1.9656;1.8986;0.2166;-0.0258;0.9196
0000387791;5.9424;-1.8794;2.3224;0.1966;-0.0446;0.9050
0000387799;5.3079;-1.5443;2.5235;0.2004;-0.0930;0.8952
0000387807;4.9249;-1.7166;2.6001;0.1633;-0.1447;0.9177
0000387815;5.3582;-2.1883;2.7031;0.1648;-0.2142;0.9487
0000387823;5.5785;-2.9975;2.1284;0.1835;-0.2915;0.9931
0000387831;6.1172;-3.7781;1.6855;0.2294;-0.3689;1.0471
0000387839;6.5338;-4.5131;1.1492;0.2811;-0.4426;1.0890
0000387847;7.2281;-4.4819;0.7230;0.3344;-0.5217;1.1315
0000387855;7.4651;-4.6519;0.4046;0.3539;-0.5816;1.1706
0000387863;7.9727;-4.1563;0.4022;0.3896;-0.6374;1.2001
0000387871;8.0038;-3.6727;0.6369;0.3892;-0.6647;1.2151
0000387879;8.0517;-3.0957;1.1372;0.3296;-0.6690;1.2264
0000387887;7.8410;-2.9880;1.9465;0.2765;-0.6772;1.2321
0000387895;7.5944;-3.1963;2.4205;0.2386;-0.6940;1.2572
0000387903;7.7189;-3.4453;2.3966;0.2317;-0.7353;1.3059
0000387911;8.0278;-3.7685;2.1835;0.2755;-0.8002;1.3651
0000387919;8.0852;-4.3048;2.2338;0.3048;-0.8753;1.4565
0000387927;8.3725;-4.7453;2.2146;0.3584;-0.9463;1.5504
0000387935;8.3725;-5.0159;2.4253;0.4505;-1.0567;1.6272
0000388021;9.3350;-3.4644;0.1317;0.9205;-1.6711;2.0071
0000388029;9.3781;-2.5211;-2.1787;0.9746;-1.5849;2.1549
0000388037;9.3254;-1.3527;-3.1029;0.9270;-1.4853;2.3057
0000388045;9.2177;-1.1181;-0.3591;0.7647;-1.2600;2.4689
0000388053;8.1139;-1.4629;4.3646;0.6003;-0.9654;2.6101
0000388061;7.3239;0.0479;4.2760;0.4061;-0.9513;2.7491
0000388069;7.8769;2.2410;2.0375;0.0147;-1.2360;2.8723
0000388077;8.6431;4.0031;1.2929;-0.3816;-1.6904;2.9861
0000388085;7.9392;4.9823;2.1165;-0.6171;-2.2308;3.2141
0000388093;6.1268;5.0422;3.1603;-0.7653;-2.8393;3.5396
0000388101;3.4357;4.3527;5.0877;-0.8905;-3.4412;3.6298
0000388109;1.3767;3.1053;8.5497;-1.0227;-4.1676;3.4306
0000388117;5.2002;0.7278;18.5599;-1.4581;-4.3657;2.9982
0000388125;20.6787;1.7573;26.8821;-1.5226;-4.3657;1.9276
0000388133;78.4508;16.1609;21.2892;2.1116;-4.3657;2.9597
0000388141;78.4508;39.2481;49.1003;1.5142;-4.3657;4.3656
0000388149;78.4508;19.9341;-1.9704;-0.1535;-4.1793;4.3656
0000388157;55.5670;-8.5569;-3.6703;-1.3708;-3.0994;4.3656
0000388165;31.7639;-19.0243;-1.6975;-1.7585;-3.3164;4.3656
0000388173;19.8072;-25.8789;1.7573;-2.2868;-3.5462;4.3656
0000388181;6.1244;-25.3881;-6.2225;-1.3227;-3.5469;4.3656
0000388189;-3.1244;-24.7800;-12.1985;0.5750;-2.9680;4.3656
0000388197;-11.4443;-25.2900;-17.8129;2.6271;-2.9259;4.3404
0000388205;-9.1985;-24.9117;-16.5056;2.9876;-2.8642;2.6212
0000388213;21.0019;-13.7092;-4.1683;2.1585;-2.2760;1.5612
0000388221;33.6936;-0.3304;10.9846;0.6917;-1.7352;1.1975
0000388229;38.7023;5.7389;10.0293;-0.6864;-2.5690;1.4611
0000388237;34.1509;4.0797;1.4222;-0.9979;-2.5948;2.2779
0000388245;22.9053;-1.4509;-3.0598;-1.2225;-1.9682;2.5816
0000388253;18.1983;-9.8976;-4.9129;-1.0757;-1.4052;2.3200
0000388261;17.3867;-15.6772;-5.1834;-0.7284;-1.0564;1.6421
0000388269;19.1704;-18.8974;-4.0725;-0.5368;-0.6961;0.6921
0000388277;12.0452;-20.9995;-4.2306;-0.3691;-0.4787;-0.0100
0000388285;8.9639;-19.2254;-5.2816;-0.2077;-0.4251;-0.7012
0000388293;7.2856;-18.9094;-9.3446;0.2042;-0.6451;-0.9289
0000388301;9.6031;-17.0659;-10.0293;0.6804;-0.6871;-1.0892
0000388309;9.3518;-15.0356;-10.1754;1.0146;-0.7698;-1.2838
0000388317;9.1195;-13.5416;-9.0788;1.0572;-0.7655;-1.2785
0000388325;11.6047;-13.3142;-8.1044;1.3274;-0.6225;-1.2201
0000388333;13.7092;-10.9798;-6.9983;1.5431;-0.3635;-1.1624
0000388341;14.5903;-7.6375;-6.0525;1.4206;-0.1680;-1.0417
0000388349;15.7251;-4.8554;-5.1571;1.2658;-0.0545;-0.8816
0000388357;14.5160;-3.1603;-5.4133;1.1001;-0.0799;-0.6150
0000388365;13.7427;-1.8244;-4.8100;0.8478;-0.1066;-0.2960
0000388373;11.6430;-1.9249;-5.2361;0.5348;-0.2581;0.0506
0000388381;10.3597;-2.9928;-5.1811;0.2527;-0.5047;0.4406
0000388389;10.6734;-5.7652;-6.2728;0.1170;-0.7488;0.7847
0000388397;12.3613;-9.0692;-7.8913;0.0314;-0.9157;0.9643
0000388405;14.5472;-12.1697;-8.7795;0.1696;-0.9209;0.9971
0000388413;15.6964;-13.8936;-9.4978;0.3469;-0.8549;0.9475
0000388421;15.9597;-14.0779;-9.9982;0.4154;-0.7629;0.8206
0000388429;15.9071;-14.2072;-9.4882;0.4399;-0.6487;0.6358
0000388437;15.1816;-13.6469;-8.9328;0.4780;-0.5313;0.4946
0000388445;15.6270;-12.6941;-8.2839;0.4375;-0.4238;0.3766
0000388453;15.8376;-12.5696;-7.9009;0.3729;-0.3232;0.2553
0000388461;16.3165;-12.2966;-7.7668;0.3066;-0.2273;0.1436
0000388469;17.1976;-11.7460;-7.4555;0.2341;-0.0955;-0.0177
0000388477;17.5088;-11.3653;-6.8187;0.1448;0.0620;-0.2081
0000388485;16.7043;-10.9798;-6.1555;0.0866;0.1772;-0.3513
0000388493;16.3476;-10.5273;-5.9807;0.0376;0.3023;-0.4722
0000388501;16.3404;-10.0892;-5.7197;0.0097;0.4109;-0.5514
0000388509;16.0579;-9.5385;-5.5378;-0.0125;0.5244;-0.6041
0000388517;15.7802;-9.2368;-4.9943;-0.0329;0.6025;-0.6570
0000388525;15.8544;-8.8633;-4.6376;-0.0398;0.6639;-0.6843
0000388533;15.6246;-8.5617;-4.4269;-0.0573;0.7369;-0.6869
0000388541;15.6461;-8.7245;-4.2258;-0.0755;0.8029;-0.6853
0000388549;16.0507;-8.5042;-4.2593;-0.0757;0.8549;-0.6993
0000388557;15.8496;-8.8178;-4.1204;-0.0789;0.8937;-0.7103
0000388565;15.8185;-8.8083;-3.6847;-0.0649;0.9056;-0.7429
0000388573;15.9214;-8.5234;-3.3639;-0.0476;0.9045;-0.7621
0000388664;16.4434;-8.6814;-2.5786;-0.2991;1.0383;-0.7755
0000388672;16.5942;-8.9376;-2.8108;-0.2902;1.0878;-0.8263
0000388680;16.7762;-9.0597;-3.0694;-0.2705;1.1528;-0.8938
0000388688;16.3021;-9.2296;-3.3998;-0.2341;1.1775;-0.9649
0000388696;16.2087;-9.4284;-3.4740;-0.1447;1.1988;-1.0444
0000388704;16.7331;-9.1291;-3.1340;-0.0346;1.2766;-1.1379
0000388712;17.0276;-9.0022;-2.8778;0.0698;1.3712;-1.2172
0000388720;16.9270;-8.5234;-2.8299;0.1404;1.4670;-1.3098
0000388728;16.7331;-8.2241;-3.3423;0.2160;1.5184;-1.3478
0000388736;17.0491;-7.8697;-3.2082;0.3196;1.5591;-1.3799
0000388744;17.1114;-8.2791;-1.8579;0.4465;1.5992;-1.4180
0000388752;17.1281;-8.7101;-0.8571;0.6074;1.5709;-1.4084
0000388760;17.0252;-8.0661;-0.9673;0.7819;1.5427;-1.3717
0000388768;16.9222;-7.1970;-1.3599;0.8740;1.4325;-1.2955
0000388776;16.3692;-6.9719;-0.6249;0.8485;1.2364;-1.2179
0000388784;15.6677;-6.6200;-0.1245;0.7428;1.0040;-1.1604
0000388792;15.0739;-6.5984;0.5722;0.5669;0.7905;-1.0345
0000388800;14.7363;-6.3614;1.3144;0.4330;0.6310;-0.8965
0000388808;14.1904;-6.3470;1.4988;0.3740;0.6197;-0.7643
0000388816;13.8744;-5.6695;0.8715;0.3268;0.6694;-0.6198
0000388824;14.3556;-5.1451;0.4022;0.2491;0.6731;-0.4895
0000388832;15.0308;-5.1116;0.4812;0.2220;0.7088;-0.4072
0000388840;15.3349;-5.2002;1.1923;0.2194;0.7637;-0.3668
0000388848;15.5791;-5.0302;0.6991;0.2165;0.8128;-0.3348
0000388856;16.1896;-5.1930;2.4110;0.1867;0.7453;-0.3264
0000388864;16.6421;-5.1858;2.2529;0.2541;0.6955;-0.2988
0000388872;16.4625;-4.6567;2.3655;0.2992;0.7253;-0.2469
0000388880;15.9526;-4.4293;3.4596;0.3949;0.7737;-0.2321
0000388888;14.7746;-3.5554;3.9337;0.4871;0.7524;-0.2372
0000388896;14.3485;-2.4780;4.8794;0.4787;0.5981;-0.1925
0000388904;14.2072;-1.3910;4.8746;0.4084;0.4531;-0.0456
0000388912;13.5296;-0.1915;4.5849;0.2791;0.2966;0.1716
0000388920;12.8617;0.5171;4.8483;0.0762;0.1187;0.3913
0000388928;12.0165;0.6033;4.8076;-0.1372;-0.0807;0.5387
0000388936;11.8633;0.4669;4.1851;-0.3183;-0.2868;0.5865
0000388944;12.4020;-0.7709;3.5745;-0.4920;-0.4692;0.6035
0000388952;13.3884;-2.0853;2.7461;-0.6836;-0.6077;0.6547
0000388960;14.6334;-3.3519;1.9393;-0.8431;-0.7115;0.7060
0000388968;15.8041;-4.6280;1.2809;-0.9735;-0.7717;0.7222
0000388976;16.9462;-5.7341;0.8140;-1.0500;-0.8070;0.7293
0000388984;17.6572;-6.7900;-0.0551;-1.0812;-0.8232;0.7095
0000388992;18.3037;-8.0445;-0.3519;-1.0387;-0.8027;0.6888
0000389000;18.7681;-8.8298;-0.9912;-0.9185;-0.7528;0.6574
0000389008;18.2821;-9.1889;-1.4246;-0.7361;-0.7232;0.5990
0000389016;17.5375;-9.7061;-1.4724;-0.5197;-0.6730;0.5265
0000389024;16.7427;-9.9192;-1.2881;-0.2911;-0.6411;0.4343
0000389032;16.1154;-9.6391;-0.8380;-0.0938;-0.5957;0.3333
0000389040;15.9095;-9.1937;-0.4764;0.0143;-0.5629;0.2208
0000389048;15.7922;-8.7676;-0.1676;0.0909;-0.5505;0.1174
0000389056;16.2207;-7.8841;0.0527;0.1155;-0.5488;0.0366
0000389064;16.5966;-7.2042;0.1748;0.0914;-0.5485;-0.0208
0000389072;16.8576;-6.6248;0.2562;0.0281;-0.5602;-0.0498
0000389080;16.8935;-6.4045;0.3615;-0.0248;-0.5890;-0.0600
0000389088;16.8815;-6.3686;0.3304;-0.0890;-0.6069;-0.0687
0000389096;16.7642;-6.2417;-0.1077;-0.1372;-0.6157;-0.0636
0000389104;16.7259;-6.5266;-0.3448;-0.1804;-0.6111;-0.0542
0000389112;17.1042;-6.5553;-0.7877;-0.2117;-0.6074;-0.0485
0000389121;16.8432;-7.1443;-1.1516;-0.2180;-0.5913;-0.0534
0000389130;16.8097;-7.5322;-1.7621;-0.1860;-0.5661;-0.0634
0000389139;16.7091;-7.6782;-2.0830;-0.1180;-0.5201;-0.0911
0000389148;16.6445;-7.6399;-2.0901;-0.0500;-0.4590;-0.1323
0000389157;16.7235;-7.3406;-2.0399;0.0048;-0.3902;-0.1749
0000389166;16.6469;-6.9001;-1.6975;0.0184;-0.3160;-0.2085
0000389175;16.8552;-6.5003;-1.5251;0.0160;-0.2526;-0.2108
0000389184;16.9916;-6.0956;-1.5251;0.0049;-0.1978;-0.1919
0000389193;16.6804;-6.3015;-1.5012;-0.0135;-0.1456;-0.1896
0000389202;16.9079;-6.3279;-1.4006;-0.0226;-0.0918;-0.1688
0000389211;16.8336;-6.4476;-1.5036;-0.0217;-0.0345;-0.1567
0000389220;16.7905;-6.5817;-1.5802;-0.0246;0.0250;-0.1621
0000389229;16.7738;-6.6224;-1.4916;-0.0268;0.0729;-0.1676
0000389316;16.2758;-6.4715;-0.3855;-0.1356;0.1608;-0.2409
0000389325;16.3213;-6.2800;-0.2610;-0.1315;0.1575;-0.2344
0000389334;16.2878;-6.2608;-0.1652;-0.1144;0.1412;-0.2380
0000389343;16.4482;-6.3087;-0.2011;-0.0799;0.1222;-0.2314
0000389352;16.5415;-6.0669;-0.3304;-0.0470;0.1202;-0.2022
0000389361;16.7379;-5.6695;-0.5004;-0.0226;0.1184;-0.1853
0000389370;16.7307;-5.7054;-0.6632;-0.0127;0.1256;-0.1531
0000389379;16.5248;-5.7174;-0.6009;-0.0088;0.1370;-0.1235
0000389388;16.4937;-5.8251;-0.6345;0.0079;0.1510;-0.0927
0000389397;16.5272;-5.8873;-0.5435;0.0120;0.1605;-0.0699
0000389406;16.3979;-5.8490;-0.5267;0.0221;0.1649;-0.0450
0000389415;16.2973;-5.9161;-0.3424;0.0413;0.1600;-0.0228
0000389424;16.4075;-5.8490;-0.2586;0.0442;0.1498;-0.0087
0000389433;16.4865;-5.7916;-0.1389;0.0420;0.1439;0.0132
0000389442;16.1369;-5.9664;-0.1772;0.0358;0.1255;0.0266
0000389451;16.3309;-5.7844;-0.1437;0.0185;0.1041;0.0420
0000389460;16.3907;-5.8059;-0.2203;-0.0048;0.0862;0.0624
0000389469;16.3332;-6.0478;-0.2849;-0.0113;0.0794;0.0709
0000389478;16.5008;-5.8538;-0.4118;-0.0293;0.0798;0.0881
0000389487;16.3524;-6.0573;-0.2945;-0.0290;0.0717;0.0841
0000389496;16.2494;-6.0765;-0.1891;-0.0301;0.0758;0.0937
0000389505;16.3237;-6.1507;-0.2227;-0.0294;0.0703;0.0931
0000389514;16.1202;-6.2321;-0.1006;-0.0316;0.0640;0.1023
0000389523;16.3500;-6.0861;0.0694;-0.0273;0.0413;0.1088
0000389532;16.2590;-6.0573;0.0910;-0.0340;0.0290;0.1259
0000389541;16.2925;-6.1148;0.0048;-0.0358;-0.0072;0.1303
0000389550;16.3907;-6.0837;0.0120;-0.0394;-0.0257;0.1334
0000389559;16.5224;-6.1124;-0.1891;-0.0572;-0.0337;0.1391
0000389568;16.4218;-6.2776;-0.2586;-0.0746;-0.0397;0.1314
0000389577;16.3692;-6.4452;-0.2729;-0.0930;-0.0381;0.1208
0000389586;16.4266;-6.6870;-0.4166;-0.0937;-0.0320;0.1094
0000389595;16.6110;-6.7157;-0.3017;-0.0807;-0.0215;0.0807
0000389604;16.4625;-6.8498;-0.3855;-0.0769;-0.0043;0.0590
0000389613;16.2447;-6.9839;-0.3112;-0.0517;-0.0007;0.0309
0000389622;16.2471;-6.7924;-0.1030;-0.0328;0.0147;0.0129
0000389631;16.4386;-6.7588;0.0431;-0.0027;0.0031;-0.0179
0000389640;16.2854;-6.7564;-0.0359;0.0116;-0.0072;-0.0409
0000389649;16.3955;-6.4021;0.0024;0.0040;-0.0137;-0.0598
0000389658;16.5056;-6.3255;-0.1556;0.0005;-0.0262;-0.0670
0000389667;16.4865;-6.1244;-0.1006;-0.0020;-0.0453;-0.0693
0000389676;16.3261;-6.3805;-0.0790;-0.0135;-0.0449;-0.0633
0000389685;16.2830;-6.4069;-0.2466;-0.0123;-0.0594;-0.0742
0000389694;16.5104;-6.2728;-0.2682;-0.0168;-0.0513;-0.0687
0000389703;16.4769;-6.4021;-0.3639;-0.0230;-0.0485;-0.0790
0000389712;16.5655;-6.2153;-0.2179;-0.0241;-0.0506;-0.0834
0000389721;16.4960;-6.3542;-0.2227;-0.0288;-0.0436;-0.0861
0000389730;16.3572;-6.3758;-0.1508;-0.0245;-0.0489;-0.0967
0000389739;16.3189;-6.2752;-0.0790;-0.0302;-0.0618;-0.0995
0000389748;16.4099;-6.2872;-0.1963;-0.0296;-0.0569;-0.0999
0000389757;16.3428;-6.2608;-0.2418;-0.0372;-0.0634;-0.1015
0000389766;16.4386;-6.1459;-0.2729;-0.0297;-0.0665;-0.0995
0000389775;16.6086;-5.9089;-0.2897;-0.0360;-0.0685;-0.0969
0000389784;16.3739;-6.2369;-0.3065;-0.0384;-0.0653;-0.0863
0000389793;16.3021;-6.2489;-0.3759;-0.0364;-0.0699;-0.0886
0000389802;16.6229;-6.1244;-0.2586;-0.0366;-0.0652;-0.0783
0000389811;16.3787;-6.0693;-0.2538;-0.0333;-0.0658;-0.0770
0000389820;16.3955;-6.1483;-0.3352;-0.0281;-0.0747;-0.0741
0000389829;16.3428;-6.0262;-0.4142;-0.0361;-0.0642;-0.0570
0000389838;16.3356;-6.1148;-0.4022;-0.0305;-0.0670;-0.0520
0000389847;16.5320;-6.0071;-0.2729;-0.0225;-0.0694;-0.0384
0000389856;16.4960;-5.9520;-0.3232;-0.0276;-0.0597;-0.0204
0000389865;16.4625;-6.0573;-0.4908;-0.0189;-0.0630;-0.0137
0000389874;16.4003;-6.1603;-0.4645;-0.0266;-0.0490;0.0024
0000389883;16.5296;-6.1507;-0.5315;-0.0262;-0.0372;0.0073
0000389892;16.5272;-6.1866;-0.6225;-0.0245;-0.0234;0.0060
0000389901;16.3500;-6.2752;-0.4764;-0.0248;-0.0091;0.0079
0000389910;16.4314;-6.1794;-0.3567;-0.0337;0.0089;0.0105
0000389919;16.4410;-6.1387;-0.3855;-0.0265;0.0131;0.0045
0000389928;16.5703;-6.1004;-0.4094;-0.0384;0.0276;0.0141
0000389937;16.4553;-5.9664;-0.3543;-0.0396;0.0353;0.0052
0000390024;16.2183;-6.3422;0.3256;-0.1887;-0.0213;-0.0149
0000390033;16.1800;-6.5553;0.1748;-0.1835;-0.0561;-0.0188
0000390042;16.1417;-6.7325;-0.0144;-0.1522;-0.0898;-0.0269
0000390051;16.3189;-6.7780;-0.0215;-0.1212;-0.1039;-0.0460
0000390060;16.5152;-6.6631;-0.1508;-0.0897;-0.1288;-0.0694
0000390069;16.4194;-6.6655;-0.2442;-0.0628;-0.1287;-0.0789
0000390078;16.3955;-6.4476;-0.0910;-0.0454;-0.1338;-0.1058
0000390087;16.2494;-6.3853;-0.2490;-0.0460;-0.1307;-0.1098
0000390096;16.4458;-6.2297;-0.1748;-0.0445;-0.1315;-0.1143
0000390105;16.5463;-5.9927;-0.2921;-0.0473;-0.1266;-0.1098
0000390114;16.4314;-6.1244;-0.3328;-0.0352;-0.1330;-0.1135
0000390123;16.3332;-6.0980;-0.3831;-0.0368;-0.1260;-0.1011
0000390132;16.5176;-6.0454;-0.3136;-0.0353;-0.1211;-0.0951
0000390141;16.4314;-6.0118;-0.4860;-0.0280;-0.1271;-0.0903
0000390150;16.4146;-6.1100;-0.3783;-0.0330;-0.1128;-0.0683
0000390159;16.4817;-5.9472;-0.5148;-0.0314;-0.1037;-0.0613
0000390168;16.4218;-6.0645;-0.4477;-0.0316;-0.0994;-0.0552
0000390177;16.6421;-5.8706;-0.6560;-0.0337;-0.0835;-0.0470
0000390186;16.4530;-5.9017;-0.5171;-0.0358;-0.0677;-0.0320
0000390195;16.4482;-6.1339;-0.5578;-0.0293;-0.0586;-0.0302
0000390204;16.5463;-5.9711;-0.5483;-0.0342;-0.0438;-0.0211
0000390213;16.5559;-6.1603;-0.4573;-0.0300;-0.0325;-0.0192
0000390222;16.5679;-6.0094;-0.5052;-0.0254;-0.0217;-0.0081
0000390231;16.5008;-6.0597;-0.3879;-0.0222;-0.0248;-0.0047
0000390240;16.3883;-6.0693;-0.4405;-0.0228;-0.0128;0.0072
0000390249;16.3692;-6.1220;-0.4070;-0.0197;-0.0161;0.0113
0000390258;16.2327;-6.2153;-0.3160;-0.0187;-0.0100;0.0165
0000390267;16.4649;-6.1292;-0.3089;-0.0176;-0.0084;0.0205
0000390276;16.5176;-6.0885;-0.3591;-0.0096;-0.0169;0.0185
0000390285;16.2830;-6.1363;-0.3376;-0.0147;-0.0125;0.0258
0000390294;16.4386;-6.0789;-0.2514;-0.0116;-0.0171;0.0224
0000390303;16.4745;-6.1723;-0.3519;-0.0108;-0.0177;0.0281
0000390312;16.6924;-5.9807;-0.3017;-0.0112;-0.0155;0.0175
0000390321;16.3907;-6.1699;-0.2514;-0.0129;-0.0137;0.0185
0000390330;16.5391;-6.2752;-0.2993;-0.0088;-0.0200;0.0108
0000390339;16.4123;-6.2513;-0.3184;-0.0092;-0.0189;0.0039
0000390348;16.4577;-6.1866;-0.2610;-0.0167;-0.0159;0.0012
0000390357;16.5727;-6.2082;-0.3400;-0.0121;-0.0225;-0.0060
0000390366;16.4530;-6.2417;-0.2394;-0.0165;-0.0101;-0.0072
0000390375;16.3620;-6.1986;-0.2442;-0.0121;-0.0144;-0.0222
0000390384;16.5032;-6.1411;-0.3328;-0.0208;-0.0065;-0.0169
0000390393;16.6804;-6.0286;-0.2945;-0.0181;-0.0133;-0.0225
0000390402;16.2207;-6.2896;-0.3831;-0.0238;-0.0107;-0.0268
0000390411;16.4530;-6.2680;-0.3328;-0.0213;-0.0045;-0.0241
0000390420;16.4266;-6.1699;-0.3232;-0.0144;-0.0073;-0.0304
0000390429;16.4913;-6.0789;-0.3472;-0.0262;-0.0012;-0.0246
0000390438;16.4649;-6.0525;-0.3352;-0.0250;0.0001;-0.0234
0000390447;16.4146;-6.1842;-0.2897;-0.0297;0.0067;-0.0209
0000390456;16.3931;-6.2560;-0.2945;-0.0240;0.0016;-0.0277
0000390465;16.3213;-6.1723;-0.3208;-0.0260;0.0093;-0.0229
0000390474;16.4314;-6.0214;-0.3136;-0.0252;0.0032;-0.0297
0000390483;16.4769;-6.0334;-0.3543;-0.0236;0.0080;-0.0124
0000390492;16.6134;-5.9544;-0.2322;-0.0246;0.0040;-0.0097
0000390501;16.3285;-6.1411;-0.2682;-0.0200;0.0033;-0.0108
0000390510;16.3596;-6.0669;-0.3400;-0.0300;0.0071;0.0017
0000390519;16.4218;-6.2201;-0.3089;-0.0229;0.0003;-0.0064
0000390528;16.3979;-6.1292;-0.2346;-0.0220;0.0041;0.0004
0000390537;16.4099;-6.1459;-0.2562;-0.0179;0.0008;-0.0031
0000390546;16.4721;-6.1483;-0.2705;-0.0222;0.0037;0.0025
0000390555;16.5344;-6.0908;-0.1987;-0.0209;0.0020;-0.0051
0000390564;16.4170;-6.0454;-0.1963;-0.0353;0.0057;0.0057
0000390573;16.3572;-6.3303;0.0814;-0.0380;-0.0041;-0.0059
0000390582;16.2375;-6.4811;0.1437;-0.0425;-0.0123;-0.0056
0000390591;16.1656;-6.5721;0.1867;-0.0489;-0.0273;-0.0173
0000390600;16.2064;-6.4763;0.2394;-0.0514;-0.0500;-0.0294
0000390609;16.2830;-6.3566;0.2203;-0.0449;-0.0710;-0.0436
0000390618;16.4051;-6.1938;-0.1604;-0.0269;-0.0805;-0.0478
0000390627;16.5152;-6.2848;-0.2346;-0.0112;-0.0655;-0.0344
0000390636;16.5727;-6.3398;-0.1628;0.0005;-0.0386;-0.0404
0000390724;16.2064;-5.2529;-1.1301;0.0830;0.2493;-0.1154
0000390733;16.0627;-4.8698;-0.9266;0.0248;0.1827;-0.1399
0000390742;15.9693;-4.8315;-0.8116;-0.0570;0.1475;-0.1274
0000390751;16.4290;-4.8698;-0.5004;-0.1219;0.1655;-0.0673
0000390760;17.1209;-5.1308;0.0790;-0.1828;0.2170;-0.0216
0000390769;16.9988;-5.4253;0.6943;-0.2479;0.2434;-0.0040
0000390778;17.0683;-5.4827;0.4477;-0.3260;0.2602;0.0113
0000390787;16.5751;-5.6192;-0.3376;-0.3619;0.2642;0.0207
0000390796;17.0707;-5.6383;-0.7254;-0.3736;0.3263;0.0404
0000390805;16.9845;-6.0525;-1.4748;-0.3697;0.3477;0.0466
0000390814;17.1161;-6.3231;-1.4246;-0.3576;0.3941;0.0364
0000390823;17.3604;-6.3279;-1.2713;-0.3595;0.4311;-0.0015
0000390832;17.6165;-6.3997;-0.9409;-0.3601;0.4731;-0.0289
0000390841;16.8648;-6.2872;-0.8475;-0.3536;0.5047;-0.0678
0000390850;17.0443;-6.2321;-0.7542;-0.3675;0.5181;-0.0937
0000390859;16.9869;-6.1890;-0.5746;-0.3525;0.5092;-0.1078
0000390868;16.7738;-6.1483;-0.3519;-0.3293;0.4991;-0.1340
0000390877;16.5296;-6.2369;-0.2370;-0.3400;0.4931;-0.1392
0000390886;16.5368;-6.1339;-0.0096;-0.3238;0.4828;-0.1620
0000390895;16.3165;-6.4548;0.2729;-0.3031;0.4758;-0.1777
0000390904;16.2471;-6.1531;0.5698;-0.2871;0.4752;-0.1972
0000390913;15.8927;-6.3614;1.0918;-0.2538;0.4422;-0.2089
0000390922;15.5695;-6.1028;1.3240;-0.2401;0.4052;-0.2068
0000390931;15.1481;-6.0334;1.6257;-0.2196;0.3403;-0.2040
0000390940;15.0787;-5.9807;1.7262;-0.2098;0.2860;-0.1891
0000390949;14.8297;-5.9879;1.7286;-0.1960;0.2277;-0.1719
0000390958;14.7818;-6.0142;1.8555;-0.1889;0.1731;-0.1471
0000390967;15.0954;-5.7197;1.7119;-0.1765;0.1286;-0.1278
0000390976;15.0811;-5.9304;1.6520;-0.1512;0.0903;-0.1116
0000390985;15.5120;-5.9783;1.7573;-0.1255;0.0674;-0.0878
0000390994;15.7036;-6.0190;1.6209;-0.1069;0.0530;-0.0658
0000391003;16.1058;-5.8203;1.5874;-0.0733;0.0436;-0.0457
0000391012;15.9334;-5.9616;1.5538;-0.0474;0.0386;-0.0310
0000391021;16.2279;-5.7940;1.4629;-0.0274;0.0211;-0.0075
0000391030;16.0651;-5.8969;1.2929;-0.0060;0.0163;0.0156
0000391039;16.1034;-5.8490;1.1899;0.0176;0.0108;0.0273
0000391048;16.3548;-5.5785;1.1133;0.0360;-0.0005;0.0369
0000391057;16.1226;-5.6455;1.0702;0.0333;-0.0069;0.0613
0000391066;15.9119;-5.7557;1.0271;0.0364;-0.0185;0.0742
0000391075;16.0842;-5.5952;1.0175;0.0613;-0.0482;0.0958
0000391084;16.1154;-5.5426;1.0774;0.0659;-0.0549;0.1267
0000391093;16.1489;-5.5378;0.9625;0.0665;-0.0723;0.1451
0000391102;16.2542;-5.5162;1.0343;0.0618;-0.0903;0.1685
0000391111;16.4362;-5.5234;0.9385;0.0545;-0.1047;0.1864
0000391120;16.4218;-5.5713;0.9529;0.0365;-0.1034;0.2094
0000391129;16.5344;-5.8395;0.8260;0.0270;-0.0994;0.2262
0000391138;16.6756;-5.8897;0.8930;0.0248;-0.0982;0.2329
0000391147;16.7331;-5.9783;0.6967;0.0228;-0.0859;0.2414
0000391156;16.4362;-6.2513;0.7733;0.0281;-0.0735;0.2399
0000391165;16.3093;-6.4380;0.7542;0.0498;-0.0718;0.2313
0000391174;16.2111;-6.4500;0.7494;0.0699;-0.0650;0.2274
0000391183;16.2111;-6.4883;0.7039;0.0943;-0.0714;0.2200
0000391192;16.1920;-6.4093;0.6033;0.1003;-0.0673;0.2194
0000391201;16.2016;-6.3375;0.6177;0.0946;-0.0719;0.2002
0000391210;16.4697;-6.1316;0.5555;0.0779;-0.0618;0.2033
0000391219;16.8169;-6.1890;0.4573;0.0644;-0.0500;0.1836
0000391228;16.8193;-6.2848;0.4310;0.0524;-0.0300;0.1768
0000391237;16.6445;-6.4260;0.5148;0.0521;-0.0095;0.1701
0000391246;16.6493;-6.4931;0.5650;0.0670;-0.0033;0.1579
0000391255;16.4673;-6.7038;0.7015;0.0763;0.0171;0.1428
0000391264;16.3165;-6.5673;0.6273;0.0806;0.0208;0.1264
0000391273;16.7666;-6.2872;0.6776;0.0770;0.0167;0.1090
0000391282;16.4338;-6.4332;0.6297;0.0522;0.0241;0.0954
0000391291;16.3859;-6.3829;0.5842;0.0318;0.0264;0.0671
0000391300;16.5056;-6.5194;0.6369;-0.0012;0.0434;0.0560
0000391309;16.7498;-6.4069;0.4764;-0.0088;0.0566;0.0289
0000391318;16.3644;-6.7756;0.6823;-0.0217;0.0738;0.0124
0000391327;16.5368;-6.6343;0.7183;-0.0129;0.0785;-0.0180
0000391336;16.1249;-6.8929;0.6967;-0.0056;0.0922;-0.0381
0000391345;16.2662;-6.7109;0.9697;0.0245;0.0767;-0.0528
0000391354;16.1489;-6.5457;0.9912;0.0330;0.0765;-0.0572
0000391497;16.3763;-6.1603;0.9744;-0.0312;-0.0218;-0.0001
0000391504;16.1848;-6.2728;1.0127;-0.0328;-0.0192;0.0097
0000391512;16.3811;-6.1028;1.0511;-0.0297;-0.0266;0.0048
