time;acc_x;acc_y;acc_z;gyro_x;gyro_y;gyro_z
0000181473;3.8618;-15.7012;1.9489;-0.0377;-0.0314;-0.0077
0000181482;4.0414;-15.5719;1.9273;-0.0474;-0.0268;-0.0104
0000181489;3.9552;-15.6605;1.7861;-0.0489;-0.0253;-0.0159
0000181497;3.8211;-15.7754;1.8890;-0.0508;-0.0197;-0.0133
0000181506;3.8666;-15.7682;1.9609;-0.0498;-0.0197;-0.0132
0000181514;3.8451;-15.6796;1.9034;-0.0436;-0.0115;-0.0057
0000181526;3.9504;-15.7658;2.0542;-0.0253;-0.0116;-0.0131
0000181534;3.9744;-15.7179;2.1045;-0.0116;-0.0113;-0.0184
0000181545;3.9073;-15.5719;2.0375;-0.0032;-0.0071;-0.0260
0000181553;3.8978;-15.7323;2.0542;-0.0003;-0.0037;-0.0253
0000181561;4.1108;-15.4258;2.1261;-0.0064;0.0009;-0.0284
0000181573;4.0701;-15.3325;2.0111;-0.0143;0.0169;-0.0286
0000181581;3.9959;-15.4761;1.9441;-0.0179;0.0292;-0.0228
0000181592;4.1108;-15.2774;1.9465;-0.0242;0.0453;-0.0151
0000181600;4.0701;-15.4426;1.9992;-0.0262;0.0516;-0.0175
0000181612;4.0247;-15.4187;2.0135;-0.0292;0.0617;-0.0073
0000181620;3.8954;-15.5144;2.0351;-0.0254;0.0529;-0.0139
0000181687;3.8954;-15.5336;2.0399;-0.0137;0.0053;-0.0400
0000181695;3.8403;-15.5863;1.9465;-0.0175;0.0033;-0.0350
0000181707;3.7900;-15.6126;2.0925;-0.0193;-0.0059;-0.0285
0000181715;3.9193;-15.5360;2.0446;-0.0153;-0.0059;-0.0241
0000181723;3.8379;-15.5479;2.0255;-0.0195;-0.0023;-0.0175
0000181734;3.7757;-15.5096;2.0638;-0.0140;-0.0052;-0.0132
0000181742;3.7637;-15.5288;2.0901;-0.0169;-0.0083;-0.0079
0000181754;3.8427;-15.6078;2.0662;-0.0139;-0.0112;-0.0125
0000181762;3.8235;-15.5360;1.9992;-0.0238;-0.0152;-0.0088
0000181773;4.0079;-15.3516;2.0686;-0.0362;-0.0187;-0.0108
0000181781;3.8834;-15.5719;2.0710;-0.0374;-0.0269;-0.0159
0000181793;3.9073;-15.4641;2.1093;-0.0441;-0.0293;-0.0104
0000181801;3.9600;-15.5599;2.0183;-0.0518;-0.0289;-0.0065
0000181812;3.7948;-15.6605;1.9824;-0.0544;-0.0242;0.0005
0000181820;3.8978;-15.6772;2.0590;-0.0497;-0.0276;0.0021
0000181832;3.8690;-15.7898;1.9920;-0.0385;-0.0226;0.0111
0000181840;3.9337;-15.8017;2.0183;-0.0381;-0.0171;0.0121
0000181848;4.0582;-15.5551;2.0087;-0.0333;-0.0278;0.0039
0000181859;3.8499;-15.5982;2.0135;-0.0350;-0.0314;0.0000
0000181867;4.0414;-15.4857;1.9848;-0.0421;-0.0234;-0.0013
0000181879;4.0007;-15.4474;1.9680;-0.0454;-0.0333;-0.0136
0000181887;3.9049;-15.5863;1.9585;-0.0516;-0.0272;-0.0108
0000181954;4.1132;-15.7227;1.9154;0.0048;0.0321;-0.0266
0000181962;4.4125;-15.5456;2.0255;0.0105;0.0352;-0.0440
0000181974;4.1013;-15.6557;1.9896;-0.0007;0.0477;-0.0548
0000181982;3.9744;-15.6437;1.9680;-0.0029;0.0540;-0.0538
0000181993;4.2545;-15.6030;2.0423;-0.0036;0.0512;-0.0574
0000182001;4.1707;-15.6365;2.0566;-0.0111;0.0590;-0.0370
0000182009;4.2234;-15.6677;1.9393;-0.0124;0.0580;-0.0201
0000182021;4.2689;-15.7682;1.8603;0.0071;0.0545;-0.0169
0000182029;4.1707;-15.7060;1.9178;0.0216;0.0537;-0.0169
0000182040;4.0869;-15.7562;1.9010;0.0424;0.0576;-0.0188
0000182048;4.0199;-15.6653;1.8938;0.0562;0.0636;-0.0196
0000182060;3.9313;-15.7730;1.9178;0.0614;0.0795;-0.0195
0000182068;3.9552;-15.5527;1.7693;0.0601;0.0937;-0.0161
0000182079;3.7852;-15.7131;1.9944;0.0659;0.1082;-0.0137
0000182087;3.7948;-15.6653;2.0111;0.0706;0.1087;-0.0108
0000182095;3.9313;-15.5025;2.0638;0.0683;0.1029;-0.0059
0000182107;3.5314;-15.8089;2.1979;0.0789;0.0879;0.0065
0000182115;3.6200;-15.7538;2.1787;0.0710;0.0849;0.0205
0000182126;3.4141;-15.7826;2.2410;0.0761;0.0601;0.0284
0000182134;3.5626;-15.6437;2.2122;0.0827;0.0429;0.0325
0000182146;3.6296;-15.4761;2.0518;0.0850;0.0152;0.0330
0000182154;3.5721;-15.5886;2.0710;0.0711;0.0024;0.0368
0000182221;3.7421;-15.7179;1.8555;-0.0753;-0.0662;0.0277
0000182229;3.9433;-15.6605;1.8603;-0.0686;-0.0673;0.0449
0000182237;3.6607;-15.8903;1.8866;-0.0517;-0.0694;0.0490
0000182249;3.6943;-15.9717;1.9513;-0.0156;-0.0763;0.0532
0000182257;3.6224;-15.9550;1.9154;0.0147;-0.0807;0.0497
0000182268;3.7421;-15.8472;1.9321;0.0388;-0.0721;0.0457
0000182276;3.7254;-15.8257;1.9345;0.0490;-0.0683;0.0356
0000182288;3.8714;-15.5432;2.0494;0.0592;-0.0628;0.0147
0000182296;4.0103;-15.5503;2.0662;0.0624;-0.0706;-0.0027
0000182307;3.8906;-15.5360;2.0614;0.0564;-0.0577;-0.0091
0000182315;3.9121;-15.6030;2.1021;0.0605;-0.0576;-0.0147
0000182323;3.8666;-15.6629;2.0758;0.0576;-0.0520;-0.0124
0000182335;4.0247;-15.6605;2.1069;0.0586;-0.0434;-0.0029
0000182343;3.8690;-15.7922;2.1572;0.0550;-0.0414;-0.0052
0000182354;3.8403;-16.0244;2.4469;0.0590;-0.0290;0.0057
0000182362;3.8259;-15.8616;2.3918;0.0691;-0.0288;-0.0032
0000182374;3.7134;-15.7586;2.3990;0.0749;-0.0173;-0.0019
0000182382;3.5769;-15.7706;2.2841;0.0819;-0.0216;-0.0124
0000182393;3.5003;-15.7538;2.3128;0.0841;-0.0129;-0.0120
0000182401;3.6176;-15.7131;2.4229;0.0905;-0.0119;-0.0184
0000182413;3.5338;-15.4929;2.4756;0.1047;-0.0113;-0.0205
0000182421;3.5434;-15.5144;2.3679;0.1135;-0.0124;-0.0199
0000182429;3.6105;-15.3684;2.3942;0.1106;-0.0085;-0.0179
0000182496;3.5578;-15.2104;2.2745;0.0200;-0.0342;0.0187
0000182504;3.4189;-15.3037;2.3104;0.0216;-0.0518;0.0116
0000182516;3.3830;-15.3373;2.3248;0.0200;-0.0576;0.0089
0000182524;3.4692;-15.2247;2.2194;0.0180;-0.0644;0.0049
0000182535;3.5362;-15.1529;2.2482;0.0228;-0.0734;0.0055
0000182543;3.5530;-15.0787;2.0901;0.0167;-0.0762;0.0047
0000182555;3.4141;-15.0308;2.1021;0.0033;-0.0719;0.0029
0000182563;3.6009;-15.0859;2.1476;-0.0081;-0.0751;-0.0011
0000182571;3.5458;-15.1649;2.1189;-0.0236;-0.0710;0.0000
0000182582;3.4812;-15.3875;2.0949;-0.0373;-0.0689;-0.0045
0000182590;3.5410;-15.4594;2.1787;-0.0322;-0.0743;-0.0119
0000182602;3.4572;-15.6629;2.1811;-0.0329;-0.0703;-0.0093
0000182610;3.6775;-15.7323;2.2362;-0.0302;-0.0665;-0.0127
0000182621;3.9049;-15.5001;2.1524;-0.0115;-0.0689;-0.0221
0000182629;3.7972;-15.4977;2.2841;-0.0005;-0.0698;-0.0300
0000182641;3.7086;-15.6054;2.2817;0.0103;-0.0726;-0.0401
0000182649;3.7828;-15.5791;2.2936;0.0089;-0.0674;-0.0454
0000182660;3.6488;-15.7371;2.3511;-0.0007;-0.0667;-0.0434
0000182668;3.7948;-15.4115;2.3870;-0.0003;-0.0718;-0.0534
0000182680;3.7900;-15.4713;2.3320;-0.0169;-0.0711;-0.0557
0000182688;3.7565;-15.5240;2.3774;-0.0224;-0.0711;-0.0593
0000182696;3.7302;-15.6509;2.3583;-0.0253;-0.0659;-0.0533
0000182763;3.8164;-15.5384;2.3559;0.0125;-0.0292;-0.0550
0000182771;3.8618;-15.4330;2.3511;0.0060;-0.0180;-0.0552
0000182783;3.9600;-15.3564;2.2889;0.0016;-0.0127;-0.0532
0000182791;4.1420;-15.2175;2.3607;0.0005;-0.0115;-0.0576
0000182802;3.9313;-15.3444;2.3272;-0.0072;-0.0119;-0.0616
0000182810;3.9337;-15.3564;2.3104;-0.0060;-0.0111;-0.0626
0000182822;3.7350;-15.4067;2.3320;-0.0132;-0.0105;-0.0538
0000182830;3.9648;-15.2415;2.2601;-0.0224;-0.0081;-0.0434
0000182842;3.7014;-15.2870;2.2386;-0.0281;-0.0061;-0.0350
0000182850;3.8331;-15.4354;2.1907;-0.0289;-0.0068;-0.0326
0000182858;3.8499;-15.5120;2.1284;-0.0300;0.0020;-0.0269
0000182869;3.6464;-15.5456;2.1548;-0.0224;0.0007;-0.0328
0000182877;3.6607;-15.5863;2.2697;-0.0282;0.0071;-0.0325
0000182889;3.6248;-15.4977;2.4253;-0.0341;0.0008;-0.0348
0000182897;3.6392;-15.4929;2.3870;-0.0425;-0.0075;-0.0326
0000182908;3.7637;-15.4067;2.2769;-0.0481;-0.0236;-0.0285
0000182916;3.7302;-15.6389;2.2936;-0.0461;-0.0421;-0.0310
0000182928;3.8259;-15.5432;2.2482;-0.0393;-0.0501;-0.0265
0000182936;3.7828;-15.4043;2.2697;-0.0462;-0.0482;-0.0199
0000182948;3.8211;-15.6006;2.2027;-0.0362;-0.0520;-0.0232
0000182956;3.9313;-15.4953;2.2410;-0.0396;-0.0522;-0.0264
0000183023;3.7493;-15.5743;2.2218;-0.0568;-0.0222;-0.0361
0000183031;3.6847;-15.5958;2.2266;-0.0540;-0.0306;-0.0401
0000183039;3.7757;-15.5575;2.2625;-0.0608;-0.0306;-0.0392
0000183050;3.8810;-15.5479;2.2601;-0.0561;-0.0336;-0.0345
0000183058;3.7948;-15.6677;2.2553;-0.0513;-0.0405;-0.0386
0000183070;3.7757;-15.7443;2.2529;-0.0370;-0.0477;-0.0366
0000183078;3.8355;-15.6964;2.3703;-0.0325;-0.0472;-0.0325
0000183089;4.0007;-15.4426;2.2362;-0.0215;-0.0472;-0.0341
0000183097;3.8164;-15.5743;2.2434;-0.0249;-0.0412;-0.0286
0000183109;3.9241;-15.4474;2.2410;-0.0292;-0.0362;-0.0321
0000183117;3.8140;-15.3971;2.2266;-0.0304;-0.0380;-0.0344
0000183128;3.6416;-15.5288;2.2673;-0.0357;-0.0436;-0.0373
0000183136;3.8044;-15.3109;2.1715;-0.0401;-0.0414;-0.0272
0000183148;3.6751;-15.5408;2.2577;-0.0526;-0.0468;-0.0289
0000183156;3.8211;-15.4067;2.2242;-0.0606;-0.0485;-0.0218
0000183164;3.7565;-15.5575;2.2936;-0.0608;-0.0542;-0.0260
0000183175;3.8738;-15.4522;2.2482;-0.0570;-0.0585;-0.0229
0000183183;3.8164;-15.5599;2.2721;-0.0556;-0.0640;-0.0232
0000183195;4.0223;-15.5839;2.1763;-0.0538;-0.0652;-0.0188
0000183203;3.7517;-15.5791;2.1668;-0.0430;-0.0661;-0.0217
0000183215;3.7757;-15.6006;2.1117;-0.0381;-0.0649;-0.0191
0000183223;3.8930;-15.4163;2.1308;-0.0481;-0.0578;-0.0172
0000183291;3.8858;-15.5192;2.2505;-0.0604;-0.0737;-0.0234
0000183299;3.9624;-15.5503;2.2242;-0.0657;-0.0799;-0.0266
0000183310;4.0199;-15.4594;2.1835;-0.0666;-0.0781;-0.0228
0000183318;3.9672;-15.6102;2.1093;-0.0673;-0.0821;-0.0184
0000183326;3.9337;-15.6844;2.0614;-0.0655;-0.0811;-0.0156
0000183338;3.9887;-15.5910;2.0375;-0.0569;-0.0721;-0.0237
0000183346;3.8451;-15.7275;2.0758;-0.0520;-0.0632;-0.0211
0000183357;3.9409;-15.6964;2.1644;-0.0374;-0.0644;-0.0270
0000183365;3.8978;-15.8233;2.1955;-0.0330;-0.0625;-0.0304
0000183377;3.8451;-15.6653;2.2266;-0.0300;-0.0649;-0.0249
0000183385;3.9600;-15.5575;2.1763;-0.0372;-0.0654;-0.0189
0000183396;3.9648;-15.6605;2.1476;-0.0340;-0.0671;-0.0195
0000183404;3.8475;-15.5575;2.1284;-0.0452;-0.0663;-0.0165
0000183416;3.9409;-15.5695;2.0423;-0.0529;-0.0633;-0.0113
0000183424;3.8690;-15.6940;1.9992;-0.0590;-0.0658;-0.0192
0000183435;4.0223;-15.6174;1.9393;-0.0636;-0.0598;-0.0149
0000183443;4.0151;-15.5958;2.0399;-0.0540;-0.0646;-0.0173
0000183451;3.6631;-15.7108;2.1332;-0.0520;-0.0653;-0.0105
0000183463;3.9552;-15.5240;2.1644;-0.0437;-0.0648;-0.0123
0000183471;3.8642;-15.6533;2.1213;-0.0416;-0.0673;-0.0145
0000183483;3.9840;-15.5312;2.0830;-0.0404;-0.0694;-0.0131
0000183491;3.9672;-15.5072;2.0279;-0.0457;-0.0600;-0.0165
0000183559;3.9911;-15.7371;2.0039;-0.0310;-0.0304;-0.0031
0000183567;4.0534;-15.6988;2.0351;-0.0294;-0.0148;-0.0019
0000183578;3.9313;-15.8400;2.0518;-0.0163;-0.0055;-0.0032
0000183586;4.0701;-15.8712;2.0782;-0.0076;0.0001;-0.0101
0000183598;4.0749;-15.7299;2.0925;-0.0009;0.0088;-0.0123
0000183606;4.2306;-15.6246;2.1308;0.0117;0.0044;-0.0200
0000183617;3.9720;-15.7323;2.1117;0.0077;0.0089;-0.0181
0000183625;4.1348;-15.4977;2.0973;0.0076;0.0101;-0.0153
0000183633;4.0438;-15.5192;2.0327;-0.0029;0.0081;-0.0187
0000183645;4.1755;-15.3947;1.9632;-0.0151;0.0117;-0.0139
0000183653;3.9600;-15.5360;1.9728;-0.0172;0.0119;-0.0167
0000183664;4.0893;-15.6102;2.0494;-0.0269;0.0172;-0.0096
0000183672;4.1875;-15.4234;2.0207;-0.0242;0.0083;-0.0105
0000183684;3.9911;-15.6988;2.1165;-0.0220;0.0123;-0.0103
0000183692;3.7900;-15.7922;1.9920;-0.0248;0.0095;-0.0061
0000183703;3.8666;-15.8927;1.9776;-0.0220;0.0171;-0.0013
0000183711;3.9241;-15.7922;1.9872;-0.0159;0.0220;0.0000
0000183719;4.0797;-15.6988;2.0614;-0.0003;0.0139;-0.0095
0000183731;3.9193;-15.7467;2.0423;0.0155;0.0226;-0.0060
0000183739;4.0582;-15.5001;2.0135;0.0294;0.0144;-0.0116
0000183751;4.0318;-15.5001;1.9178;0.0252;0.0147;-0.0093
0000183759;3.9289;-15.3804;2.0207;0.0145;0.0143;-0.0091
0000183827;4.1611;-15.7467;1.9656;-0.0461;0.0012;-0.0292
0000183835;4.1037;-15.8400;2.1021;-0.0398;0.0019;-0.0386
0000183846;4.0749;-16.1154;1.9920;-0.0261;0.0103;-0.0364
0000183854;4.1276;-16.0172;2.0901;-0.0192;0.0175;-0.0428
0000183866;4.2760;-15.8879;2.0016;-0.0004;0.0161;-0.0452
0000183874;4.2737;-15.8041;1.9010;0.0164;0.0101;-0.0469
0000183882;4.2377;-15.8568;1.8483;0.0285;0.0113;-0.0525
0000183893;4.2665;-15.6868;1.7406;0.0565;0.0089;-0.0666
0000183901;4.3120;-15.6078;1.7693;0.0835;-0.0004;-0.0922
0000183913;4.2713;-15.2104;1.7765;0.0683;-0.0007;-0.1057
0000183921;4.0462;-15.2247;1.7023;0.0472;-0.0057;-0.1120
0000183932;4.2377;-15.2319;1.8292;0.0043;-0.0068;-0.0918
0000183940;4.4101;-15.2391;1.9944;-0.0268;-0.0088;-0.0785
0000183952;4.5179;-15.5001;1.9680;-0.0482;-0.0302;-0.0699
0000183960;4.6160;-15.6892;2.1141;-0.0699;-0.0360;-0.0574
0000183971;4.8171;-15.8760;1.9273;-0.0890;-0.0418;-0.0605
0000183979;4.8171;-16.1728;1.9441;-0.1011;-0.0338;-0.0604
0000183987;4.8890;-16.2710;1.9824;-0.0923;-0.0274;-0.0686
0000183999;4.9009;-16.4290;1.8914;-0.0691;-0.0045;-0.0714
0000184007;5.0206;-16.2375;1.8459;-0.0422;0.0129;-0.0663
0000184019;5.1667;-16.2111;1.8316;-0.0095;0.0530;-0.0424
0000184027;5.3367;-15.9717;1.8364;0.0048;0.0747;-0.0234
0000184095;4.8578;-15.6700;1.4509;-0.0230;0.2306;-0.0048
0000184103;4.9249;-15.7610;1.4533;-0.0169;0.2332;-0.0036
0000184114;4.6974;-15.8951;1.4820;-0.0023;0.2372;0.0108
0000184122;4.5226;-15.8760;1.3791;0.0173;0.2330;0.0133
0000184134;4.6256;-15.6054;1.4293;0.0408;0.2209;0.0266
0000184142;4.6591;-15.5503;1.2594;0.0506;0.2054;0.0317
0000184150;4.4245;-15.5767;1.2761;0.0534;0.1871;0.0398
0000184161;4.3981;-15.7227;1.3024;0.0514;0.1712;0.0542
0000184169;4.4556;-15.6509;1.2402;0.0508;0.1593;0.0687
0000184181;4.4053;-15.6964;1.4174;0.0493;0.1537;0.0914
0000184189;4.3455;-15.8927;1.4126;0.0437;0.1639;0.1116
0000184201;4.4508;-16.0675;1.5586;0.0486;0.1635;0.1327
0000184209;4.6950;-15.9550;1.5610;0.0565;0.1588;0.1427
0000184217;4.9057;-15.9286;1.6233;0.0590;0.1671;0.1551
0000184228;4.6902;-16.0723;1.7142;0.0739;0.1483;0.1664
0000184236;4.8267;-15.9741;1.8172;0.0802;0.1404;0.1720
0000184248;5.0542;-15.7155;1.6735;0.0949;0.1148;0.1755
0000184256;4.9536;-15.6174;1.6807;0.0913;0.1106;0.1759
0000184267;4.9728;-15.4163;1.5155;0.0815;0.1106;0.1701
0000184275;4.9895;-15.3804;1.3551;0.0702;0.1216;0.1699
0000184287;5.0996;-15.3923;1.3958;0.0458;0.1342;0.1737
0000184295;5.0829;-15.3612;1.4389;0.0330;0.1504;0.1807
0000184303;4.9584;-15.5025;1.5251;0.0334;0.1732;0.1889
0000184369;5.2385;-15.8831;1.9824;0.1330;0.2450;0.2092
0000184377;5.0589;-15.5575;2.0446;0.1812;0.2212;0.1960
0000184389;4.7740;-15.0811;2.1644;0.2439;0.1749;0.1856
0000184397;4.6974;-14.7267;2.2936;0.2665;0.1298;0.1663
0000184408;4.6711;-14.3844;2.2098;0.2661;0.0630;0.1418
0000184416;4.6759;-14.0492;2.0470;0.2439;0.0207;0.1300
0000184424;4.7764;-14.0372;1.9465;0.2280;-0.0191;0.1074
0000184436;5.0182;-13.8289;1.7382;0.1941;-0.0478;0.0829
0000184444;5.0853;-13.6829;1.5467;0.1824;-0.0378;0.0777
0000184455;4.9081;-13.5799;1.5203;0.1948;-0.0096;0.0725
0000184463;5.0374;-13.4410;1.5036;0.2152;0.0128;0.0865
0000184475;5.0087;-13.4817;1.5730;0.2750;0.0488;0.1212
0000184483;5.0996;-13.5392;1.6161;0.3104;0.0629;0.1408
0000184494;5.3965;-13.3932;1.5538;0.3625;0.0653;0.1287
0000184502;5.3917;-13.4674;1.4485;0.3732;0.0681;0.1045
0000184510;5.6120;-13.4578;1.2929;0.3772;0.0745;0.0693
0000184522;5.6838;-13.4578;1.2426;0.3822;0.1156;0.0382
0000184530;5.4779;-13.6829;1.2617;0.4128;0.1491;0.0269
0000184541;5.3582;-13.6302;1.4509;0.4656;0.2050;0.0620
0000184549;4.8315;-13.5775;1.7933;0.5348;0.2269;0.0885
0000184561;4.5873;-13.3213;2.0183;0.6539;0.2265;0.1518
0000184569;4.3694;-13.1801;2.2649;0.7390;0.1884;0.1908
0000184577;4.1108;-12.9095;2.2601;0.8187;0.1212;0.2085
0000184644;5.3367;-11.6669;1.8794;1.0328;0.0521;0.0173
0000184652;5.1643;-11.6095;2.1165;1.0595;0.0502;0.0156
0000184664;5.0877;-11.3629;1.6951;1.0251;-0.0262;0.0171
0000184672;5.1020;-11.3557;1.4988;0.9467;-0.0751;0.0145
0000184683;5.2433;-11.6095;1.2426;0.8735;-0.1144;0.0258
0000184691;5.5785;-11.7364;1.1516;0.8701;-0.1046;0.0458
0000184703;5.7820;-11.9016;1.3408;0.9526;-0.0163;0.0937
0000184711;6.1723;-11.8298;1.7430;1.0415;0.0746;0.1077
0000184719;6.3207;-12.0716;2.1979;1.1390;0.1763;0.0982
0000184730;6.6487;-11.7747;2.6815;1.2161;0.2896;0.0522
0000184738;6.7588;-11.8417;2.7318;1.2053;0.3343;0.0218
0000184750;6.7325;-12.0883;1.9824;1.1126;0.3465;-0.0165
0000184758;6.7253;-12.3445;1.3838;1.0179;0.3547;-0.0466
0000184769;6.3638;-12.6965;0.7302;0.9537;0.4142;-0.0717
0000184777;6.1675;-12.5480;0.5004;0.9951;0.4772;-0.0536
0000184789;5.3702;-12.5121;1.0487;1.1397;0.6731;0.0850
0000184797;4.6878;-12.3230;1.3743;1.2514;0.8239;0.2521
0000184805;3.9145;-12.1889;1.6592;1.3737;0.9570;0.4253
0000184816;3.1843;-12.1290;2.2936;1.5016;1.0543;0.6398
0000184824;3.4955;-12.1721;2.5929;1.5027;1.0513;0.7456
0000184836;3.9480;-12.4163;2.6288;1.3896;0.8989;0.8146
0000184844;4.2162;-12.4977;2.5905;1.2736;0.7909;0.8296
0000184911;4.6471;-11.5544;6.1818;0.8384;0.4875;1.6956
0000184919;6.3829;-10.3286;14.3030;0.7055;1.0547;1.8094
0000184927;6.6295;-9.0836;25.7018;0.5027;2.1185;1.9032
0000184939;-0.5674;-9.0142;29.2308;0.1960;2.6520;1.9243
0000184947;-3.6655;-10.7883;17.1784;0.5826;2.1188;1.6947
0000184958;-1.2234;-12.9167;3.6847;1.0343;1.2782;1.3466
0000184966;1.3958;-14.1114;2.7031;0.8275;0.5137;1.3892
0000184978;7.0078;-15.9717;5.3965;-0.1451;0.0400;1.8013
0000184986;9.6869;-16.5846;2.0925;-0.7781;0.6314;1.4863
0000184997;8.8131;-18.4952;-4.7022;-1.1029;1.3109;0.4563
0000185005;9.0860;-19.7139;-6.1268;-1.1478;1.4528;-0.1292
0000185017;10.4459;-21.2988;-5.2912;-0.5883;1.6161;-0.0208
0000185025;9.6007;-21.3635;-1.9561;0.0966;2.0956;0.7504
0000185033;5.9304;-18.8759;-1.5874;0.9717;2.7657;1.8688
0000185044;3.4764;-13.3836;0.3759;2.1488;2.8671;3.1483
0000185052;2.9521;-10.3118;1.7238;2.7310;2.5253;3.6567
0000185064;4.8147;-6.5649;3.0813;3.0157;1.7777;3.8548
0000185072;6.9025;-6.0693;2.0973;2.8232;1.1014;3.8044
0000185084;10.2472;-4.8387;5.1212;2.0968;0.6367;3.5397
0000185092;10.2065;-4.1396;16.3093;1.4268;1.6156;3.4478
0000185100;2.8874;-3.5626;34.9913;0.4391;4.3656;3.7006
0000185112;-36.3344;-23.4368;-5.2768;0.7946;4.3656;4.3656
0000185120;-48.4347;-25.3618;-9.6606;1.2592;4.3656;4.3656
0000185188;-23.2549;9.6869;7.0605;0.4658;4.1021;1.1983
0000185196;-13.3644;5.5641;-1.5730;0.9706;3.4530;2.0600
0000185208;-4.8291;-0.0335;-7.1156;1.2573;2.6620;2.8441
0000185216;-3.3112;-5.1499;-9.6965;0.5878;1.8254;2.8362
0000185227;-0.1724;-7.9871;-12.5959;-0.8531;0.7627;2.2314
0000185235;2.4708;-7.3861;-11.3581;-1.5487;0.7885;1.6523
0000185247;5.2409;-4.9656;-7.4412;-1.6763;1.0441;1.6213
0000185255;6.2728;-3.3854;-5.5881;-1.5436;1.2453;1.9445
0000185263;6.8211;-2.4756;-4.6831;-1.3940;1.5656;2.2127
0000185274;4.8530;-2.0710;-5.2960;-1.2987;1.9933;2.3971
0000185282;1.0343;-1.8292;-6.8019;-1.0813;2.2128;2.2429
0000185294;-4.9919;-1.1827;-8.8370;-0.6562;2.0436;1.8267
0000185302;-7.8697;-1.3312;-10.6398;-0.4538;1.6899;1.6319
0000185313;-9.1770;-1.1396;-11.7292;-0.4571;1.2368;1.5038
0000185321;-9.0405;-1.1492;-10.5776;-0.7917;0.8504;1.3696
0000185333;-7.4029;-1.2522;-8.1642;-1.3125;0.1591;0.8981
0000185341;-6.6080;-1.6065;-6.5553;-1.3559;-0.2216;0.5047
0000185352;-4.8387;-2.3894;-5.6120;-1.0636;-0.5786;-0.0200
0000185360;-3.3591;-3.3567;-5.4133;-0.7851;-0.7777;-0.2980
0000185368;-2.4229;-4.0127;-5.2648;-0.5825;-0.8785;-0.4578
0000185380;-1.8100;-4.0342;-4.3814;-0.4860;-0.8140;-0.5926
0000185388;-1.4198;-3.3902;-3.6176;-0.5331;-0.6099;-0.7702
0000185456;-1.2617;-1.6951;-3.2968;0.2754;-0.3376;-0.0833
0000185464;-2.4325;-1.0463;-3.0239;0.3601;-0.4293;0.0558
0000185476;-3.9121;-0.5746;-3.5147;0.3616;-0.3894;0.1112
0000185484;-4.0079;-0.7087;-3.6775;0.2892;-0.3328;0.0849
0000185495;-3.3782;-1.2115;-3.7206;0.1456;-0.2826;0.0128
0000185503;-2.9042;-1.8340;-3.5458;0.0516;-0.2922;-0.0298
0000185515;-2.2649;-2.2362;-3.3088;0.0217;-0.4000;-0.1136
0000185523;-2.1524;-2.4828;-2.9640;0.0237;-0.4820;-0.2068
0000185535;-2.0327;-2.8443;-2.9090;0.0540;-0.5973;-0.4001
0000185543;-2.3176;-3.1077;-2.7294;0.0843;-0.6714;-0.5337
0000185551;-2.4134;-3.1005;-2.6121;0.1051;-0.7252;-0.6348
0000185563;-2.7677;-3.4213;-2.6025;0.1144;-0.7528;-0.7638
0000185571;-3.1843;-3.5338;-2.4756;0.0854;-0.7759;-0.8374
0000185583;-3.5745;-3.8571;-2.2960;-0.0224;-0.7851;-0.9128
0000185591;-3.4620;-4.0773;-2.1500;-0.1085;-0.7963;-0.9639
0000185603;-3.5865;-4.3479;-2.0566;-0.2210;-0.8074;-1.0148
0000185611;-3.6990;-4.6567;-2.0590;-0.2687;-0.8104;-1.0353
0000185623;-4.0725;-5.2936;-2.0686;-0.3099;-0.8636;-1.0603
0000185631;-3.8403;-5.4061;-2.0063;-0.3171;-0.9074;-1.0698
0000185698;-3.4931;-6.3327;-1.6927;-0.4679;-1.1614;-0.7963
0000185706;-3.5602;-6.4811;-1.4820;-0.4791;-1.1816;-0.7814
0000185718;-3.2106;-6.4572;-1.2570;-0.4848;-1.2311;-0.7498
0000185726;-3.2370;-5.7533;-0.2035;-0.4088;-1.2412;-0.6107
0000185737;-4.8746;-4.3766;4.4293;-0.7598;-1.1977;-0.6213
0000185745;-5.2074;-3.0382;6.5697;-1.3678;-1.1490;-0.8342
0000185753;-4.8937;-2.9568;6.9312;-1.9139;-0.9437;-0.9228
0000185765;-3.7158;-5.8155;2.1596;-2.1480;-0.7580;-0.8368
0000185773;-2.4995;-7.5609;-0.6656;-1.7778;-0.7837;-0.7300
0000185785;-1.8483;-9.0046;-0.8428;-1.1009;-0.8283;-0.5044
0000185793;-1.0870;-8.7460;0.0527;-0.7837;-0.8011;-0.1916
0000185805;0.4286;-8.5329;1.4246;-0.5287;-0.6510;0.3627
0000185813;0.3950;-8.8490;1.7430;-0.4862;-0.4298;0.6671
0000185825;-0.9577;-9.2775;1.6113;-0.6443;-0.0245;0.8645
0000185833;-2.5881;-9.5002;1.0199;-0.7528;0.1824;0.7878
0000185845;-5.1882;-9.9886;-0.0670;-0.7927;0.2341;0.4716
0000185853;-5.8826;-10.1394;-0.4166;-0.6169;0.1190;0.2209
0000185861;-5.8778;-9.9766;-0.2993;-0.3172;0.0027;0.0225
0000185873;-4.2066;-8.9974;-0.1987;0.1078;-0.0833;-0.0542
0000185881;-3.3351;-8.4874;0.8787;0.2598;-0.0654;0.0293
0000185893;-3.2106;-7.4771;0.9960;0.2900;-0.0036;0.1103
0000185901;-3.5889;-6.9360;0.8811;0.3340;0.0300;0.1487
0000185969;-3.6655;-5.6671;-0.2107;0.0702;-0.1488;-0.0317
0000185977;-3.5171;-5.7030;-0.2227;-0.0648;-0.2150;-0.0095
0000185989;-3.6464;-6.0406;0.0982;-0.2466;-0.2855;0.0238
0000185997;-3.7972;-6.2225;0.2849;-0.3864;-0.3019;0.0731
0000186009;-3.7445;-6.6224;0.4286;-0.5717;-0.2895;0.1919
0000186017;-4.0079;-7.0629;0.2921;-0.6558;-0.2920;0.2882
0000186025;-3.9241;-7.4172;0.1077;-0.6788;-0.3194;0.3777
0000186037;-3.8738;-7.7021;0.1820;-0.6077;-0.3512;0.5157
0000186045;-3.8020;-7.9871;0.4262;-0.5084;-0.3683;0.5917
0000186057;-2.7821;-8.1331;0.7230;-0.3167;-0.3837;0.6374
0000186065;-2.2003;-7.8650;0.7877;-0.1555;-0.3519;0.5993
0000186077;-2.5091;-7.4747;0.9720;0.1454;-0.2959;0.5053
0000186085;-2.8084;-6.8905;1.0343;0.3373;-0.2598;0.4526
0000186097;-3.5195;-5.8897;0.9864;0.5518;-0.2229;0.3593
0000186105;-3.5554;-5.2625;0.8428;0.6239;-0.1996;0.2864
0000186113;-3.8235;-4.9368;0.6823;0.6555;-0.1753;0.2208
0000186125;-3.7421;-4.4676;0.4381;0.5997;-0.1523;0.1410
0000186133;-3.7852;-4.4317;0.4693;0.5037;-0.1434;0.0951
0000186145;-3.8427;-4.0510;0.2634;0.3304;-0.1414;0.0266
0000186153;-3.9959;-4.2329;0.2921;0.2013;-0.1474;-0.0185
0000186165;-3.7445;-4.3335;0.2945;0.0065;-0.1617;-0.0743
0000186173;-3.7517;-4.6352;0.3448;-0.1100;-0.1697;-0.1042
0000186240;-2.9161;-6.8594;1.6688;-0.2686;-0.0670;-0.0564
0000186248;-2.9425;-6.9432;1.9058;-0.1876;-0.0520;-0.0389
0000186260;-2.9449;-6.9216;1.7933;-0.0465;-0.0159;-0.0151
0000186268;-3.1196;-6.9216;1.6496;0.0361;0.0099;-0.0036
0000186276;-3.3710;-6.7540;1.5538;0.1128;0.0308;0.0051
0000186288;-3.3686;-6.2489;1.1899;0.1981;0.0661;0.0064
0000186296;-3.5171;-5.9927;1.1516;0.2240;0.0863;0.0061
0000186308;-3.6655;-5.5881;1.0247;0.2228;0.1051;-0.0084
0000186316;-3.6966;-5.5809;0.8068;0.1982;0.1170;-0.0161
0000186328;-3.6919;-5.5091;0.6105;0.1475;0.1267;-0.0398
0000186336;-3.6105;-5.4779;0.5291;0.1047;0.1192;-0.0577
0000186348;-3.5913;-5.5569;0.4357;0.0418;0.1159;-0.0770
0000186356;-3.6823;-5.5330;0.3591;-0.0001;0.1021;-0.0925
0000186364;-3.6200;-5.8275;0.3926;-0.0301;0.0919;-0.0930
0000186376;-3.6847;-6.0525;0.4262;-0.0545;0.0815;-0.0993
0000186384;-3.8211;-6.2489;0.5363;-0.0598;0.0843;-0.0926
0000186396;-3.5889;-6.2944;0.4669;-0.0421;0.0710;-0.0846
0000186404;-3.7326;-6.3279;0.5555;-0.0173;0.0642;-0.0779
0000186416;-3.6727;-6.3973;0.5315;0.0301;0.0553;-0.0669
0000186424;-3.6943;-6.4380;0.6225;0.0526;0.0545;-0.0578
0000186436;-3.6344;-6.2153;0.5746;0.0770;0.0469;-0.0496
0000186444;-3.4979;-6.0741;0.5267;0.0942;0.0370;-0.0412
0000186452;-3.7637;-6.1986;0.4836;0.0966;0.0289;-0.0405
0000186521;-3.5195;-6.0047;0.5914;-0.0075;-0.0493;-0.0168
0000186530;-3.5147;-6.0142;0.5698;-0.0075;-0.0601;-0.0185
0000186543;-3.6176;-5.9448;0.6129;-0.0137;-0.0691;-0.0233
0000186552;-3.5626;-5.9999;0.5243;-0.0313;-0.0612;-0.0141
0000186565;-3.4213;-5.9328;0.6009;-0.0344;-0.0585;-0.0076
0000186574;-3.5626;-6.1268;0.5890;-0.0333;-0.0710;-0.0067
0000186587;-3.8283;-6.3015;0.5052;-0.0302;-0.0730;0.0003
0000186596;-3.5578;-6.2632;0.4884;-0.0301;-0.0730;0.0080
0000186609;-3.5769;-6.2010;0.6393;-0.0161;-0.0814;0.0119
0000186618;-3.4788;-6.0932;0.6249;-0.0133;-0.0778;0.0230
0000186631;-3.6464;-6.1316;0.6800;0.0037;-0.0853;0.0212
0000186640;-3.6607;-6.1866;0.6752;0.0023;-0.0797;0.0264
0000186649;-3.4405;-5.8682;0.7183;0.0047;-0.0862;0.0220
0000186662;-3.5338;-6.0238;0.6823;0.0081;-0.0874;0.0147
0000186671;-3.4692;-5.9999;0.6273;-0.0045;-0.0838;0.0151
0000186684;-3.6368;-5.9687;0.5962;-0.0089;-0.0894;0.0021
0000186693;-3.5698;-5.9951;0.7350;-0.0220;-0.0822;0.0081
0000186706;-3.3471;-5.9328;0.7614;-0.0337;-0.0825;0.0067
0000186715;-3.5171;-6.1339;0.7111;-0.0324;-0.0819;-0.0001
0000186728;-3.4860;-6.0908;0.7230;-0.0230;-0.0779;-0.0024
0000186737;-3.4333;-6.1076;0.8475;-0.0217;-0.0659;0.0001
0000186746;-3.3950;-5.9903;0.7254;-0.0059;-0.0683;-0.0085
0000186814;-3.4117;-5.9544;0.7374;0.0093;-0.0300;-0.0124
0000186823;-3.3543;-5.8945;0.6871;0.0077;-0.0217;-0.0176
0000186836;-3.5434;-6.0238;0.7063;0.0023;-0.0212;-0.0160
0000186845;-3.6464;-6.0765;0.7997;0.0108;-0.0252;-0.0266
0000186858;-3.4022;-5.9687;0.7781;0.0091;-0.0149;-0.0237
0000186867;-3.4740;-6.0597;0.7901;0.0125;-0.0262;-0.0325
0000186880;-3.5650;-6.0334;0.7063;0.0183;-0.0211;-0.0272
0000186889;-3.5961;-5.8993;0.6823;0.0116;-0.0152;-0.0264
0000186902;-3.7158;-5.9927;0.6393;0.0129;-0.0164;-0.0266
0000186911;-3.7014;-6.0908;0.6225;0.0049;-0.0238;-0.0252
0000186920;-3.6176;-5.9807;0.6728;0.0024;-0.0236;-0.0188
0000186933;-3.6152;-6.1148;0.7566;-0.0123;-0.0252;-0.0181
0000186942;-3.6512;-6.1292;0.8404;-0.0039;-0.0326;-0.0217
0000186958;-3.7541;-6.1124;0.7111;-0.0005;-0.0302;-0.0260
0000186967;-3.4979;-5.9496;0.6416;-0.0005;-0.0260;-0.0187
0000186980;-3.4812;-6.0932;0.6057;0.0044;-0.0285;-0.0205
0000186989;-3.5003;-6.0669;0.5674;0.0027;-0.0397;-0.0260
0000187001;-3.6272;-6.1339;0.6440;-0.0053;-0.0401;-0.0115
0000187010;-3.5721;-6.1890;0.6871;-0.0029;-0.0497;-0.0097
0000187079;-3.7948;-6.0214;0.6704;0.0136;-0.0593;0.0117
0000187088;-3.6966;-5.8634;0.6704;0.0012;-0.0597;0.0120
0000187097;-3.5243;-5.8658;0.6416;-0.0055;-0.0650;0.0028
0000187109;-3.6440;-5.9759;0.6704;-0.0152;-0.0685;-0.0023
0000187118;-3.5003;-5.8442;0.7063;-0.0274;-0.0669;-0.0064
0000187131;-3.6152;-5.9209;0.6967;-0.0332;-0.0683;-0.0105
0000187140;-3.5985;-5.9759;0.7877;-0.0388;-0.0648;-0.0076
0000187152;-3.5386;-6.0286;0.7374;-0.0310;-0.0642;-0.0059
0000187161;-3.5626;-6.1268;0.7302;-0.0189;-0.0673;-0.0060
0000187174;-3.5434;-6.1699;0.8260;-0.0164;-0.0645;0.0029
0000187183;-3.6344;-6.1675;0.8164;-0.0196;-0.0586;0.0069
0000187195;-3.4141;-5.9424;0.7494;-0.0073;-0.0620;0.0036
0000187204;-3.5243;-6.0142;0.7709;-0.0093;-0.0626;0.0017
0000187217;-3.3902;-5.8730;0.8404;-0.0021;-0.0593;-0.0027
0000187226;-3.4620;-5.9328;0.7278;-0.0128;-0.0529;-0.0013
0000187235;-3.5267;-5.9999;0.7614;-0.0095;-0.0524;-0.0033
0000187247;-3.3136;-5.9568;0.8835;-0.0107;-0.0541;-0.0068
0000187256;-3.7302;-6.0837;0.7446;-0.0229;-0.0437;-0.0001
0000187269;-3.4069;-5.9640;0.8332;-0.0208;-0.0448;-0.0060
0000187278;-3.6224;-6.1268;0.8475;-0.0143;-0.0402;-0.0040
0000187290;-3.4979;-6.0454;0.8212;-0.0125;-0.0370;-0.0025
0000187299;-3.3878;-5.9544;0.8045;-0.0059;-0.0384;-0.0084
0000187368;-3.5003;-5.9089;0.7949;-0.0148;-0.0385;-0.0171
0000187377;-3.5698;-6.0118;0.7781;-0.0076;-0.0430;-0.0148
0000187389;-3.4333;-5.9424;0.7997;-0.0125;-0.0418;-0.0123
0000187398;-3.5195;-6.0621;0.7685;-0.0101;-0.0428;-0.0137
0000187411;-3.6416;-6.0286;0.7973;-0.0076;-0.0461;-0.0081
0000187420;-3.5051;-5.9759;0.8092;-0.0061;-0.0438;-0.0072
0000187429;-3.8068;-6.1603;0.8452;-0.0019;-0.0442;-0.0072
0000187441;-3.7086;-6.0406;0.8068;0.0001;-0.0441;-0.0064
0000187450;-3.5913;-6.0885;0.7566;-0.0036;-0.0481;-0.0112
0000187463;-3.4979;-5.9927;0.7566;0.0007;-0.0473;-0.0036
0000187472;-3.3567;-5.9352;0.8212;-0.0003;-0.0568;-0.0083
0000187484;-3.4453;-6.0956;0.7542;-0.0001;-0.0610;-0.0065
0000187493;-3.6775;-6.1746;0.7949;-0.0076;-0.0601;0.0020
0000187506;-3.4596;-5.9113;0.8452;-0.0025;-0.0637;0.0021
0000187515;-3.6966;-6.0717;0.7542;-0.0057;-0.0578;0.0080
0000187527;-3.6248;-6.0525;0.8045;0.0003;-0.0644;0.0033
0000187536;-3.6105;-6.0813;0.7614;-0.0016;-0.0618;0.0088
0000187545;-3.8690;-6.1268;0.7805;-0.0016;-0.0638;0.0125
0000187558;-3.6272;-5.9400;0.7638;-0.0089;-0.0673;0.0044
0000187567;-3.4860;-5.9544;0.7805;-0.0089;-0.0767;-0.0012
0000187579;-3.5889;-5.9999;0.7183;-0.0165;-0.0723;-0.0088
0000187588;-3.5434;-5.9520;0.8284;-0.0272;-0.0699;-0.0025
0000187657;-3.5243;-5.9687;0.9026;-0.0240;-0.0546;-0.0035
0000187666;-3.4620;-5.9568;0.8787;-0.0228;-0.0534;-0.0057
0000187678;-3.5554;-6.0214;0.8859;-0.0124;-0.0552;-0.0093
0000187687;-3.5434;-5.9424;0.8164;-0.0160;-0.0500;-0.0048
0000187700;-3.6272;-6.0430;0.8356;-0.0171;-0.0485;-0.0041
0000187709;-3.3854;-5.9304;0.8882;-0.0133;-0.0593;-0.0055
0000187721;-3.5314;-6.0238;0.8882;-0.0159;-0.0480;-0.0017
0000187730;-3.3878;-5.8897;1.0008;-0.0144;-0.0486;-0.0021
0000187739;-3.4788;-5.9568;0.8499;-0.0105;-0.0462;-0.0021
0000187752;-3.4931;-5.9568;0.8763;-0.0079;-0.0430;-0.0011
0000187761;-3.6081;-6.0478;0.8380;-0.0008;-0.0393;-0.0057
0000187773;-3.4931;-5.8490;0.9505;-0.0008;-0.0421;-0.0121
0000187782;-3.4788;-5.7533;0.9098;-0.0117;-0.0344;-0.0064
0000187795;-3.6272;-5.9137;0.8859;-0.0168;-0.0338;-0.0144
0000187804;-3.5865;-5.8826;0.9050;-0.0176;-0.0314;-0.0165
0000187816;-3.4429;-5.8826;0.8428;-0.0192;-0.0294;-0.0163
0000187825;-3.7206;-6.0908;0.9026;-0.0085;-0.0353;-0.0264
0000187838;-3.5937;-6.0693;0.7877;-0.0112;-0.0350;-0.0237
0000187847;-3.4931;-5.9496;0.9242;-0.0155;-0.0285;-0.0203
0000187856;-3.4931;-5.9256;0.8236;-0.0123;-0.0394;-0.0236
0000187868;-3.5889;-6.0717;0.8882;-0.0148;-0.0421;-0.0192
0000187877;-3.6081;-6.1004;0.9744;-0.0180;-0.0376;-0.0141
0000187945;-3.5769;-5.9807;0.9337;-0.0139;-0.0357;-0.0073
0000187954;-3.3998;-5.9280;0.9194;-0.0167;-0.0396;-0.0073
0000187966;-3.4644;-5.9256;0.9026;-0.0172;-0.0360;-0.0012
0000187975;-3.3902;-5.8849;0.8811;-0.0187;-0.0369;-0.0051
0000187988;-3.5003;-6.0238;0.8643;-0.0088;-0.0413;-0.0053
0000187997;-3.5171;-6.0478;0.8882;-0.0040;-0.0406;0.0009
0000188009;-3.5482;-5.9017;0.8068;-0.0012;-0.0477;-0.0008
0000188018;-3.7373;-5.9472;0.8380;-0.0073;-0.0436;0.0004
0000188031;-3.5506;-5.9544;0.8906;-0.0072;-0.0476;-0.0064
0000188040;-3.6152;-6.0118;0.9290;0.0000;-0.0498;-0.0113
0000188049;-3.2633;-5.7868;0.8930;-0.0033;-0.0490;-0.0119
0000188061;-3.5123;-5.8083;0.9337;0.0029;-0.0470;-0.0183
0000188070;-3.3112;-5.8323;0.8499;-0.0043;-0.0402;-0.0167
0000188083;-3.4237;-5.8945;0.9481;-0.0084;-0.0460;-0.0165
0000188092;-3.4093;-5.8969;0.8691;-0.0003;-0.0437;-0.0200
0000188104;-3.4644;-5.9783;0.9170;-0.0085;-0.0444;-0.0147
0000188113;-3.3543;-5.8706;0.9218;-0.0083;-0.0406;-0.0183
0000188126;-3.4477;-5.9137;1.0151;-0.0073;-0.0346;-0.0125
0000188135;-3.3255;-5.8179;0.8428;-0.0021;-0.0349;-0.0112
0000188147;-3.4117;-5.9304;0.9098;0.0068;-0.0358;-0.0155
0000188156;-3.7326;-6.1746;0.9337;0.0009;-0.0302;-0.0088
0000188225;-3.6631;-6.0932;0.8930;0.0060;-0.0472;-0.0029
0000188234;-3.4357;-5.9735;0.9505;0.0221;-0.0520;-0.0080
0000188241;-3.5554;-5.9424;1.0127;0.0205;-0.0561;-0.0051
0000188252;-3.4333;-5.8586;0.9290;0.0184;-0.0446;-0.0071
0000188260;-3.4979;-5.8610;0.8523;0.0113;-0.0444;-0.0048
0000188272;-3.6440;-5.9975;0.9936;0.0059;-0.0452;-0.0133
0000188280;-3.4189;-5.7892;0.9409;0.0064;-0.0440;-0.0205
0000188291;-3.3160;-5.7174;0.9625;-0.0040;-0.0394;-0.0180
0000188299;-3.5171;-5.8251;0.8667;0.0003;-0.0381;-0.0305
0000188311;-3.4644;-5.8299;0.8619;-0.0089;-0.0402;-0.0294
0000188319;-3.4165;-5.9783;0.9146;-0.0140;-0.0334;-0.0252
0000188330;-3.4812;-5.9424;0.9313;-0.0211;-0.0346;-0.0272
0000188338;-3.5626;-5.9999;0.9194;-0.0250;-0.0392;-0.0252
0000188346;-3.6272;-6.0358;0.9601;-0.0212;-0.0396;-0.0233
0000188358;-3.3806;-6.0142;0.9649;-0.0176;-0.0389;-0.0225
