time;acc_x;acc_y;acc_z;gyro_x;gyro_y;gyro_z
0000412300;5.9089;-16.0842;0.4764;0.0927;-0.2485;-0.0244
0000412308;5.6551;-16.2782;0.6249;0.0913;-0.2590;-0.0348
0000412315;5.8897;-16.2207;0.6464;0.0985;-0.2665;-0.0456
0000412323;5.8538;-16.2686;0.6823;0.1055;-0.2593;-0.0497
0000412332;6.0358;-16.1513;0.6919;0.1164;-0.2575;-0.0625
0000412340;6.1627;-15.9621;0.7207;0.1099;-0.2429;-0.0637
0000412352;6.4021;-15.7467;0.7254;0.0905;-0.2169;-0.0726
0000412360;6.1555;-15.9406;0.7039;0.0814;-0.2100;-0.0753
0000412368;6.5027;-15.8257;0.7374;0.0576;-0.1899;-0.0714
0000412379;6.6152;-15.6820;0.6967;0.0316;-0.1712;-0.0714
0000412387;6.4332;-15.9645;0.7709;0.0135;-0.1495;-0.0653
0000412455;5.9640;-16.3309;0.8045;0.0095;-0.0715;-0.0564
0000412463;6.1770;-16.2447;0.7997;0.0265;-0.0715;-0.0573
0000412474;6.1746;-16.2518;0.8164;0.0545;-0.0662;-0.0521
0000412482;6.2417;-16.1968;0.9313;0.0616;-0.0493;-0.0418
0000412494;6.0837;-16.2542;0.9457;0.0718;-0.0266;-0.0333
0000412502;6.4452;-16.0866;1.0726;0.0659;-0.0127;-0.0309
0000412513;6.1723;-16.0340;1.0989;0.0530;0.0088;-0.0328
0000412521;6.0861;-15.9813;1.1468;0.0448;0.0107;-0.0404
0000412529;6.2273;-15.9286;1.2091;0.0397;0.0171;-0.0440
0000412541;6.3351;-15.8329;1.2067;0.0159;0.0212;-0.0341
0000412549;6.2944;-15.9837;1.1947;0.0024;0.0139;-0.0350
0000412560;6.2513;-15.9717;1.1899;-0.0274;0.0209;-0.0149
0000412568;6.2201;-15.9286;1.0487;-0.0508;0.0222;-0.0115
0000412580;6.2560;-15.9310;0.9888;-0.0636;0.0277;-0.0063
0000412588;6.0454;-16.0962;1.0247;-0.0726;0.0318;-0.0036
0000412599;5.8897;-16.2590;0.8859;-0.0671;0.0293;-0.0116
0000412607;5.9783;-16.2806;0.8452;-0.0564;0.0145;-0.0143
0000412619;5.8945;-16.3380;0.8164;-0.0385;-0.0065;-0.0164
0000412627;5.7078;-16.4721;0.6776;-0.0163;-0.0276;-0.0225
0000412635;5.9424;-16.3739;0.6895;-0.0059;-0.0389;-0.0189
0000412646;5.7844;-16.4410;0.6321;-0.0029;-0.0472;-0.0168
0000412654;5.8538;-16.4482;0.5267;0.0035;-0.0520;-0.0179
0000412722;5.9783;-15.8233;0.8380;0.0115;-0.0814;-0.0163
0000412730;5.9544;-15.8712;0.7877;0.0023;-0.0826;-0.0200
0000412741;6.1172;-15.8233;0.7805;0.0036;-0.0839;-0.0290
0000412749;6.3111;-15.9597;0.7135;-0.0019;-0.0759;-0.0349
0000412761;6.2106;-16.2111;0.7518;-0.0108;-0.0649;-0.0284
0000412769;6.1363;-16.2040;0.8763;-0.0133;-0.0540;-0.0185
0000412780;6.2872;-16.2614;0.8452;-0.0173;-0.0313;-0.0119
0000412788;6.2608;-16.2279;0.9002;-0.0188;-0.0257;-0.0135
0000412796;6.1914;-16.3787;0.9337;-0.0245;-0.0100;-0.0143
0000412808;6.2800;-16.2279;0.9170;-0.0252;0.0056;-0.0123
0000412816;6.2513;-16.3380;0.9720;-0.0298;0.0248;-0.0143
0000412827;6.1723;-16.1776;0.8978;-0.0261;0.0360;-0.0211
0000412835;6.2489;-16.1609;1.0271;-0.0288;0.0434;-0.0241
0000412847;6.1699;-16.1154;0.9457;-0.0333;0.0560;-0.0176
0000412855;6.1651;-16.0699;0.9768;-0.0390;0.0562;-0.0157
0000412866;6.1675;-15.9526;0.8116;-0.0477;0.0602;-0.0109
0000412874;6.1028;-15.9741;0.8571;-0.0530;0.0644;-0.0088
0000412886;6.0286;-16.0124;0.9074;-0.0572;0.0513;-0.0129
0000412894;5.8131;-16.0842;0.8906;-0.0508;0.0454;-0.0165
0000412902;5.7964;-16.1872;0.8643;-0.0484;0.0396;-0.0197
0000412914;6.0813;-16.1561;0.9409;-0.0572;0.0313;-0.0125
0000412922;5.9927;-16.2087;0.8954;-0.0637;0.0397;-0.0012
0000412990;5.9664;-16.0747;0.9098;-0.0374;0.0409;0.0004
0000412998;5.9664;-16.1226;1.1325;-0.0372;0.0356;-0.0024
0000413009;5.8730;-16.1585;1.0534;-0.0476;0.0400;0.0112
0000413017;5.9089;-16.0483;1.0582;-0.0466;0.0292;0.0173
0000413029;5.9400;-15.9382;0.9625;-0.0561;0.0349;0.0229
0000413037;5.8802;-16.1345;1.0032;-0.0594;0.0265;0.0201
0000413045;5.7700;-16.0412;0.9960;-0.0670;0.0280;0.0185
0000413056;5.8969;-16.0842;1.0127;-0.0765;0.0296;0.0220
0000413064;5.8323;-16.1752;0.9409;-0.0745;0.0237;0.0152
0000413076;5.9113;-16.1992;0.8284;-0.0713;0.0191;0.0081
0000413084;5.9592;-16.1872;0.9098;-0.0753;0.0230;0.0099
0000413095;5.9951;-16.1776;1.0175;-0.0679;0.0175;-0.0011
0000413103;5.9209;-16.1561;0.9026;-0.0685;0.0230;0.0011
0000413115;5.8562;-16.0651;0.9960;-0.0570;0.0272;0.0092
0000413123;5.7916;-16.1680;0.9553;-0.0484;0.0148;0.0051
0000413134;5.8682;-16.0531;0.8715;-0.0433;0.0116;0.0068
0000413142;5.9855;-15.9909;0.8523;-0.0408;0.0044;0.0093
0000413150;6.0765;-15.7706;0.9409;-0.0470;0.0089;0.0192
0000413162;5.7868;-16.0819;0.8859;-0.0517;0.0056;0.0159
0000413170;5.9520;-16.0220;0.9098;-0.0598;0.0127;0.0199
0000413182;5.9855;-16.1537;0.8930;-0.0546;0.0061;0.0173
0000413190;5.8634;-16.3021;0.7949;-0.0494;-0.0043;0.0192
0000413258;5.8993;-16.4482;0.8260;0.0301;-0.0226;0.0157
0000413266;6.0789;-16.3141;0.8164;0.0381;-0.0256;0.0113
0000413277;6.0597;-16.2806;0.8954;0.0480;-0.0181;0.0037
0000413285;5.9352;-16.3859;0.8116;0.0560;-0.0211;0.0035
0000413293;5.8873;-16.3883;0.7997;0.0674;-0.0191;-0.0036
0000413305;5.8993;-16.3117;0.9026;0.0730;-0.0181;0.0000
0000413313;5.9209;-16.2351;0.8978;0.0762;-0.0156;0.0004
0000413324;6.1244;-16.0028;0.9266;0.0702;-0.0199;-0.0047
0000413332;6.1124;-15.8329;0.8930;0.0580;-0.0128;-0.0001
0000413344;6.0908;-15.8041;0.8787;0.0409;-0.0208;-0.0017
0000413352;6.0142;-15.8879;0.8763;0.0341;-0.0284;-0.0116
0000413363;5.8323;-15.8903;0.9266;0.0241;-0.0288;-0.0192
0000413371;6.1004;-15.8712;0.7877;0.0147;-0.0257;-0.0207
0000413379;5.9065;-16.1489;0.8739;0.0104;-0.0218;-0.0218
0000413391;5.9568;-16.0651;0.8188;0.0171;-0.0245;-0.0218
0000413399;5.9280;-16.2303;0.7518;0.0272;-0.0266;-0.0246
0000413410;6.0071;-16.1369;0.8763;0.0340;-0.0238;-0.0257
0000413418;6.1004;-16.1273;0.8499;0.0302;-0.0168;-0.0208
0000413430;5.9424;-16.2183;0.8068;0.0318;-0.0149;-0.0172
0000413438;6.0741;-16.0459;0.8787;0.0244;-0.0052;-0.0147
0000413450;5.9687;-16.1130;0.9601;0.0177;-0.0107;-0.0124
0000413458;6.0358;-15.8975;0.8428;0.0160;-0.0105;-0.0172
0000413525;5.8849;-16.2758;0.8547;0.0164;-0.0597;-0.0123
0000413533;6.0286;-15.9597;0.8787;0.0148;-0.0566;-0.0180
0000413541;6.1244;-16.1369;0.8859;-0.0029;-0.0402;-0.0111
0000413552;6.2752;-16.1561;0.8882;-0.0017;-0.0350;-0.0119
0000413560;6.0047;-16.2997;0.7757;-0.0084;-0.0180;-0.0096
0000413572;6.0956;-16.1417;0.8260;-0.0039;-0.0157;-0.0116
0000413580;6.1651;-16.1585;0.8260;0.0064;-0.0230;-0.0100
0000413591;6.0262;-16.1034;0.8787;0.0037;-0.0232;-0.0189
0000413599;5.9616;-16.1273;0.8859;0.0044;-0.0204;-0.0167
0000413611;6.0262;-15.9813;0.8284;-0.0111;-0.0205;-0.0276
0000413619;5.8562;-15.9190;0.7542;-0.0155;-0.0277;-0.0352
0000413630;5.9448;-15.9454;0.8475;-0.0301;-0.0244;-0.0353
0000413638;5.9496;-15.9143;0.7614;-0.0328;-0.0253;-0.0385
0000413650;5.8730;-16.0148;0.7709;-0.0402;-0.0336;-0.0350
0000413658;6.0406;-15.9693;0.8571;-0.0396;-0.0442;-0.0406
0000413666;5.9137;-16.1585;0.8284;-0.0441;-0.0425;-0.0310
0000413678;6.0310;-16.1585;0.7781;-0.0465;-0.0453;-0.0292
0000413686;6.1268;-16.0555;0.8667;-0.0538;-0.0340;-0.0201
0000413697;5.9424;-16.2207;0.8308;-0.0582;-0.0353;-0.0181
0000413705;5.9328;-16.2255;0.9242;-0.0609;-0.0376;-0.0228
0000413717;5.9711;-16.0723;0.9218;-0.0638;-0.0444;-0.0301
0000413725;5.7581;-16.1393;0.9098;-0.0715;-0.0513;-0.0260
0000413793;5.6599;-16.2901;1.0199;-0.0374;-0.1478;-0.0414
0000413801;5.7748;-16.1800;0.9553;-0.0322;-0.1628;-0.0505
0000413813;5.5785;-16.3332;0.9481;-0.0326;-0.1820;-0.0481
0000413821;5.6982;-16.1249;0.8691;-0.0253;-0.1944;-0.0473
0000413832;5.8442;-16.0172;0.8188;-0.0274;-0.2176;-0.0366
0000413840;5.7820;-16.1226;0.8643;-0.0261;-0.2266;-0.0225
0000413848;5.7174;-16.0220;0.8380;-0.0200;-0.2410;-0.0179
0000413860;5.8538;-16.1034;0.7805;-0.0103;-0.2559;-0.0109
0000413868;5.8873;-16.2064;0.8356;-0.0045;-0.2587;0.0019
0000413879;5.7461;-16.2040;0.8643;-0.0024;-0.2758;0.0033
0000413887;5.7700;-16.1872;0.7853;-0.0143;-0.2790;0.0032
0000413899;5.9520;-16.0507;0.9170;-0.0116;-0.2864;0.0109
0000413907;5.8897;-16.1345;0.7614;-0.0129;-0.2932;0.0076
0000413918;5.9807;-16.0890;0.8547;-0.0109;-0.2958;0.0085
0000413926;5.8945;-16.1249;0.9074;-0.0075;-0.3008;0.0081
0000413938;5.9903;-16.0771;0.9337;0.0063;-0.3092;0.0081
0000413946;5.9975;-16.0747;0.7949;0.0077;-0.3072;0.0188
0000413954;5.8634;-16.2303;0.7901;0.0159;-0.3042;0.0224
0000413965;6.0669;-16.1154;0.7063;0.0132;-0.3044;0.0293
0000413973;6.3087;-15.9597;0.6943;-0.0035;-0.2903;0.0265
0000413985;6.1651;-16.1010;0.4764;-0.0432;-0.2634;0.0245
0000413993;6.4979;-15.9310;0.3855;-0.0645;-0.2449;0.0196
0000414061;6.4021;-16.1010;0.6895;-0.0378;-0.0609;-0.0222
0000414069;6.1866;-16.1034;0.6943;-0.0348;-0.0525;-0.0238
0000414081;6.1411;-15.8233;0.6752;-0.0426;-0.0293;-0.0196
0000414089;5.9807;-15.9167;0.6201;-0.0616;-0.0250;-0.0205
0000414100;6.0358;-15.7610;0.6153;-0.0726;-0.0193;-0.0137
0000414108;5.8706;-15.9023;0.6464;-0.0938;-0.0220;-0.0125
0000414116;5.9544;-16.0795;0.6823;-0.0930;-0.0285;-0.0144
0000414128;6.0837;-16.2111;0.6704;-0.1043;-0.0272;-0.0072
0000414136;6.0430;-16.5032;0.7350;-0.0967;-0.0180;-0.0031
0000414147;6.4500;-16.6325;0.8859;-0.0783;0.0011;-0.0023
0000414155;6.2273;-16.9174;0.8212;-0.0472;0.0183;-0.0016
0000414167;6.5984;-16.8336;0.8475;-0.0016;0.0501;-0.0064
0000414175;6.4763;-16.9222;0.8715;0.0215;0.0742;-0.0129
0000414186;6.6008;-16.5631;0.7614;0.0382;0.1073;-0.0216
0000414194;6.3925;-16.4099;0.7949;0.0385;0.1231;-0.0300
0000414206;6.5625;-16.0364;0.6321;0.0187;0.1613;-0.0374
0000414214;6.4045;-16.0890;0.6201;-0.0143;0.1821;-0.0398
0000414222;6.6391;-15.8329;0.7135;-0.0393;0.2020;-0.0457
0000414233;6.5003;-15.8233;0.6440;-0.0741;0.2386;-0.0422
0000414241;6.3973;-15.7586;0.5267;-0.0833;0.2562;-0.0510
0000414253;6.1770;-15.9190;0.4812;-0.0938;0.2741;-0.0735
0000414261;6.2177;-16.0244;0.6033;-0.1023;0.2871;-0.0801
0000414329;5.5426;-16.0938;0.4334;-0.0601;0.2809;-0.0711
0000414337;5.3510;-16.0938;0.2873;-0.0589;0.2662;-0.0721
0000414349;5.4540;-16.0938;0.4429;-0.0450;0.2285;-0.0773
0000414357;5.5665;-16.0890;0.4717;-0.0304;0.2006;-0.0850
0000414365;5.4708;-16.3117;0.4788;-0.0262;0.1801;-0.0837
0000414376;5.6336;-16.1633;0.5291;-0.0313;0.1492;-0.0799
0000414384;5.6024;-16.2997;0.4597;-0.0234;0.1223;-0.0809
0000414396;5.7389;-16.2854;0.6608;-0.0340;0.0739;-0.0701
0000414404;5.6048;-16.3069;0.6800;-0.0592;0.0553;-0.0482
0000414415;5.7988;-16.2878;0.6201;-0.0862;0.0257;-0.0188
0000414423;6.1076;-16.2399;0.5746;-0.1071;0.0147;0.0020
0000414435;6.1148;-16.4314;0.5195;-0.1046;-0.0091;0.0200
0000414443;5.9113;-16.5080;0.6823;-0.0873;-0.0120;0.0301
0000414454;5.7054;-16.7283;0.7661;-0.0581;-0.0228;0.0336
0000414462;5.6719;-16.4745;0.7183;-0.0429;-0.0269;0.0354
0000414470;5.8012;-16.4745;0.6752;-0.0252;-0.0270;0.0284
0000414482;5.7533;-16.3476;0.6847;0.0031;-0.0357;0.0209
0000414490;5.8586;-16.2878;0.6943;0.0169;-0.0406;0.0141
0000414501;5.8083;-16.1824;0.6943;0.0305;-0.0513;0.0037
0000414509;5.9831;-16.1609;0.7063;0.0326;-0.0530;0.0135
0000414521;5.9831;-16.1489;0.6129;0.0298;-0.0590;0.0107
0000414529;6.1268;-16.1154;0.7183;0.0281;-0.0601;0.0051
0000414597;5.8035;-16.3907;0.6297;0.0072;-0.0313;0.0065
0000414605;5.7748;-16.2710;0.5770;0.0183;-0.0345;0.0088
0000414613;5.9041;-16.2662;0.6967;0.0329;-0.0417;0.0079
0000414625;5.8323;-16.1656;0.5052;0.0477;-0.0458;0.0137
0000414633;5.9640;-16.0483;0.5387;0.0462;-0.0512;0.0160
0000414644;5.8802;-16.0268;0.5171;0.0416;-0.0588;0.0180
0000414652;5.9544;-16.0316;0.5674;0.0426;-0.0653;0.0107
0000414664;5.8873;-16.1704;0.5387;0.0336;-0.0661;0.0080
0000414672;5.9520;-16.1609;0.5794;0.0262;-0.0689;0.0043
0000414683;5.9951;-16.0795;0.4860;0.0160;-0.0687;0.0060
0000414691;6.1004;-16.1106;0.5698;0.0163;-0.0757;0.0031
0000414699;5.9855;-16.2255;0.6201;0.0152;-0.0699;0.0121
0000414711;5.9592;-16.3213;0.6584;0.0191;-0.0746;0.0164
0000414719;5.8849;-16.3237;0.6680;0.0140;-0.0809;0.0128
0000414730;5.9448;-16.2901;0.6656;0.0140;-0.0729;0.0224
0000414738;6.0885;-16.0100;0.6919;0.0195;-0.0773;0.0175
0000414750;6.0094;-15.9981;0.6967;0.0168;-0.0741;0.0181
0000414758;5.9831;-15.9550;0.6297;0.0155;-0.0802;0.0147
0000414769;6.0310;-16.0124;0.6488;0.0048;-0.0682;0.0151
0000414777;6.0501;-16.1058;0.5722;0.0039;-0.0701;0.0123
0000414785;6.0214;-16.1058;0.6225;-0.0052;-0.0596;0.0099
0000414797;5.9544;-16.2231;0.6752;-0.0088;-0.0565;-0.0024
0000414805;6.1579;-16.2494;0.6895;0.0065;-0.0574;-0.0115
0000414873;6.0286;-16.1537;0.6632;-0.0254;0.0394;-0.0213
0000414881;6.1172;-16.2782;0.8188;0.0007;0.0417;-0.0414
0000414893;6.1268;-16.6277;0.6488;0.0506;0.0655;-0.0552
0000414901;5.9879;-16.8073;0.4286;0.1082;0.0791;-0.0713
0000414912;5.5545;-16.9605;0.6584;0.1936;0.0937;-0.1110
0000414920;5.4492;-16.7905;0.8619;0.2521;0.0927;-0.1506
0000414932;5.3917;-16.5415;1.1181;0.3087;0.0758;-0.2166
0000414940;5.0925;-16.5032;1.2761;0.3289;0.0340;-0.2639
0000414948;5.3127;-16.1824;1.3982;0.3143;-0.0141;-0.2790
0000414959;5.6838;-15.8161;1.4533;0.2733;-0.0989;-0.2701
0000414967;5.7940;-15.7586;1.2402;0.2293;-0.1463;-0.2362
0000414979;6.2130;-15.6102;0.8212;0.1617;-0.2049;-0.1900
0000414987;6.3805;-15.7036;0.6943;0.1311;-0.2402;-0.1679
0000414998;6.7540;-15.8783;0.6225;0.0911;-0.2719;-0.1351
0000415006;6.9552;-15.8161;0.7207;0.0657;-0.2882;-0.1126
0000415018;7.0294;-15.9071;0.7757;0.0096;-0.2915;-0.0882
0000415026;7.1419;-15.7634;0.8068;-0.0234;-0.2904;-0.0694
0000415038;7.0174;-15.8712;0.5674;-0.0430;-0.2738;-0.0377
0000415046;7.2425;-15.6820;0.3519;-0.0366;-0.2682;-0.0052
0000415054;7.3382;-15.5815;0.2059;-0.0302;-0.2527;0.0414
0000415122;7.5250;-15.5671;0.2251;-0.0145;-0.0887;0.2401
0000415130;7.2640;-15.7419;0.2179;-0.0481;-0.0893;0.2384
0000415142;7.1251;-15.8329;0.3184;-0.1027;-0.1079;0.2421
0000415150;7.0222;-15.9119;0.3903;-0.1312;-0.1263;0.2497
0000415161;6.9743;-16.1680;0.3687;-0.1655;-0.1664;0.2691
0000415169;6.9959;-16.2638;0.3926;-0.1773;-0.1895;0.2791
0000415181;6.7804;-16.5200;0.4884;-0.1832;-0.2229;0.2916
0000415189;6.5003;-16.7331;0.4310;-0.1825;-0.2368;0.2920
0000415200;6.7325;-16.5942;0.4190;-0.1544;-0.2563;0.2786
0000415208;6.5936;-16.5727;0.3065;-0.1319;-0.2625;0.2710
0000415216;6.7229;-16.4793;0.3831;-0.1014;-0.2751;0.2551
0000415228;6.7253;-16.6996;0.4812;-0.0601;-0.2890;0.2583
0000415236;7.0054;-16.3213;0.4286;-0.0264;-0.3103;0.2581
0000415247;7.0725;-16.3404;0.3352;-0.0085;-0.3210;0.2653
0000415255;7.1156;-16.3165;0.2490;0.0103;-0.3293;0.2647
0000415267;7.1730;-16.3213;0.4741;0.0121;-0.3283;0.2757
0000415275;7.4364;-16.1465;0.5219;0.0141;-0.3360;0.2746
0000415286;7.5968;-15.9047;0.6249;0.0109;-0.3269;0.2922
0000415294;7.5106;-15.8712;0.6321;0.0140;-0.3273;0.3124
0000415302;7.0557;-15.9310;0.6488;0.0161;-0.3243;0.3315
0000415314;6.7971;-15.7179;0.6943;0.0207;-0.3188;0.3557
0000415322;6.8139;-15.5815;0.6871;0.0164;-0.3319;0.3672
0000415390;6.4596;-15.7131;0.6632;0.0420;-0.3479;0.4678
0000415398;6.3470;-15.8137;0.7302;0.0470;-0.3417;0.4774
0000415410;6.4069;-15.7730;0.6728;0.0381;-0.3321;0.4882
0000415418;6.2872;-15.7347;0.6800;0.0328;-0.3183;0.5048
0000415429;6.2058;-15.7179;0.7398;0.0286;-0.2992;0.5195
0000415437;5.9065;-15.8855;0.7566;0.0437;-0.2919;0.5284
0000415445;5.8873;-15.8113;0.8116;0.0598;-0.2698;0.5465
0000415457;5.6527;-15.8520;0.7661;0.1127;-0.2507;0.5618
0000415465;5.5354;-15.8879;0.8236;0.1451;-0.2340;0.5740
0000415476;5.4444;-15.7299;0.8667;0.1928;-0.2388;0.5838
0000415484;5.1475;-15.6365;0.9409;0.2234;-0.2555;0.5917
0000415496;5.0230;-15.2654;1.1205;0.2499;-0.2822;0.5974
0000415504;4.7142;-15.0739;1.3312;0.2638;-0.3227;0.5954
0000415515;4.6136;-14.7818;1.3791;0.2541;-0.3673;0.6118
0000415523;4.4556;-14.6956;1.3288;0.2425;-0.4092;0.6324
0000415531;4.2090;-14.4658;1.2929;0.2301;-0.4531;0.6719
0000415543;4.3191;-14.1210;0.7901;0.2277;-0.5012;0.7388
0000415551;4.3742;-14.1186;0.5124;0.2346;-0.5149;0.8075
0000415562;4.4796;-14.1737;0.3974;0.2529;-0.5348;0.9046
0000415570;4.6424;-14.3030;0.5650;0.2582;-0.5395;0.9621
0000415582;4.7501;-14.7626;1.1037;0.2415;-0.5203;1.0114
0000415590;4.8842;-14.9111;1.3743;0.2586;-0.5124;1.0102
0000415658;4.7836;-13.1202;0.1460;0.6503;-0.5189;1.0214
0000415666;4.9584;-12.8353;0.2945;0.6058;-0.4926;1.0115
0000415674;5.0350;-12.9071;0.7853;0.5477;-0.4731;0.9875
0000415686;4.7525;-13.5177;1.1468;0.4796;-0.4414;0.9699
0000415694;4.2641;-13.9103;1.3575;0.4654;-0.4326;0.9871
0000415705;3.7541;-14.3939;1.5874;0.5027;-0.4599;1.0549
0000415713;3.4261;-14.5352;1.6137;0.5836;-0.5027;1.1045
0000415725;2.7940;-14.6980;1.6520;0.7136;-0.5700;1.1684
0000415733;2.6384;-14.6238;1.5419;0.8111;-0.6312;1.1848
0000415744;2.4948;-14.3556;1.5299;0.9077;-0.7109;1.1995
0000415752;2.3942;-14.0085;1.3503;0.9698;-0.7729;1.1840
0000415760;2.6217;-13.4937;1.2905;1.0175;-0.8203;1.1788
0000415772;3.2489;-12.8976;1.2450;1.0761;-0.8872;1.1940
0000415780;3.6033;-12.7300;1.1779;1.0809;-0.9092;1.2228
0000415791;4.3191;-12.3924;0.9313;1.0609;-0.9228;1.2895
0000415799;4.5226;-12.2344;0.7302;1.0403;-0.9309;1.3674
0000415811;4.7046;-12.2176;0.3424;0.9590;-0.9014;1.5120
0000415819;4.6424;-12.3924;0.4501;0.9278;-0.8761;1.6117
0000415830;3.8858;-12.6246;0.9361;0.9831;-0.8492;1.7200
0000415838;3.6847;-13.1370;1.5467;1.0134;-0.8549;1.7475
0000415846;3.2633;-13.6278;1.9513;1.0236;-0.8972;1.7331
0000415858;3.0885;-14.3437;2.1787;1.0810;-0.9633;1.6730
0000415866;3.1891;-14.6238;2.2601;1.1469;-1.0032;1.6379
0000415934;4.4915;-15.0835;2.6552;1.4533;-0.7096;1.6503
0000415942;4.7094;-15.3349;2.6121;1.4762;-0.6476;1.6335
0000415954;5.1332;-15.3157;2.1668;1.5303;-0.5706;1.6699
0000415962;5.0254;-14.9997;2.0327;1.5597;-0.5328;1.7241
0000415973;4.9775;-14.3006;1.9034;1.5287;-0.4735;1.8119
0000415981;4.8530;-13.8744;1.4964;1.4120;-0.4038;1.8828
0000415993;4.8459;-13.1944;0.3065;1.2522;-0.2958;2.0227
0000416001;4.8650;-12.9359;-0.8116;1.1329;-0.2304;2.1206
0000416009;4.9608;-12.8425;-1.1037;1.0070;-0.1386;2.1933
0000416020;5.7748;-12.4427;-1.1971;0.9962;0.0416;2.2777
0000416028;6.4763;-12.1745;-1.0104;0.9974;0.2176;2.3120
0000416040;7.4891;-12.2104;-1.4461;0.9397;0.4313;2.3265
0000416048;8.2097;-12.3661;-1.7621;0.8913;0.5466;2.3230
0000416059;9.5170;-11.9183;-0.4860;0.9665;0.7048;2.2748
0000416067;11.2982;-11.7938;6.2680;1.3073;0.7897;2.1425
0000416079;11.1522;-14.1713;33.3704;2.2771;0.6885;1.7620
0000416087;1.2617;-20.6093;38.5155;2.1369;0.2647;1.6641
0000416095;-3.3662;-24.5861;14.1689;1.7878;-0.3611;2.0540
0000416106;-0.4334;-16.6612;0.3208;3.2439;-0.9289;2.7519
0000416114;2.0399;-12.7731;-1.1564;4.0544;-0.8404;2.9331
0000416126;3.6440;-10.9295;-0.9792;3.8525;-0.2946;3.0573
0000416134;3.9097;-10.0221;-0.2634;3.3127;0.0270;3.2798
0000416201;7.7381;3.0335;7.7045;2.6741;3.3859;0.7039
0000416209;6.8546;5.2289;6.9097;2.6441;3.2847;0.1037
0000416221;3.8690;8.4707;6.2249;2.2359;3.0251;-0.9842
0000416229;-0.4190;8.6383;4.2066;2.0347;2.6315;-1.9063
0000416237;-3.7589;8.0302;2.6983;1.7790;2.0009;-2.9176
0000416248;-2.5283;2.8802;0.9840;0.7273;1.0806;-3.4980
0000416256;-2.2170;-0.8068;-0.9457;-0.1545;0.6265;-3.3662
0000416268;-4.3479;-2.9544;-1.5634;-1.2993;0.3226;-2.9736
0000416276;-6.1723;-3.3662;-1.0678;-2.0391;0.6094;-2.8785
0000416287;-9.2680;-4.7549;-1.2881;-3.1171;1.6878;-2.8906
0000416295;-15.5839;-7.9535;-3.1675;-4.0486;2.6903;-2.4388
0000416307;-23.4847;-5.5258;0.9720;-4.3657;4.3656;-1.8123
0000416315;-28.9076;-2.1859;2.8347;-4.3657;4.3656;-1.3640
0000416326;-52.5384;4.3048;22.6922;-4.3657;4.3656;-0.9213
0000416334;-56.0554;0.8188;11.5496;-4.3657;4.3656;-0.8651
0000416342;-60.0107;0.8619;9.5912;-1.3804;4.1564;0.2737
0000416354;-48.6478;0.5076;8.1977;2.2235;3.8518;0.6046
0000416362;-30.2124;-3.7828;-0.1556;2.8432;3.1789;0.0829
0000416374;-15.3564;-4.0965;-2.5235;1.9822;2.1281;-0.3609
0000416382;-13.2280;-4.8004;-1.5012;0.5357;1.2409;-0.3714
0000416394;-10.1179;-4.5035;0.0192;-2.0932;-0.6062;-0.5156
0000416402;-7.2233;-5.4109;-0.7398;-3.2233;-1.6169;-0.7894
0000416470;6.6439;-7.9152;-2.8563;1.3530;-0.2257;0.3134
0000416478;7.1108;-7.2520;-2.1213;1.5906;0.3648;0.6027
0000416489;6.9360;-6.9097;-1.1013;1.6681;1.0102;0.8721
0000416497;7.2544;-6.5864;-0.9864;1.5459;1.3135;1.0144
0000416505;7.0437;-6.5362;-0.7757;1.2832;1.4775;1.1305
0000416517;6.7421;-6.7804;-1.5467;0.8717;1.5348;1.2406
0000416525;6.2345;-7.2951;-2.2601;0.6871;1.5022;1.2500
0000416537;5.5115;-7.6591;-3.1029;0.5829;1.3423;1.1587
0000416545;5.3223;-7.9440;-3.6895;0.5910;1.1930;1.0336
0000416557;4.9608;-8.2528;-4.2162;0.6495;0.9731;0.7476
0000416565;4.3455;-8.5186;-4.5274;0.6960;0.8779;0.4643
0000416573;4.0366;-8.8514;-5.1308;0.6763;0.8263;0.1443
0000416585;3.3232;-9.3518;-5.6982;0.4994;0.7071;-0.3216
0000416593;2.2889;-9.4619;-5.9640;0.2314;0.5878;-0.5860
0000416605;-0.4118;-9.6295;-5.6240;-0.5816;0.3455;-0.9611
0000416613;-5.3870;-9.1243;-3.7469;-1.6534;0.1604;-1.2577
0000416625;-29.9993;-8.1977;9.9192;-4.1972;-0.9188;-1.8947
0000416633;-40.3902;-9.6438;8.5162;-4.3657;-0.5877;-1.7758
0000416645;-35.6233;-15.0500;8.0014;-3.1461;0.3496;-0.9601
0000416653;-15.1768;-14.4658;4.4556;-1.8594;0.2157;-0.6508
0000416665;-3.2944;-12.7108;1.0175;-0.4261;0.0814;-0.1824
0000416673;-0.4788;-11.5688;-0.1125;0.0292;0.0397;-0.0032
0000416681;0.9697;-10.0652;-0.2658;0.2241;-0.0822;0.1450
0000416749;2.0710;-9.4140;-2.3343;-0.0105;0.4942;-0.2805
0000416757;1.2617;-9.8904;-1.6113;-0.3039;0.4596;-0.4715
0000416769;-0.8595;-10.5872;0.0096;-0.6454;0.3170;-0.7341
0000416777;-2.7054;-11.0014;1.3384;-0.7005;0.2125;-0.7701
0000416789;-5.4444;-11.7531;2.6264;-0.5413;0.1841;-0.5520
0000416797;-6.8163;-12.3134;2.8683;-0.3268;0.2125;-0.3489
0000416809;-7.0413;-12.5887;1.7741;-0.0320;0.2502;-0.1207
0000416817;-6.1076;-11.9806;0.4214;0.0958;0.3405;0.0203
0000416829;-4.3862;-11.1306;-0.2227;0.1480;0.4502;0.2237
0000416837;-2.9257;-10.1442;-0.2825;0.1360;0.4222;0.2966
0000416848;-2.4995;-9.1506;-0.2442;0.0883;0.4014;0.3295
0000416856;-2.8036;-8.6742;-0.1221;0.0509;0.4106;0.3187
0000416864;-2.9999;-8.5066;-0.4357;-0.0041;0.4117;0.2875
0000416876;-3.2801;-8.2791;-0.8212;-0.0713;0.4199;0.2177
0000416884;-3.2872;-8.4994;-1.0319;-0.0925;0.4274;0.1597
0000416896;-3.2465;-8.5258;-1.0056;-0.1049;0.4342;0.0845
0000416904;-3.2705;-8.8202;-0.9720;-0.0967;0.4186;0.0410
0000416916;-3.1412;-9.1243;-1.1205;-0.0711;0.3788;-0.0004
0000416924;-3.2968;-9.3877;-1.2354;-0.0492;0.3627;-0.0077
0000416936;-3.1819;-9.6079;-0.9792;-0.0053;0.3528;-0.0028
0000416944;-3.3639;-9.7372;-0.9888;0.0314;0.3557;0.0157
0000416952;-3.5506;-9.6678;-1.0175;0.0506;0.3563;0.0397
0000417020;-3.3782;-9.0022;-1.6496;0.0536;0.1559;0.1170
0000417028;-3.2370;-8.9064;-1.6496;0.0063;0.1041;0.1270
0000417040;-3.4788;-8.8298;-1.6185;-0.0434;0.0538;0.1351
0000417048;-3.6871;-8.9280;-1.5036;-0.0492;0.0205;0.1211
0000417060;-3.5745;-8.8131;-1.4246;-0.0565;-0.0061;0.1053
0000417068;-3.4093;-8.8538;-1.4198;-0.0533;-0.0242;0.0871
0000417080;-3.3926;-8.9184;-1.3455;-0.0482;-0.0494;0.0657
0000417088;-3.3615;-8.9615;-1.3072;-0.0366;-0.0747;0.0424
0000417100;-3.3806;-8.8945;-1.2857;-0.0362;-0.0866;0.0240
0000417108;-3.4141;-8.9160;-1.2857;-0.0376;-0.0971;0.0193
0000417119;-3.4309;-8.9591;-1.3479;-0.0268;-0.1152;-0.0047
0000417127;-3.5362;-8.9591;-1.2522;-0.0238;-0.1240;-0.0128
0000417135;-3.4357;-9.0142;-1.2617;-0.0280;-0.1271;-0.0163
0000417147;-3.3998;-8.9591;-1.1732;-0.0230;-0.1366;-0.0289
0000417155;-3.3519;-8.9399;-1.1660;-0.0156;-0.1444;-0.0426
0000417167;-3.5386;-9.1387;-1.1349;-0.0171;-0.1435;-0.0492
0000417175;-3.2657;-8.9591;-1.1037;-0.0111;-0.1482;-0.0538
0000417187;-3.4477;-9.1554;-0.9960;-0.0212;-0.1390;-0.0496
0000417195;-3.3806;-9.1698;-0.9098;-0.0240;-0.1359;-0.0441
0000417207;-3.2465;-9.2273;-0.8164;-0.0365;-0.1132;-0.0285
0000417215;-3.1556;-9.1794;-0.7685;-0.0454;-0.0927;-0.0208
0000417283;-3.1651;-9.1051;-0.7614;-0.0059;0.0123;-0.0609
0000417291;-3.1651;-8.9352;-0.7398;-0.0123;0.0153;-0.0711
0000417303;-3.2992;-9.1674;-0.7422;-0.0292;0.0358;-0.0717
0000417312;-3.2465;-9.1004;-0.8332;-0.0388;0.0460;-0.0691
0000417325;-3.2705;-9.1291;-0.8978;-0.0482;0.0641;-0.0644
0000417334;-3.3255;-9.2608;-0.8356;-0.0522;0.0786;-0.0542
0000417343;-3.1675;-9.1722;-1.0391;-0.0496;0.0897;-0.0488
0000417356;-3.1627;-9.3398;-0.9792;-0.0452;0.1015;-0.0298
0000417365;-3.2394;-9.3709;-1.0487;-0.0292;0.1019;-0.0278
0000417378;-3.0598;-9.0812;-1.0702;-0.0060;0.1066;-0.0179
0000417387;-3.4022;-9.1435;-1.1301;-0.0017;0.1172;-0.0135
0000417400;-3.3160;-8.9735;-1.1756;-0.0088;0.1112;-0.0180
0000417409;-3.4046;-9.1219;-1.2809;-0.0013;0.0923;-0.0276
0000417422;-3.2657;-9.1219;-1.4150;-0.0081;0.0727;-0.0264
0000417431;-3.2298;-9.1602;-1.3551;-0.0242;0.0698;-0.0165
0000417444;-3.2657;-9.3613;-1.3048;-0.0157;0.0557;-0.0067
0000417453;-3.2298;-9.2799;-1.2210;-0.0008;0.0446;-0.0025
0000417462;-3.3399;-9.3661;-1.2570;0.0115;0.0434;0.0072
0000417475;-3.2465;-9.1961;-1.3168;0.0310;0.0429;0.0248
0000417484;-3.3112;-9.1794;-1.2354;0.0465;0.0330;0.0199
0000417497;-3.4955;-9.1530;-1.2881;0.0477;0.0265;0.0262
0000417506;-3.3495;-9.0453;-1.3623;0.0381;0.0264;0.0237
0000417575;-3.2561;-9.1435;-1.2929;-0.0541;-0.0689;-0.0252
0000417584;-3.1556;-9.0118;-1.3120;-0.0472;-0.0778;-0.0232
0000417597;-3.2010;-9.1650;-1.2761;-0.0366;-0.0818;-0.0189
0000417606;-3.2992;-9.1770;-1.2474;-0.0342;-0.0703;-0.0099
0000417619;-3.0646;-8.9423;-1.3048;-0.0301;-0.0706;-0.0109
0000417628;-3.1723;-9.0166;-1.2594;-0.0277;-0.0802;-0.0152
0000417641;-3.3686;-9.0501;-1.1995;-0.0386;-0.0866;-0.0148
0000417650;-3.4453;-9.0764;-1.3551;-0.0420;-0.0898;-0.0155
0000417659;-3.3423;-8.9902;-1.3192;-0.0456;-0.1073;-0.0236
0000417672;-3.3064;-9.1219;-1.2043;-0.0577;-0.1134;-0.0165
0000417681;-3.3160;-9.1482;-1.2282;-0.0625;-0.1067;-0.0121
0000417694;-3.2633;-9.2680;-1.0439;-0.0552;-0.1021;-0.0071
0000417703;-3.1771;-9.2392;-1.0798;-0.0464;-0.0977;-0.0047
0000417716;-3.2801;-9.2320;-1.1708;-0.0341;-0.0797;-0.0039
0000417725;-3.2034;-9.1985;-1.0965;-0.0244;-0.0761;-0.0021
0000417738;-3.3136;-9.1435;-1.1708;-0.0209;-0.0786;0.0011
0000417747;-3.3639;-9.1842;-1.1468;-0.0252;-0.0699;0.0080
0000417760;-3.3639;-9.0357;-1.1229;-0.0253;-0.0648;0.0051
0000417769;-3.2250;-9.0118;-1.1492;-0.0240;-0.0739;0.0000
0000417785;-3.2465;-9.0644;-1.0367;-0.0416;-0.0609;0.0075
0000417794;-3.1125;-9.0381;-1.0199;-0.0410;-0.0606;0.0020
0000417863;-3.2585;-9.1889;-1.0702;-0.0397;-0.0378;-0.0028
0000417872;-3.2609;-9.0956;-1.2115;-0.0413;-0.0334;-0.0003
0000417881;-3.2441;-9.0525;-1.1349;-0.0338;-0.0352;0.0019
0000417893;-3.2657;-9.0908;-1.1181;-0.0266;-0.0386;-0.0009
0000417902;-3.2872;-9.0956;-1.1229;-0.0177;-0.0320;0.0043
0000417915;-3.3184;-9.0070;-1.1636;-0.0120;-0.0280;-0.0023
0000417924;-3.3279;-8.9208;-1.2617;-0.0137;-0.0358;-0.0093
0000417936;-3.4261;-9.0668;-1.0870;-0.0179;-0.0277;-0.0108
0000417945;-3.4285;-9.0549;-1.1061;-0.0164;-0.0320;-0.0147
0000417958;-3.3495;-9.0429;-1.1684;-0.0215;-0.0358;-0.0196
0000417967;-3.4022;-9.2129;-1.0965;-0.0364;-0.0320;-0.0124
0000417979;-3.2609;-9.0932;-1.0822;-0.0366;-0.0302;-0.0188
0000417988;-3.1987;-9.0597;-1.1277;-0.0402;-0.0265;-0.0216
0000418001;-3.2872;-8.9950;-0.9960;-0.0452;-0.0187;-0.0211
0000418010;-3.2705;-8.8992;-1.0774;-0.0478;-0.0220;-0.0309
0000418022;-3.2896;-9.0644;-1.0942;-0.0605;-0.0205;-0.0329
0000418031;-3.3447;-9.0261;-1.1325;-0.0683;-0.0205;-0.0350
0000418040;-3.3998;-9.0285;-1.1971;-0.0814;-0.0188;-0.0314
0000418108;-3.1987;-9.1243;-1.1277;-0.1142;0.0081;-0.0260
0000418117;-3.2561;-9.1267;-1.1995;-0.1154;0.0127;-0.0187
0000418129;-3.3088;-9.1387;-1.2594;-0.1123;0.0109;-0.0157
0000418138;-3.2106;-9.1770;-1.3168;-0.0947;0.0023;-0.0179
0000418151;-3.2848;-9.0573;-1.3647;-0.0854;-0.0039;-0.0156
0000418160;-3.3279;-9.1435;-1.3503;-0.0698;-0.0123;-0.0107
0000418172;-3.4596;-9.1770;-1.3288;-0.0534;-0.0103;-0.0113
0000418181;-3.3662;-9.1435;-1.2115;-0.0400;-0.0115;-0.0104
0000418194;-3.2346;-8.9639;-1.2402;-0.0280;-0.0193;-0.0149
0000418203;-3.3112;-9.0764;-1.2186;-0.0234;-0.0112;-0.0125
0000418215;-3.3399;-9.0285;-1.2713;-0.0318;-0.0069;-0.0113
0000418224;-3.3160;-9.1937;-1.2330;-0.0260;-0.0156;-0.0203
0000418237;-3.3279;-9.0573;-1.2498;-0.0269;-0.0145;-0.0116
0000418246;-3.4117;-9.1554;-1.2450;-0.0320;-0.0140;-0.0144
0000418255;-3.4979;-9.1626;-1.1708;-0.0317;-0.0111;-0.0163
0000418267;-3.2681;-9.0190;-1.1157;-0.0252;-0.0089;-0.0189
0000418276;-3.4046;-9.1913;-1.2450;-0.0252;-0.0021;-0.0212
0000418289;-3.1125;-8.9735;-1.1492;-0.0224;0.0060;-0.0159
0000418298;-3.1867;-9.0046;-1.1468;-0.0220;0.0080;-0.0195
0000418310;-3.1867;-9.0836;-1.2043;-0.0285;0.0196;-0.0111
0000418319;-3.4069;-9.2440;-1.3647;-0.0226;0.0095;-0.0163
0000418388;-3.3064;-9.1219;-1.2809;0.0035;-0.0112;-0.0228
0000418397;-3.3974;-9.1339;-1.3001;0.0120;-0.0141;-0.0300
0000418409;-3.3423;-9.0429;-1.1444;0.0085;-0.0165;-0.0318
0000418418;-3.2848;-8.9878;-1.2570;-0.0065;-0.0073;-0.0277
0000418431;-3.1795;-8.9950;-1.1899;-0.0208;-0.0075;-0.0236
0000418440;-3.2202;-9.1698;-1.1708;-0.0296;-0.0081;-0.0232
0000418452;-3.1316;-9.0908;-1.2306;-0.0448;-0.0076;-0.0125
0000418461;-3.3543;-9.2033;-1.1492;-0.0520;0.0036;-0.0017
0000418470;-3.1484;-9.0525;-1.0008;-0.0592;0.0124;0.0041
0000418483;-3.1891;-9.0381;-0.8452;-0.0679;0.0477;0.0021
0000418492;-3.0574;-8.8466;-0.8595;-0.0859;0.0713;0.0021
0000418504;-3.1077;-8.8609;-0.9481;-0.1267;0.1037;0.0099
0000418513;-3.2346;-8.7771;-1.0104;-0.1595;0.1152;0.0071
0000418526;-3.2370;-8.8705;-1.1756;-0.2294;0.1311;0.0117
0000418535;-3.1484;-8.6000;-1.1277;-0.2790;0.1392;0.0115
0000418547;-3.1412;-8.7101;-1.2761;-0.3239;0.1438;0.0003
0000418556;-3.1244;-8.8657;-1.2522;-0.3451;0.1502;-0.0009
0000418569;-3.2944;-9.0884;-1.2713;-0.3556;0.1645;-0.0105
0000418578;-3.2968;-9.0597;-1.3264;-0.3472;0.1803;-0.0115
0000418587;-3.2010;-9.2608;-1.4246;-0.3211;0.1897;-0.0075
0000418599;-3.3351;-9.5553;-1.4988;-0.2798;0.1980;-0.0051
0000418608;-3.3471;-9.2943;-1.5538;-0.2485;0.2109;0.0112
0000418677;-3.3088;-8.8059;-1.9704;-0.0870;0.2033;0.0344
0000418686;-3.2753;-8.8466;-2.0087;-0.0946;0.1853;0.0242
0000418698;-3.2537;-8.6814;-2.0470;-0.1104;0.1683;0.0076
0000418707;-3.1699;-8.8131;-2.0782;-0.1176;0.1579;-0.0163
0000418720;-3.2753;-8.9208;-2.1620;-0.1006;0.1537;-0.0289
0000418729;-3.3519;-9.1099;-2.2458;-0.0869;0.1472;-0.0334
0000418741;-3.2609;-9.2584;-2.3032;-0.0648;0.1306;-0.0232
0000418750;-3.1196;-9.2416;-2.2841;-0.0381;0.1122;-0.0149
0000418759;-3.3591;-9.3254;-2.1548;-0.0100;0.0887;-0.0073
0000418772;-3.3926;-9.2464;-2.1117;0.0104;0.0769;0.0168
0000418781;-3.3878;-9.1363;-2.1787;0.0244;0.0586;0.0193
0000418793;-3.2944;-9.1291;-2.2529;0.0270;0.0478;0.0318
0000418802;-3.1627;-8.9352;-2.2242;0.0308;0.0346;0.0404
0000418815;-3.2561;-8.9471;-2.1069;0.0420;0.0181;0.0370
0000418824;-3.2130;-8.9016;-2.1117;0.0502;0.0213;0.0388
0000418836;-3.2058;-8.9352;-1.9680;0.0770;0.0131;0.0284
0000418845;-3.2968;-8.9950;-2.0590;0.0871;0.0188;0.0229
0000418858;-3.0813;-8.7652;-2.0542;0.0809;0.0155;0.0234
0000418867;-3.2944;-8.8705;-2.0255;0.0733;0.0132;0.0173
0000418876;-3.1723;-8.7676;-1.9968;0.0678;0.0048;0.0013
0000418888;-3.2968;-8.7891;-2.0542;0.0468;-0.0107;-0.0013
0000418897;-3.5530;-8.7819;-2.0375;0.0197;-0.0016;-0.0020
0000418966;-3.1939;-8.8322;-2.0231;-0.0064;0.0456;-0.0393
0000418975;-2.9808;-8.7269;-2.0039;-0.0244;0.0486;-0.0402
0000418987;-3.2609;-8.9232;-2.0662;-0.0257;0.0530;-0.0424
0000418996;-3.3950;-8.8921;-2.0446;-0.0262;0.0526;-0.0576
0000419009;-3.2226;-8.9519;-2.1189;-0.0187;0.0554;-0.0596
0000419018;-3.3758;-9.1411;-2.2673;-0.0177;0.0358;-0.0585
0000419030;-3.1196;-8.9663;-2.3367;-0.0072;-0.0007;-0.0545
0000419039;-3.1532;-8.9830;-2.0853;-0.0027;-0.0155;-0.0529
0000419048;-3.1915;-9.0405;-2.0470;-0.0060;-0.0173;-0.0446
0000419061;-3.0454;-8.9112;-1.8364;0.0063;0.0015;-0.0373
0000419070;-3.0287;-8.9232;-1.7789;0.0077;0.0332;-0.0406
0000419082;-3.0885;-8.8418;-1.8842;0.0075;0.0482;-0.0430
0000419089;-3.0406;-9.0022;-2.0734;-0.0007;0.0550;-0.0340
0000419101;-3.3998;-9.3996;-2.2865;0.0245;0.0248;-0.0161
0000419109;-3.3471;-9.6965;-2.3032;0.0890;-0.0172;-0.0027
0000419120;-3.1915;-9.7492;-1.7980;0.2018;-0.0314;0.0157
0000419128;-2.9377;-9.6295;-1.4150;0.2454;-0.0003;0.0458
0000419140;-3.0215;-9.3972;-1.2115;0.2809;0.0620;0.0823
0000419148;-2.8922;-9.1722;-1.5921;0.2955;0.0789;0.0973
0000419156;-3.2585;-9.3278;-1.9393;0.3020;0.0703;0.1054
0000419167;-3.4500;-9.0812;-2.2913;0.2887;0.0336;0.1188
0000419175;-3.5745;-8.9639;-2.5714;0.2742;-0.0113;0.1171
