time;acc_x;acc_y;acc_z;gyro_x;gyro_y;gyro_z
0000164112;8.1858;2.2625;2.5594;-0.0410;-0.2906;-0.0621
0000164120;8.3246;2.4804;2.5283;-0.0418;-0.2543;-0.0549
0000164127;8.2480;2.3750;2.4780;-0.0298;-0.2333;-0.0530
0000164135;8.2552;2.3439;2.4972;-0.0245;-0.2069;-0.0477
0000164144;8.3103;2.5067;2.3798;-0.0181;-0.1775;-0.0452
0000164152;8.0900;2.3727;2.5163;-0.0053;-0.1524;-0.0384
0000164164;8.0637;2.3703;2.4397;0.0011;-0.1033;-0.0256
0000164172;8.0086;2.4397;2.3511;0.0041;-0.0767;-0.0205
0000164180;8.3462;2.6025;2.3463;0.0000;-0.0505;-0.0133
0000164191;8.2145;2.5857;2.3870;0.0003;-0.0204;-0.0047
0000164199;8.2959;2.5714;2.2936;-0.0007;0.0005;-0.0052
0000164211;8.0828;2.4708;2.2889;0.0064;0.0296;-0.0085
0000164219;8.3007;2.4565;2.3391;0.0140;0.0445;-0.0144
0000164230;8.2408;2.3343;2.3056;0.0155;0.0675;-0.0088
0000164238;8.0517;2.3774;2.3894;0.0137;0.0839;-0.0081
0000164246;8.1211;2.4565;2.3296;0.0203;0.0933;-0.0052
0000164258;7.8697;2.3367;2.3535;0.0258;0.0973;-0.0092
0000164266;7.9559;2.2913;2.3607;0.0325;0.1010;-0.0120
0000164333;7.9535;2.3511;2.4397;0.0470;0.0785;-0.0345
0000164341;7.9535;2.2242;2.4708;0.0584;0.0750;-0.0414
0000164353;7.9655;2.2458;2.5259;0.0738;0.0778;-0.0421
0000164361;7.9440;2.2290;2.4349;0.0802;0.0790;-0.0396
0000164369;8.0302;2.3942;2.3798;0.0865;0.0737;-0.0441
0000164380;8.0756;2.4014;2.3296;0.0879;0.0715;-0.0466
0000164388;7.8937;2.3750;2.3248;0.0957;0.0594;-0.0554
0000164400;8.0230;2.5259;2.2769;0.0929;0.0689;-0.0606
0000164408;8.0972;2.4900;2.3008;0.0981;0.0671;-0.0604
0000164419;7.9535;2.3511;2.3152;0.1154;0.0577;-0.0742
0000164427;7.9176;2.2027;2.3415;0.1196;0.0628;-0.0735
0000164435;7.9487;2.2745;2.3966;0.1250;0.0718;-0.0777
0000164447;8.0110;2.4062;2.2817;0.1207;0.0747;-0.0886
0000164455;8.0972;2.5019;2.2314;0.1150;0.0807;-0.0953
0000164466;7.8937;2.3439;2.2697;0.1154;0.0743;-0.0998
0000164474;8.0086;2.5953;2.2098;0.1112;0.0861;-0.1026
0000164486;8.1235;2.4325;2.2529;0.1187;0.0877;-0.1108
0000164494;8.2097;2.4229;2.1907;0.1199;0.0957;-0.1172
0000164502;8.1235;2.4373;2.3822;0.1183;0.1043;-0.1254
0000164513;7.9918;2.2913;2.3822;0.1244;0.1170;-0.1414
0000164521;8.2001;2.3176;2.3750;0.1290;0.1311;-0.1442
0000164533;8.0924;2.0542;2.4995;0.1404;0.1483;-0.1548
0000164541;8.1331;2.0758;2.4493;0.1633;0.1551;-0.1656
0000164607;8.1379;2.6791;2.4636;0.1260;0.1827;-0.2334
0000164615;8.1977;2.8539;2.3774;0.1162;0.1811;-0.2398
0000164623;8.1211;2.7246;2.5379;0.1166;0.1723;-0.2292
0000164635;8.1068;2.7773;2.4205;0.1280;0.1861;-0.2008
0000164643;7.9942;2.8778;2.2505;0.1319;0.2001;-0.1607
0000164654;8.1858;2.9784;2.3176;0.1392;0.2158;-0.1214
0000164662;8.2600;3.0694;2.2075;0.1404;0.2253;-0.0885
0000164674;8.1977;3.0837;2.0375;0.1234;0.2462;-0.0294
0000164682;8.4946;3.3758;2.0207;0.1184;0.2666;0.0067
0000164690;8.5688;3.3255;2.0303;0.0991;0.2823;0.0470
0000164701;8.3486;3.1771;2.0423;0.0815;0.3064;0.0897
0000164709;8.4348;3.2920;2.0399;0.0710;0.3176;0.1272
0000164721;8.1906;3.1963;2.1739;0.0470;0.3150;0.1701
0000164729;8.0158;2.9688;2.2529;0.0461;0.3008;0.1885
0000164740;8.0110;2.9712;2.1883;0.0289;0.2807;0.2121
0000164748;7.9296;2.6073;2.3631;0.0340;0.2551;0.2105
0000164756;8.0972;2.4804;2.3583;0.0248;0.2542;0.2138
0000164768;8.2025;2.5259;2.4708;0.0163;0.2385;0.2090
0000164776;8.2361;2.3559;2.4541;0.0177;0.2258;0.2033
0000164787;8.4563;2.4397;2.4134;0.0333;0.2204;0.1952
0000164795;8.3246;2.2266;2.3463;0.0417;0.2060;0.1785
0000164807;8.3007;2.3703;2.2601;0.0254;0.2037;0.1564
0000164815;8.3127;2.3703;2.1763;0.0197;0.1958;0.1311
0000164823;8.3342;2.4397;2.0877;0.0132;0.1964;0.1134
0000164891;7.9440;2.5881;1.9800;-0.0405;0.1803;-0.0890
0000164899;7.7069;2.5259;1.9968;-0.0557;0.1741;-0.1062
0000164911;7.4077;2.6240;1.9752;-0.0702;0.1629;-0.1284
0000164919;7.3526;2.7797;2.0207;-0.0799;0.1434;-0.1418
0000164930;7.1802;2.8539;2.2314;-0.1051;0.1212;-0.1396
0000164938;6.8115;2.7078;2.3056;-0.1191;0.0846;-0.1478
0000164946;6.9815;3.1268;2.4636;-0.1428;0.0553;-0.1451
0000164958;6.7062;3.1149;2.3703;-0.1669;-0.0013;-0.1440
0000164966;6.5098;2.9832;2.4038;-0.1784;-0.0402;-0.1459
0000164977;6.6655;2.7940;2.3846;-0.1688;-0.0794;-0.1344
0000164985;6.8091;2.5738;2.3798;-0.1545;-0.1031;-0.1184
0000164997;7.1371;2.2194;2.4301;-0.1228;-0.1190;-0.0931
0000165005;7.3789;2.4038;2.4205;-0.0850;-0.1302;-0.0787
0000165016;7.5872;2.4708;2.3296;-0.0541;-0.1355;-0.0546
0000165024;7.5729;2.4253;2.3056;-0.0404;-0.1378;-0.0389
0000165032;7.6160;2.5714;2.2865;-0.0381;-0.1384;-0.0233
0000165044;7.8626;2.5474;2.2458;-0.0265;-0.1383;-0.0021
0000165052;7.8243;2.4588;2.2769;-0.0192;-0.1350;0.0056
0000165063;8.0900;2.6049;2.2482;0.0064;-0.1207;0.0215
0000165071;8.2384;2.6336;2.1859;0.0176;-0.1191;0.0237
0000165083;8.1594;2.5666;2.1141;0.0280;-0.1058;0.0233
0000165091;8.2648;2.7869;2.0327;0.0290;-0.1063;0.0254
0000165099;8.0445;2.6145;2.0446;0.0196;-0.1055;0.0280
0000165167;8.0134;2.7485;2.1955;-0.0489;-0.1948;-0.0113
0000165175;7.7692;2.4253;2.2075;-0.0586;-0.2044;-0.0116
0000165187;7.8147;2.4804;2.2218;-0.0572;-0.2258;-0.0221
0000165195;7.9918;2.5905;2.2410;-0.0698;-0.2240;-0.0233
0000165206;7.9895;2.6097;2.2410;-0.0633;-0.2302;-0.0348
0000165214;8.1139;2.5714;2.1787;-0.0713;-0.2221;-0.0400
0000165226;8.0613;2.6671;2.2338;-0.0689;-0.2174;-0.0474
0000165234;8.1020;2.5618;2.1691;-0.0750;-0.2068;-0.0452
0000165242;8.1211;2.6695;2.1668;-0.0817;-0.1964;-0.0405
0000165253;7.8793;2.4301;2.0303;-0.0857;-0.1895;-0.0474
0000165261;8.0397;2.7198;2.1548;-0.0911;-0.1845;-0.0477
0000165273;7.7572;2.6647;2.1811;-0.1009;-0.1756;-0.0498
0000165281;7.6567;2.6097;2.1763;-0.1034;-0.1781;-0.0580
0000165292;7.5010;2.4852;2.1428;-0.1082;-0.1731;-0.0682
0000165300;7.5178;2.7414;2.2697;-0.1131;-0.1840;-0.0775
0000165312;7.3646;2.6552;2.2290;-0.1316;-0.1905;-0.0798
0000165320;7.1467;2.7533;2.2745;-0.1347;-0.2014;-0.0813
0000165328;7.2257;2.7054;2.3415;-0.1442;-0.2038;-0.0797
0000165339;7.0988;2.5881;2.4038;-0.1475;-0.2117;-0.0754
0000165347;7.3071;2.6647;2.4588;-0.1444;-0.2150;-0.0652
0000165359;7.3095;2.4708;2.4373;-0.1314;-0.2293;-0.0633
0000165367;7.4292;2.5402;2.5163;-0.1195;-0.2427;-0.0632
0000165434;7.8697;2.3918;2.6288;-0.0268;-0.2138;-0.0179
0000165442;8.0325;2.4445;2.5067;-0.0285;-0.2068;-0.0151
0000165454;8.0565;2.3559;2.5259;-0.0249;-0.1856;-0.0205
0000165462;7.8913;2.4038;2.4229;-0.0250;-0.1719;-0.0144
0000165470;8.1187;2.5857;2.4804;-0.0264;-0.1472;-0.0105
0000165481;7.9392;2.5235;2.4373;-0.0248;-0.1108;-0.0021
0000165489;7.9104;2.4876;2.5091;-0.0176;-0.0978;0.0003
0000165501;8.0062;2.5666;2.3966;-0.0129;-0.0590;0.0121
0000165509;7.9392;2.7078;2.4325;-0.0141;-0.0344;0.0183
0000165521;7.7668;2.4565;2.3870;-0.0265;0.0044;0.0261
0000165529;7.7788;2.5211;2.5211;-0.0274;0.0176;0.0294
0000165540;7.8171;2.5977;2.4852;-0.0374;0.0448;0.0301
0000165548;7.6591;2.3320;2.5738;-0.0422;0.0733;0.0357
0000165556;7.7788;2.3583;2.6121;-0.0424;0.1298;0.0597
0000165568;7.6016;2.4684;2.4804;-0.0141;0.1344;0.0616
0000165576;7.5250;2.6671;2.3798;-0.0191;0.1184;0.0438
0000165587;7.7428;2.8874;2.4086;-0.0430;0.1208;0.0157
0000165595;7.5298;2.9233;2.4157;-0.0652;0.1144;0.0020
0000165607;7.3717;2.5881;2.3750;-0.0826;0.1010;-0.0037
0000165615;7.2808;2.5474;2.4134;-0.0889;0.0833;-0.0075
0000165623;7.0844;2.6193;2.4134;-0.0913;0.0621;-0.0156
0000165691;7.4819;2.4876;2.5618;-0.0304;0.0085;-0.0386
0000165699;7.4124;2.5522;2.5498;-0.0328;0.0069;-0.0298
0000165711;7.7476;2.3966;2.6217;-0.0005;0.0049;-0.0361
0000165719;7.8243;2.4972;2.4876;0.0254;0.0056;-0.0418
0000165730;7.6112;2.4277;2.5881;0.0264;0.0109;-0.0396
0000165738;7.6878;2.5522;2.5977;0.0203;0.0356;-0.0280
0000165746;7.6638;2.3918;2.5043;0.0296;0.0330;-0.0167
0000165758;7.5441;2.6576;2.2146;0.0253;0.0020;-0.0067
0000165766;7.2856;2.6169;2.2314;-0.0060;-0.0175;0.0035
0000165777;7.6447;2.6169;2.5163;-0.0396;-0.0040;0.0012
0000165785;7.6543;2.5498;2.5594;-0.0333;0.0097;0.0036
0000165797;7.7764;2.4277;2.6049;-0.0057;0.0237;0.0003
0000165805;7.5130;2.3200;2.5067;-0.0003;0.0314;0.0176
0000165813;7.4436;2.2913;2.3343;-0.0083;0.0344;0.0326
0000165824;7.6136;2.6528;2.3224;-0.0344;0.0364;0.0481
0000165832;7.5633;2.5019;2.4253;-0.0545;0.0428;0.0565
0000165844;7.9847;2.7773;2.3942;-0.0565;0.0306;0.0405
0000165852;7.7812;2.8467;2.3296;-0.0677;0.0281;0.0266
0000165863;7.8099;2.8778;2.5546;-0.0694;0.0230;0.0013
0000165871;7.6782;2.7605;2.5307;-0.0770;0.0362;0.0064
0000165879;7.7309;2.5474;2.6001;-0.0725;0.0437;0.0059
0000165891;7.4651;2.2338;2.6480;-0.0460;0.0626;0.0222
0000165899;7.5968;2.4014;2.6288;-0.0256;0.0617;0.0216
0000165967;7.9631;2.3439;2.7773;0.0273;0.0750;0.0404
0000165975;7.8650;2.3535;2.7126;0.0694;0.0713;0.0281
0000165987;7.5896;2.4660;2.5690;0.0793;0.0698;0.0064
0000165995;7.5992;2.6073;2.4134;0.0786;0.0742;-0.0003
0000166003;7.6255;2.5762;2.3918;0.0718;0.0654;-0.0144
0000166014;7.7572;2.8228;2.2793;0.0612;0.0404;-0.0504
0000166022;7.6040;2.8730;2.3966;0.0517;0.0333;-0.0759
0000166034;7.7644;2.7366;2.6240;0.0727;0.0532;-0.1107
0000166042;7.9152;2.6217;2.5355;0.1116;0.0413;-0.1494
0000166053;7.9511;2.7892;2.5355;0.1515;0.0406;-0.2060
0000166061;7.8961;2.6839;2.3463;0.1729;0.0300;-0.2634
0000166069;7.9224;2.7270;2.5762;0.1739;0.0846;-0.2912
0000166081;8.0373;2.9161;2.7653;0.2485;0.1515;-0.3627
0000166089;7.9104;2.8922;2.7126;0.3663;0.1438;-0.4727
0000166100;8.0541;3.0742;2.6312;0.4838;0.1210;-0.6475
0000166108;8.0732;3.0789;2.7964;0.4748;0.1928;-0.7013
0000166120;7.6423;3.4429;1.2665;0.5998;-0.0242;-0.8439
0000166128;7.4005;3.6416;1.7047;0.5389;-0.0907;-0.9329
0000166139;7.0102;3.4572;1.4006;0.3096;-0.0714;-0.9305
0000166147;6.7062;3.2657;1.4581;0.2353;-0.0681;-0.9068
0000166155;6.5242;2.7749;1.9130;0.1536;-0.0600;-0.8497
0000166167;5.7485;2.1308;1.9728;0.1230;-0.0886;-0.7160
0000166175;5.5785;1.9010;2.1069;0.1170;-0.1279;-0.6155
0000166243;7.1850;1.6448;2.7270;-0.1340;-0.0272;0.0454
0000166251;6.8402;1.8603;2.7366;-0.0785;0.0241;0.0778
0000166263;6.4428;2.0997;2.2841;-0.0404;0.0694;0.1235
0000166271;6.5936;2.4493;2.0063;-0.0530;0.0714;0.1482
0000166279;6.5074;2.6671;1.8699;-0.0879;0.0655;0.1801
0000166290;6.4284;2.8491;1.6137;-0.1648;0.0264;0.2337
0000166298;6.1603;2.8611;1.4341;-0.2113;-0.0348;0.2797
0000166310;6.3470;2.9042;1.9034;-0.3120;-0.0706;0.3580
0000166318;6.6008;2.7916;2.2027;-0.3309;-0.0794;0.3813
0000166329;7.0605;2.6121;2.7126;-0.3075;-0.0417;0.3834
0000166337;7.4915;2.6193;2.6384;-0.2225;-0.0209;0.3363
0000166345;7.6758;2.6935;3.0742;-0.1198;0.0402;0.2558
0000166357;7.6591;2.8635;2.6504;0.0314;0.0833;0.1204
0000166365;7.5058;3.0430;2.3870;0.0814;0.0958;0.0254
0000166376;7.0485;3.2465;2.0853;0.0460;0.0969;-0.0188
0000166384;6.6008;2.8730;2.0686;0.0183;0.0779;-0.0286
0000166396;6.4093;2.7078;2.1955;0.0011;0.0428;-0.0071
0000166404;6.3877;2.6935;2.3152;-0.0008;0.0350;0.0149
0000166412;6.5050;2.5642;2.4038;0.0140;0.0276;0.0254
0000166423;6.5098;2.4205;2.4038;0.0389;0.0226;0.0408
0000166431;6.6750;2.5546;2.4205;0.0430;0.0229;0.0418
0000166443;7.0653;2.7318;2.2601;0.0270;0.0168;0.0360
0000166451;6.9647;2.8802;2.3152;0.0025;0.0163;0.0401
0000166519;6.7397;3.2082;2.3631;-0.2029;-0.2033;0.0934
0000166527;6.8761;3.2465;2.4373;-0.2523;-0.2629;0.0851
0000166535;6.8953;3.2585;2.3846;-0.2888;-0.3254;0.0666
0000166547;6.9528;3.0167;2.4995;-0.3074;-0.4050;0.0322
0000166555;7.2329;2.8850;2.7533;-0.3108;-0.4451;0.0075
0000166566;7.4603;2.3032;2.6288;-0.2879;-0.4808;-0.0328
0000166574;7.4986;1.7382;2.6671;-0.2458;-0.4919;-0.0681
0000166586;7.7620;1.4772;2.5163;-0.1713;-0.4714;-0.1069
0000166594;7.7907;1.4676;2.4229;-0.1082;-0.4370;-0.1255
0000166605;7.7476;1.7502;2.1979;-0.0534;-0.3856;-0.1350
0000166613;7.7452;2.1596;2.1644;-0.0171;-0.3535;-0.1263
0000166621;7.4986;2.3655;2.0566;0.0081;-0.3199;-0.1074
0000166633;7.3885;3.0215;1.9058;0.0420;-0.2919;-0.0822
0000166641;7.3095;2.8252;1.9537;0.0617;-0.2791;-0.0589
0000166652;7.6375;2.6887;1.7549;0.1184;-0.2463;-0.0352
0000166660;8.0852;2.4804;1.7047;0.1597;-0.2130;-0.0157
0000166672;8.6215;2.1979;1.5012;0.2206;-0.1264;0.0051
0000166680;9.1794;2.2889;1.4988;0.2457;-0.0576;0.0218
0000166688;9.1051;2.3367;1.4964;0.2585;0.0127;-0.0093
0000166699;8.8514;2.7892;1.5658;0.1917;0.1231;-0.0686
0000166707;7.9990;2.8204;1.6089;0.0974;0.1740;-0.1259
0000166719;6.7636;3.1436;1.7454;-0.0338;0.2260;-0.2033
0000166727;5.8466;3.5769;1.9824;-0.1019;0.2212;-0.2324
0000166795;8.0685;0.9864;2.6145;0.1128;-0.2809;0.0446
0000166803;9.0788;0.9313;2.5618;0.1272;-0.2073;0.0402
0000166811;9.6103;1.3120;2.3176;0.1174;-0.1256;0.0485
0000166823;9.7181;2.0734;2.4780;0.0605;0.0408;0.0734
0000166831;9.3757;2.7102;2.5929;0.0208;0.1356;0.0731
0000166842;8.2672;3.1915;2.5666;-0.0228;0.2707;0.0652
0000166850;7.2712;3.2944;2.5809;-0.0413;0.3235;0.0485
0000166862;6.4979;3.3303;2.1787;-0.0723;0.3545;0.0404
0000166870;6.0214;3.0047;2.0997;-0.1108;0.3679;0.0428
0000166878;5.8802;2.6073;2.1787;-0.1439;0.3738;0.0458
0000166889;6.0142;2.2482;2.1117;-0.1749;0.3718;0.0560
0000166897;6.1292;1.9154;2.0806;-0.1759;0.3569;0.0713
0000166909;6.3710;1.8052;2.1356;-0.1533;0.3363;0.1062
0000166917;6.6822;2.0231;2.0853;-0.1267;0.3152;0.1352
0000166929;6.7493;2.2913;2.0255;-0.0929;0.2615;0.1568
0000166937;6.9145;2.4828;2.0423;-0.0781;0.2254;0.1563
0000166945;7.1682;2.7438;1.9561;-0.0634;0.1896;0.1423
0000166956;7.3287;3.1101;1.8555;-0.0450;0.1500;0.1138
0000166964;7.4388;3.1771;2.1787;-0.0401;0.1641;0.0934
0000166976;7.3358;3.1029;2.0710;0.0003;0.1916;0.0554
0000166984;7.0246;2.6671;1.9776;0.0103;0.1936;0.0332
0000166996;6.7181;2.5139;1.8459;0.0001;0.2093;0.0221
0000167004;6.7636;2.4038;1.8627;0.0105;0.2109;0.0229
0000167012;6.7660;2.4301;1.8747;0.0164;0.2120;0.0197
0000167081;6.5888;2.7677;2.0375;0.0921;0.0625;0.0097
0000167089;6.7540;2.5570;2.0087;0.0805;0.0597;0.0113
0000167100;6.8091;2.6025;2.0686;0.0698;0.0584;0.0155
0000167108;6.7229;2.4349;2.0949;0.0663;0.0610;0.0199
0000167120;6.5625;2.4134;2.1284;0.0649;0.0600;0.0257
0000167128;6.4787;2.5211;2.1572;0.0604;0.0703;0.0377
0000167136;6.7038;2.8898;2.1596;0.0665;0.0687;0.0380
0000167147;6.5314;2.7988;2.2553;0.0710;0.0699;0.0322
0000167155;6.6655;2.9832;2.1596;0.0679;0.0750;0.0290
0000167167;6.3231;2.8970;2.0423;0.0550;0.0779;0.0253
0000167175;6.1196;3.0742;2.0973;0.0314;0.0810;0.0276
0000167186;6.1004;3.0191;2.1644;0.0068;0.0670;0.0188
0000167194;6.0406;3.1316;2.2458;-0.0027;0.0679;0.0185
0000167202;5.9903;3.0143;2.2386;-0.0207;0.0709;0.0075
0000167214;6.2584;3.2274;2.2817;-0.0416;0.0882;-0.0153
0000167222;6.4715;3.1292;2.2458;-0.0576;0.0970;-0.0310
0000167233;6.3231;2.9329;2.2577;-0.0663;0.1167;-0.0242
0000167241;6.4069;2.8611;2.2505;-0.0683;0.1292;-0.0304
0000167253;6.2513;2.7318;2.1620;-0.0757;0.1414;-0.0124
0000167261;6.0047;2.7461;2.0518;-0.0822;0.1355;-0.0097
0000167269;5.8083;2.6336;2.0279;-0.0973;0.1326;0.0191
0000167281;5.6862;2.6121;1.9728;-0.1151;0.1168;0.0476
0000167289;5.7724;2.7126;1.9992;-0.1195;0.1096;0.0782
0000167357;6.2513;2.5139;2.3918;-0.1873;-0.0073;0.1729
0000167365;6.2800;2.4301;2.3320;-0.1689;-0.0380;0.1668
0000167376;6.3327;2.4995;2.4229;-0.1432;-0.0608;0.1514
0000167384;6.4691;2.5307;2.3655;-0.1215;-0.0799;0.1438
0000167392;6.4859;2.7126;2.2769;-0.1050;-0.0890;0.1375
0000167404;6.5170;2.6911;2.1859;-0.0838;-0.1091;0.1182
0000167412;6.4859;3.0071;2.2122;-0.0833;-0.1102;0.1077
0000167424;6.2728;2.8299;2.1428;-0.0644;-0.1342;0.0893
0000167432;6.1435;2.8491;2.0853;-0.0613;-0.1367;0.0813
0000167444;5.8107;2.5618;2.1021;-0.0462;-0.1768;0.0601
0000167452;5.5474;2.5307;2.1500;-0.0392;-0.1986;0.0482
0000167463;5.6862;2.7773;2.0901;-0.0136;-0.2423;0.0468
0000167471;5.4588;2.5019;2.0303;-0.0047;-0.2821;0.0306
0000167479;5.5498;2.4277;2.0303;0.0057;-0.3179;0.0378
0000167491;5.7221;2.5546;1.9249;0.0087;-0.3645;0.0401
0000167499;5.8778;2.5139;1.8747;0.0028;-0.3854;0.0454
0000167510;6.1818;2.5355;2.0207;0.0025;-0.4004;0.0590
0000167518;5.8921;2.2960;2.0542;0.0001;-0.4151;0.0612
0000167530;6.0693;2.3703;1.9944;-0.0048;-0.4278;0.0722
0000167538;6.0765;2.3296;1.9944;-0.0076;-0.4285;0.0755
0000167546;6.1124;2.5690;2.0087;-0.0213;-0.4309;0.0809
0000167558;6.3997;2.6863;1.9249;-0.0469;-0.4401;0.0670
0000167566;6.0956;2.5618;2.1021;-0.0450;-0.4409;0.0630
0000167635;5.9759;2.3296;2.1668;-0.0763;-0.4788;0.0318
0000167642;6.1723;2.4517;2.2984;-0.0754;-0.4750;0.0358
0000167653;6.2106;2.3990;2.3942;-0.0906;-0.4635;0.0292
0000167661;6.5218;2.4253;2.4445;-0.1013;-0.4546;0.0161
0000167673;6.3638;2.2936;2.5738;-0.0983;-0.4214;0.0061
0000167681;6.4165;2.2410;2.6815;-0.1055;-0.3880;0.0011
0000167689;6.4548;2.3176;2.5786;-0.1179;-0.3652;-0.0128
0000167701;6.2130;2.2194;2.7031;-0.1323;-0.3323;-0.0302
0000167709;6.4045;2.3056;2.7078;-0.1427;-0.3240;-0.0310
0000167721;6.2944;2.3415;2.7677;-0.1721;-0.3180;-0.0246
0000167729;6.0885;2.2434;2.7964;-0.1883;-0.3167;-0.0172
0000167740;5.7772;2.0758;3.0670;-0.2030;-0.3417;-0.0161
0000167748;5.5617;1.8747;3.2322;-0.2026;-0.3668;-0.0115
0000167756;5.2840;1.5299;3.2298;-0.1984;-0.4000;-0.0103
0000167768;5.3486;1.5443;3.3806;-0.1879;-0.4535;-0.0200
0000167776;5.2696;1.5036;3.3255;-0.1783;-0.4983;-0.0199
0000167787;5.5043;1.5658;3.3806;-0.1815;-0.5614;-0.0189
0000167795;5.4899;1.4461;3.1292;-0.1900;-0.5963;0.0056
0000167807;5.7652;1.2905;2.9281;-0.2041;-0.6430;0.0372
0000167815;5.6312;1.2737;2.9999;-0.2344;-0.6431;0.0389
0000167827;6.1004;1.4269;3.0382;-0.2697;-0.6247;0.0432
0000167835;6.3087;1.2234;3.1388;-0.2924;-0.6153;0.0626
0000167843;6.5529;1.0894;3.0670;-0.3259;-0.5986;0.0743
0000167911;6.4260;-0.6512;4.2425;-0.4683;-0.4337;0.0332
0000167919;6.3542;-0.9433;3.9121;-0.3373;-0.3877;0.0781
0000167931;6.7445;-0.7015;2.9568;-0.2194;-0.3415;0.1827
0000167939;6.9001;-0.1580;2.7438;-0.2322;-0.3254;0.2745
0000167951;6.9312;1.1205;2.6073;-0.3501;-0.2890;0.3981
0000167959;6.7756;1.2546;2.6647;-0.4467;-0.2525;0.4458
0000167970;6.7588;1.3838;2.9113;-0.4720;-0.2281;0.4410
0000167978;6.5984;0.6704;2.9497;-0.4157;-0.2402;0.3988
0000167986;7.0294;0.2107;2.8491;-0.3460;-0.2702;0.3564
0000167998;7.3598;-0.9146;2.4373;-0.2309;-0.3114;0.2986
0000168006;7.5393;-1.1827;2.1691;-0.1787;-0.3517;0.2567
0000168017;7.5968;-1.1684;2.0423;-0.1370;-0.3669;0.1955
0000168025;7.2185;-1.0032;2.0231;-0.1392;-0.3481;0.1608
0000168037;6.8426;-0.0982;1.6352;-0.1323;-0.2924;0.1232
0000168045;6.2776;0.4501;1.4844;-0.1506;-0.2550;0.0855
0000168056;5.9424;1.0008;1.7454;-0.1876;-0.2210;0.0405
0000168064;5.6527;1.1061;1.9561;-0.2411;-0.1966;0.0188
0000168072;5.7413;1.1133;2.1308;-0.2886;-0.1649;0.0236
0000168084;5.1356;0.1077;2.4062;-0.3601;-0.1828;0.0525
0000168092;5.2241;-0.5818;2.5786;-0.3906;-0.2081;0.0917
0000168104;5.4037;-1.5395;2.9137;-0.4337;-0.2078;0.1847
0000168112;5.4612;-2.2553;2.7964;-0.4319;-0.2186;0.2294
0000168180;7.5465;-4.5610;0.1389;-0.6403;-0.6855;0.1948
0000168188;7.5274;-5.0182;-0.1796;-0.6515;-0.7096;0.1688
0000168199;6.8235;-4.8363;-0.2514;-0.7035;-0.7646;0.1319
0000168207;5.9855;-4.6160;-0.5459;-0.6997;-0.7834;0.1222
0000168215;5.4061;-4.5801;-0.9816;-0.6282;-0.8247;0.0975
0000168227;5.2696;-5.0422;-1.2809;-0.5498;-0.8937;0.0374
0000168235;5.4660;-4.8746;-1.5275;-0.5036;-0.9001;0.0677
0000168247;5.4348;-4.7812;-1.9201;-0.3861;-0.8832;0.3324
0000168255;5.2218;-4.8794;-1.9872;-0.3710;-0.8859;0.6046
0000168267;5.2625;-5.0063;-0.7997;-0.4724;-0.9080;1.0929
0000168275;5.1595;-4.7477;0.2107;-0.5243;-0.9583;1.4670
0000168287;5.4444;-3.4596;1.3958;-0.4198;-1.1090;2.0125
0000168295;6.3207;-2.9185;3.0957;-0.3497;-1.1181;2.3370
0000168303;8.4420;-2.9209;5.1763;-0.2607;-1.0754;2.6133
0000168315;12.0764;-3.3854;11.5736;-0.0718;-0.8115;2.8120
0000168323;14.5256;-3.8978;19.3954;0.3220;-0.4920;2.7539
0000168335;16.3213;-3.6512;20.1161;1.0256;0.2922;2.3896
0000168343;12.9383;-2.4373;13.3884;0.7615;0.3515;2.3338
0000168355;6.0214;-0.8428;11.5951;0.5021;-0.4995;2.6392
0000168363;0.7542;-0.1101;10.0437;0.9630;-1.2585;2.8136
0000168375;-0.0790;-0.6081;3.2657;2.1188;-2.4367;2.8909
0000168383;-0.0096;-0.6009;-2.4565;2.5779;-3.4367;2.7339
0000168451;41.0031;6.4189;-13.2160;0.3981;-4.3657;4.3656
0000168459;71.6561;6.8283;-22.5654;3.3645;-4.3657;4.3656
0000168467;78.4508;0.5818;-20.2406;4.3656;-4.3657;4.3656
0000168479;75.9920;0.8978;-6.1651;1.9235;-4.2738;4.3656
0000168487;68.3760;0.2562;-11.9638;-0.9457;-2.1176;4.1506
0000168499;52.3612;-4.0797;-2.8515;-1.3210;-0.2875;3.9434
0000168507;34.4262;-5.0925;-0.4788;-0.3579;0.9988;3.5237
0000168520;19.4696;-2.4229;-4.3000;1.9918;2.5181;2.9989
0000168527;13.7523;3.9480;-7.6830;2.1354;2.4168;2.9609
0000168539;10.4986;10.4890;-9.6031;1.0040;2.1516;3.1404
0000168547;9.3709;9.7971;-8.2887;0.1832;2.1256;3.3124
0000168555;10.3262;5.1020;-4.5873;-0.3172;1.9822;3.3500
0000168567;13.7116;-1.3838;-1.0511;-0.4846;1.6948;3.2538
0000168575;15.9430;-4.8123;-0.0575;-0.2802;1.5644;2.9371
0000168587;16.4027;-8.8322;-1.1420;-0.0830;1.6595;2.5550
0000168595;15.5432;-9.2775;-1.8244;-0.0582;1.7345;2.4484
0000168607;13.2136;-9.0549;0.1389;0.0076;1.7188;2.3657
0000168615;12.1290;-8.1594;0.4142;0.1615;1.6290;2.3742
0000168627;10.8122;-7.6662;0.1700;0.2089;1.4393;2.5013
0000168635;11.6430;-8.1714;-1.9225;0.1769;1.3089;2.6008
0000168643;11.8728;-8.2001;-1.6735;0.1639;1.1763;2.6172
0000168655;11.1330;-8.7532;-1.6855;0.1174;0.9971;2.6063
0000168663;10.2855;-8.8155;-0.3639;0.1498;0.7795;2.6295
0000168731;15.9262;-14.9949;0.4070;0.4145;-0.7782;2.8210
0000168739;16.9821;-15.3851;0.4238;0.4462;-0.7789;2.7368
0000168751;20.7769;-17.8224;1.7358;0.3924;-0.6009;2.4112
0000168759;24.2892;-20.4489;1.0558;0.2698;-0.4293;1.9866
0000168771;28.7256;-25.6730;-1.5467;-0.3010;-0.2101;0.4759
0000168779;28.4742;-27.7344;-2.3152;-0.7012;-0.2434;-1.0749
0000168791;19.7929;-23.6356;-2.2290;0.0645;-0.0943;-1.5152
0000168799;16.3356;-19.8336;-1.5347;0.5272;0.1506;-1.3448
0000168807;13.6853;-16.6229;-2.2841;0.7635;0.2763;-1.2873
0000168819;11.2240;-13.0245;-2.4445;0.7789;0.1299;-1.1750
0000168827;11.2815;-11.6430;-1.8675;0.7362;0.3124;-1.1265
0000168839;10.6901;-10.5752;-2.6600;0.8756;0.2790;-0.9971
0000168847;10.1706;-10.1921;-3.1939;0.8407;0.1499;-0.7751
0000168859;9.2344;-9.4643;-3.0933;0.8751;0.1636;-0.4674
0000168867;7.7524;-9.0573;-4.0055;0.9992;0.1483;-0.3776
0000168879;5.4300;-8.2217;-4.9680;0.9598;0.1220;-0.2782
0000168887;5.2816;-7.1706;-4.6208;0.8402;0.0232;-0.1868
0000168899;6.1555;-5.6910;-3.1556;0.6245;-0.2852;0.0369
0000168907;8.4396;-5.2026;-1.9393;0.4790;-0.5348;0.2446
0000168915;11.7029;-5.3989;-1.5921;0.3018;-0.7548;0.4572
0000168927;16.4793;-7.8099;-1.2833;0.0461;-0.8565;0.6544
0000168935;18.3803;-9.6055;-1.4916;0.0250;-0.7378;0.5339
0000169003;22.3762;-12.3732;-1.5921;0.9314;0.5021;-0.4627
0000169011;21.6244;-11.2551;-1.7861;0.8827;0.6731;-0.4097
0000169023;19.8192;-10.9750;-1.3479;0.8744;0.8989;-0.2988
0000169031;18.4521;-10.7045;-1.4365;0.9395;1.0058;-0.2455
0000169043;16.6325;-10.3382;-1.3312;1.0553;1.0729;-0.2218
0000169051;15.9262;-9.6271;-1.3240;1.0978;1.0748;-0.1992
0000169063;14.8369;-8.4539;-1.0630;1.1014;1.0216;-0.2046
0000169071;14.2958;-8.1092;-0.5243;1.0796;0.9507;-0.2410
0000169079;13.7044;-7.7620;-0.1365;1.0363;0.8648;-0.2908
0000169091;13.0460;-7.6016;0.4669;0.9781;0.7280;-0.3573
0000169099;12.6414;-7.6902;0.6464;0.9241;0.6534;-0.3910
0000169111;12.2679;-7.7500;0.5938;0.8276;0.5201;-0.4307
0000169119;12.7372;-7.5944;-0.1437;0.7261;0.4594;-0.4394
0000169132;13.1992;-7.9655;-0.9768;0.5886;0.5328;-0.5061
0000169141;13.4434;-7.7476;0.3304;0.5027;0.6382;-0.6014
0000169154;13.7044;-7.6758;2.4110;0.2607;0.6884;-0.6014
0000169163;14.2623;-7.2281;3.9528;0.1166;0.6253;-0.5304
0000169176;15.6820;-7.0725;4.6017;0.0516;0.6416;-0.4005
0000169185;16.6421;-6.9743;3.9456;0.1018;0.6968;-0.3186
0000169194;17.4035;-7.0701;3.1508;0.0975;0.7266;-0.2008
0000169207;18.5407;-7.0820;2.8515;-0.1232;0.7751;0.0444
0000169216;18.5814;-7.4436;2.7222;-0.2935;0.8088;0.2034
0000169283;13.4363;-8.9064;3.7685;-0.4211;0.2554;-0.0221
0000169292;14.4897;-9.3541;3.8714;-0.4481;0.1583;-0.0814
0000169305;15.6413;-10.0796;4.0342;-0.4262;0.0869;-0.1379
0000169314;16.3811;-10.3406;3.9624;-0.3718;0.0851;-0.1637
0000169327;16.3285;-10.3980;3.7781;-0.2709;0.0733;-0.1925
0000169336;16.3524;-9.9335;3.6224;-0.2328;0.0818;-0.2053
0000169345;15.4857;-9.6869;3.4884;-0.2244;0.0597;-0.2253
0000169358;14.7124;-8.9807;3.9504;-0.2928;0.0067;-0.2518
0000169367;14.5687;-8.6622;3.7637;-0.3172;-0.1254;-0.2439
0000169380;14.6645;-8.7053;4.2569;-0.3289;-0.2558;-0.2539
0000169389;14.2910;-9.0884;3.5027;-0.3215;-0.3096;-0.2643
0000169402;14.1473;-9.4667;2.6839;-0.2205;-0.3773;-0.2368
0000169411;14.2024;-9.6630;2.7581;-0.1789;-0.3925;-0.1907
0000169424;14.7770;-9.5170;2.4301;-0.0589;-0.4029;-0.1732
0000169433;15.1649;-9.4355;2.2529;0.0103;-0.4026;-0.1984
0000169446;15.1074;-9.1770;2.2960;0.1066;-0.4008;-0.1779
0000169455;15.0619;-8.9807;2.3296;0.1597;-0.3854;-0.1436
0000169468;15.4115;-8.4252;2.1284;0.1868;-0.3545;-0.0925
0000169477;15.4713;-8.0613;1.9417;0.1588;-0.3180;-0.0449
0000169486;15.6772;-8.1451;1.9369;0.0853;-0.2899;-0.0144
0000169499;16.4625;-8.0804;2.1572;-0.0191;-0.2501;0.0144
0000169508;16.4482;-8.4300;2.3200;-0.0541;-0.2253;0.0204
0000169577;16.3356;-8.4348;1.9872;-0.0204;-0.0946;0.0525
0000169586;16.3739;-8.4013;2.0830;-0.0644;-0.0833;0.0642
0000169599;16.3835;-8.7604;2.1117;-0.1026;-0.0661;0.0811
0000169608;16.3261;-9.0190;2.0590;-0.1027;-0.0512;0.0930
0000169621;16.0052;-9.5936;2.1548;-0.0697;-0.0402;0.0813
0000169630;16.1297;-9.3494;2.1787;-0.0324;-0.0412;0.0714
0000169643;15.9310;-9.2775;2.0207;-0.0003;-0.0183;0.0565
0000169652;15.7538;-9.2344;2.0039;0.0181;-0.0068;0.0362
0000169661;15.7778;-9.0190;1.9872;0.0101;0.0193;0.0374
0000169674;15.5695;-8.9495;1.9441;0.0019;0.0418;0.0278
0000169683;15.3995;-9.1387;2.0686;0.0008;0.0549;0.0163
0000169696;15.4067;-9.3206;2.3032;-0.0036;0.0630;0.0045
0000169705;15.4067;-9.2464;2.3320;-0.0037;0.0702;-0.0049
0000169721;15.5360;-9.1219;2.4732;0.0253;0.0613;-0.0292
0000169730;15.5001;-9.1866;2.5833;0.0389;0.0630;-0.0430
0000169743;15.4115;-9.0549;2.6432;0.0569;0.0534;-0.0481
0000169752;15.5647;-9.0261;2.6695;0.0582;0.0401;-0.0502
0000169761;15.3540;-8.8298;2.5905;0.0517;0.0309;-0.0477
0000169831;15.4929;-8.7436;2.3894;-0.0276;-0.0446;-0.0468
0000169840;15.6557;-8.7077;2.3679;-0.0236;-0.0549;-0.0441
0000169853;15.4450;-8.9016;2.4014;-0.0278;-0.0537;-0.0361
0000169862;15.7586;-8.6981;2.4157;-0.0364;-0.0462;-0.0248
0000169874;15.6581;-8.8753;2.5019;-0.0438;-0.0458;-0.0143
0000169883;15.5767;-8.9136;2.3798;-0.0429;-0.0472;-0.0085
0000169896;15.7993;-8.6790;2.4684;-0.0398;-0.0384;0.0025
0000169905;15.5934;-8.8921;2.3870;-0.0376;-0.0350;0.0068
0000169917;15.6365;-8.9878;2.4086;-0.0356;-0.0313;0.0087
0000169926;15.7419;-8.9783;2.2936;-0.0365;-0.0345;0.0111
0000169935;15.6748;-8.8921;2.2649;-0.0284;-0.0324;0.0080
0000169948;15.5982;-9.0644;2.3343;-0.0232;-0.0254;0.0064
0000169957;15.7275;-9.0285;2.4493;-0.0167;-0.0276;0.0025
0000169969;15.6605;-9.0740;2.4181;-0.0016;-0.0316;-0.0009
0000169978;15.7898;-9.0692;2.4157;-0.0001;-0.0302;-0.0039
0000169991;15.6198;-9.1147;2.4038;0.0168;-0.0377;-0.0097
0000170000;15.6270;-9.0070;2.3343;0.0169;-0.0245;-0.0115
0000170012;15.5360;-9.1171;2.2817;0.0221;-0.0257;-0.0196
0000170021;15.6317;-8.7556;2.3631;0.0051;-0.0164;-0.0209
0000170034;15.5695;-8.7388;2.4421;-0.0051;-0.0125;-0.0195
0000170043;15.3780;-8.9543;2.3607;-0.0068;-0.0192;-0.0248
0000170052;15.3420;-8.9423;2.3750;-0.0151;-0.0203;-0.0248
0000170122;15.5216;-8.9471;2.3008;-0.0132;-0.0302;-0.0218
0000170131;15.5767;-9.0501;2.4086;-0.0169;-0.0286;-0.0185
0000170144;15.8113;-8.8514;2.3320;-0.0159;-0.0200;-0.0211
0000170153;15.6892;-8.9878;2.3846;-0.0191;-0.0161;-0.0179
0000170165;15.6365;-8.9495;2.3870;-0.0176;-0.0117;-0.0180
0000170174;15.5575;-9.0118;2.3750;-0.0097;-0.0149;-0.0257
0000170187;15.5982;-8.8322;2.3822;-0.0093;-0.0160;-0.0175
0000170196;15.6341;-8.9711;2.3559;-0.0036;-0.0181;-0.0230
0000170208;15.5695;-9.0022;2.3822;-0.0051;-0.0191;-0.0220
0000170217;15.5599;-8.9088;2.3535;-0.0005;-0.0177;-0.0199
0000170230;15.4498;-8.9615;2.4205;-0.0039;-0.0145;-0.0213
0000170239;15.6605;-8.6838;2.3703;-0.0016;-0.0145;-0.0175
0000170248;15.5934;-8.6622;2.3248;-0.0095;-0.0103;-0.0101
0000170260;15.6461;-8.7197;2.3990;-0.0185;-0.0059;-0.0065
0000170269;15.6868;-8.7340;2.4349;-0.0277;-0.0043;-0.0004
0000170282;15.6964;-8.9735;2.5019;-0.0300;-0.0079;0.0043
0000170291;15.5432;-9.0046;2.4828;-0.0169;-0.0123;0.0007
0000170303;15.5264;-9.1147;2.4157;-0.0125;-0.0153;0.0004
0000170312;15.6509;-8.9423;2.4421;-0.0001;-0.0256;-0.0080
0000170325;15.5144;-8.9328;2.4277;-0.0040;-0.0234;-0.0137
0000170334;15.4234;-9.0597;2.4181;-0.0071;-0.0248;-0.0195
0000170403;15.6078;-8.7963;2.3990;-0.0087;-0.0278;-0.0273
0000170412;15.4522;-9.0477;2.4469;-0.0111;-0.0201;-0.0232
0000170421;15.4737;-8.8921;2.4014;-0.0100;-0.0250;-0.0212
0000170434;15.5408;-8.8633;2.4421;-0.0112;-0.0274;-0.0196
0000170443;15.5288;-8.9591;2.4205;-0.0031;-0.0289;-0.0187
0000170455;15.5479;-8.9519;2.4469;-0.0005;-0.0293;-0.0208
0000170464;15.5671;-8.9687;2.4588;-0.0051;-0.0222;-0.0183
0000170477;15.4211;-8.9759;2.4277;-0.0011;-0.0257;-0.0215
0000170486;15.5168;-8.9807;2.4134;-0.0017;-0.0292;-0.0167
0000170498;15.5384;-8.8825;2.4493;-0.0023;-0.0242;-0.0188
0000170507;15.4689;-8.9902;2.3822;-0.0049;-0.0276;-0.0201
0000170520;15.4689;-8.9256;2.3655;-0.0155;-0.0237;-0.0152
0000170529;15.6150;-8.8418;2.3966;-0.0167;-0.0215;-0.0091
0000170541;15.6700;-8.7412;2.4756;-0.0203;-0.0163;-0.0043
0000170550;15.5025;-8.9495;2.5570;-0.0199;-0.0252;-0.0061
0000170559;15.4857;-8.9711;2.5091;-0.0181;-0.0215;-0.0060
0000170572;15.4354;-9.0118;2.4517;-0.0200;-0.0224;-0.0063
0000170581;15.5312;-9.0549;2.4493;-0.0097;-0.0296;-0.0157
0000170593;15.4737;-8.9615;2.3966;-0.0059;-0.0310;-0.0152
0000170602;15.5671;-9.0453;2.3798;-0.0128;-0.0318;-0.0123
0000170615;15.4522;-8.9735;2.4780;-0.0089;-0.0393;-0.0175
0000170624;15.5934;-8.9735;2.4708;-0.0071;-0.0417;-0.0185
0000170694;15.5120;-9.0190;2.4708;-0.0153;-0.0449;-0.0161
0000170703;15.6413;-8.9112;2.3798;-0.0155;-0.0422;-0.0081
0000170716;15.6796;-8.7939;2.5426;-0.0167;-0.0416;-0.0089
0000170725;15.6150;-8.7867;2.5211;-0.0177;-0.0465;-0.0116
0000170737;15.7108;-8.8011;2.5570;-0.0169;-0.0417;-0.0064
0000170746;15.4977;-8.9998;2.4086;-0.0152;-0.0364;-0.0051
0000170755;15.6677;-8.8921;2.4205;-0.0149;-0.0362;-0.0091
0000170768;15.5695;-9.0166;2.4588;-0.0159;-0.0362;-0.0104
0000170777;15.5072;-8.9399;2.3942;-0.0205;-0.0337;-0.0109
0000170789;15.7060;-8.7676;2.4086;-0.0169;-0.0369;-0.0053
0000170798;15.4234;-9.0549;2.4181;-0.0105;-0.0425;-0.0132
0000170811;15.5839;-9.0597;2.4469;-0.0101;-0.0401;-0.0119
0000170820;15.4450;-9.0070;2.4301;-0.0107;-0.0396;-0.0117
0000170832;15.5982;-8.8657;2.4301;-0.0155;-0.0310;-0.0081
0000170841;15.5072;-8.7556;2.4134;-0.0152;-0.0305;-0.0107
0000170854;15.2918;-8.9543;2.4086;-0.0233;-0.0261;-0.0041
0000170863;15.4282;-8.8825;2.4134;-0.0261;-0.0264;0.0004
0000170875;15.7108;-8.9256;2.5402;-0.0290;-0.0314;0.0035
0000170884;15.5863;-8.9567;2.4708;-0.0269;-0.0312;-0.0015
0000170893;15.5503;-9.0309;2.5211;-0.0216;-0.0320;-0.0036
0000170906;15.4905;-9.0908;2.5450;-0.0156;-0.0286;0.0001
0000170915;15.6653;-8.9926;2.5259;-0.0105;-0.0334;-0.0047
0000170985;15.6317;-8.9543;2.3798;-0.0181;-0.0390;-0.0159
0000170994;15.4713;-9.0070;2.3750;-0.0145;-0.0433;-0.0204
0000171007;15.5456;-8.8538;2.3942;-0.0205;-0.0386;-0.0136
0000171016;15.6198;-8.9256;2.4612;-0.0195;-0.0366;-0.0139
0000171028;15.4187;-8.9376;2.4995;-0.0189;-0.0413;-0.0105
0000171037;15.7179;-8.9160;2.5235;-0.0199;-0.0393;-0.0119
0000171050;15.6461;-8.7412;2.5690;-0.0113;-0.0460;-0.0129
0000171059;15.6078;-8.8969;2.4397;-0.0147;-0.0390;-0.0097
0000171071;15.5288;-9.0716;2.4181;-0.0113;-0.0394;-0.0099
0000171080;15.6102;-8.8298;2.5881;-0.0092;-0.0450;-0.0099
0000171089;15.4785;-8.9232;2.4852;-0.0188;-0.0373;-0.0080
0000171102;15.5384;-8.8466;2.4157;-0.0207;-0.0405;-0.0028
0000171111;15.4354;-8.9495;2.4038;-0.0199;-0.0425;-0.0140
0000171123;15.6341;-8.8609;2.3655;-0.0240;-0.0353;-0.0077
0000171132;15.5599;-8.9256;2.4277;-0.0213;-0.0410;-0.0140
0000171145;15.6748;-8.7436;2.4014;-0.0249;-0.0304;-0.0008
0000171154;15.4522;-8.8729;2.5211;-0.0276;-0.0301;-0.0033
0000171165;15.6102;-8.9854;2.5522;-0.0237;-0.0342;-0.0036
0000171174;15.5719;-8.9423;2.3846;-0.0242;-0.0378;-0.0015
0000171188;15.7155;-8.8155;2.3990;-0.0224;-0.0269;-0.0035
0000171197;15.6246;-9.0501;2.4972;-0.0125;-0.0314;-0.0153
0000171206;15.6988;-8.9112;2.3798;-0.0137;-0.0310;-0.0107
0000171276;15.6078;-8.9878;2.3535;-0.0250;-0.0290;-0.0080
0000171285;15.5743;-9.0046;2.4732;-0.0197;-0.0336;-0.0112
0000171297;15.4546;-9.0333;2.4541;-0.0205;-0.0308;-0.0047
0000171306;15.4258;-9.0621;2.4469;-0.0163;-0.0342;-0.0135
0000171319;15.6365;-8.9447;2.4421;-0.0179;-0.0309;-0.0112
0000171328;15.4522;-9.0381;2.5163;-0.0221;-0.0241;-0.0076
0000171340;15.3756;-9.0190;2.4660;-0.0187;-0.0333;-0.0171
0000171349;15.6270;-9.0309;2.4804;-0.0152;-0.0360;-0.0088
0000171362;15.4713;-8.9615;2.4110;-0.0175;-0.0313;-0.0085
0000171371;15.6988;-8.8921;2.4924;-0.0192;-0.0313;-0.0059
0000171383;15.5264;-9.0333;2.4684;-0.0152;-0.0318;-0.0139
0000171392;15.4546;-8.9807;2.4541;-0.0203;-0.0284;-0.0064
0000171401;15.6174;-8.8681;2.4229;-0.0139;-0.0401;-0.0089
0000171414;15.6461;-8.9807;2.4301;-0.0144;-0.0361;-0.0145
0000171423;15.7179;-8.8394;2.4565;-0.0205;-0.0278;-0.0097
0000171435;15.3492;-9.1075;2.4134;-0.0199;-0.0278;-0.0077
0000171444;15.4522;-8.9495;2.3727;-0.0160;-0.0298;-0.0167
0000171457;15.4737;-8.9256;2.4804;-0.0149;-0.0350;-0.0193
0000171466;15.3875;-9.0118;2.5498;-0.0196;-0.0297;-0.0137
0000171478;15.5336;-8.9136;2.4660;-0.0165;-0.0366;-0.0161
0000171487;15.5456;-8.9663;2.3990;-0.0179;-0.0345;-0.0096
0000171556;15.5815;-8.8873;2.4708;-0.0274;-0.0380;-0.0037
0000171565;15.6389;-8.8011;2.4325;-0.0370;-0.0312;-0.0013
0000171577;15.6509;-8.9998;2.5019;-0.0304;-0.0296;-0.0004
0000171586;15.7251;-8.9735;2.4493;-0.0285;-0.0229;0.0005
0000171595;15.5647;-9.0764;2.5307;-0.0222;-0.0254;-0.0008
0000171608;15.6030;-8.9759;2.4517;-0.0065;-0.0325;-0.0128
0000171617;15.5312;-8.9328;2.4086;-0.0096;-0.0276;-0.0119
0000171629;15.5336;-9.0884;2.5067;-0.0083;-0.0301;-0.0140
0000171638;15.4354;-9.1267;2.4445;-0.0023;-0.0374;-0.0192
0000171651;15.6078;-8.9495;2.4086;-0.0033;-0.0370;-0.0199
0000171660;15.5503;-8.8394;2.3990;-0.0104;-0.0304;-0.0165
0000171672;15.5982;-8.8466;2.4948;-0.0095;-0.0348;-0.0200
0000171681;15.4618;-8.9830;2.4612;-0.0147;-0.0318;-0.0177
0000171694;15.6198;-8.9878;2.5307;-0.0116;-0.0358;-0.0185
0000171703;15.6078;-8.8131;2.4421;-0.0100;-0.0405;-0.0149
0000171715;15.7036;-8.8825;2.4469;-0.0116;-0.0440;-0.0180
0000171724;15.5839;-8.9974;2.4277;-0.0167;-0.0352;-0.0112
0000171733;15.4785;-8.8873;2.5115;-0.0180;-0.0340;-0.0085
0000171746;15.5551;-9.0621;2.4876;-0.0172;-0.0433;-0.0096
0000171755;15.6293;-8.9399;2.3583;-0.0145;-0.0421;-0.0132
0000171767;15.5144;-9.0046;2.4876;-0.0177;-0.0340;-0.0109
0000171776;15.6485;-8.8681;2.4397;-0.0101;-0.0473;-0.0179
0000171845;15.5360;-8.9543;2.5043;-0.0195;-0.0274;-0.0011
0000171854;15.4905;-9.0573;2.4565;-0.0165;-0.0257;-0.0027
0000171866;15.6629;-8.9926;2.4876;-0.0205;-0.0242;-0.0075
0000171875;15.6796;-8.9783;2.4780;-0.0145;-0.0258;-0.0085
0000171888;15.4067;-9.0525;2.4588;-0.0105;-0.0278;-0.0093
0000171897;15.5216;-9.0644;2.4373;-0.0056;-0.0286;-0.0199
0000171909;15.5910;-9.0549;2.4900;-0.0076;-0.0288;-0.0177
0000171918;15.4809;-9.0094;2.4301;-0.0063;-0.0329;-0.0193
0000171927;15.4833;-8.9304;2.4565;-0.0149;-0.0321;-0.0179
0000171940;15.5360;-9.0214;2.4588;-0.0129;-0.0313;-0.0220
0000171949;15.5743;-8.9376;2.4205;-0.0100;-0.0293;-0.0192
0000171961;15.6868;-8.8466;2.4588;-0.0123;-0.0317;-0.0224
0000171970;15.6198;-8.8633;2.4588;-0.0161;-0.0249;-0.0141
0000171983;15.5886;-8.8825;2.4541;-0.0080;-0.0333;-0.0224
0000171992;15.5815;-8.9711;2.4253;-0.0168;-0.0285;-0.0104
0000172004;15.5360;-8.9639;2.4134;-0.0124;-0.0296;-0.0137
0000172013;15.5240;-9.0621;2.4517;-0.0084;-0.0332;-0.0189
0000172026;15.6030;-8.9615;2.4325;-0.0052;-0.0344;-0.0192
0000172035;15.5695;-9.0046;2.4924;-0.0152;-0.0261;-0.0123
0000172047;15.6150;-8.8681;2.4876;-0.0112;-0.0298;-0.0131
0000172056;15.3947;-9.0573;2.4325;-0.0153;-0.0191;-0.0125
0000172065;15.5982;-8.9807;2.4756;-0.0155;-0.0226;-0.0176
0000172134;15.5647;-8.9376;2.4708;-0.0065;-0.0216;-0.0133
0000172143;15.5743;-8.8825;2.4205;-0.0121;-0.0153;-0.0101
0000172155;15.5958;-8.9854;2.4086;-0.0117;-0.0205;-0.0180
0000172164;15.4211;-9.0046;2.5809;-0.0107;-0.0185;-0.0160
0000172177;15.6270;-8.8202;2.5115;-0.0051;-0.0242;-0.0148
0000172186;15.6222;-8.7795;2.4565;-0.0107;-0.0238;-0.0127
0000172198;15.4019;-9.0070;2.5402;-0.0095;-0.0274;-0.0165
0000172207;15.3971;-8.9280;2.4062;-0.0087;-0.0296;-0.0197
0000172220;15.4785;-9.0740;2.4876;-0.0097;-0.0313;-0.0152
0000172229;15.5647;-8.9232;2.4014;-0.0164;-0.0245;-0.0121
0000172241;15.6293;-8.8945;2.4565;-0.0111;-0.0310;-0.0184
0000172250;15.3133;-9.0860;2.5546;-0.0124;-0.0250;-0.0149
0000172259;15.5910;-8.9926;2.4828;-0.0151;-0.0268;-0.0109
0000172272;15.5360;-8.9783;2.4876;-0.0120;-0.0224;-0.0133
0000172281;15.5336;-8.9399;2.4708;-0.0109;-0.0226;-0.0119
0000172293;15.3947;-9.1267;2.5091;-0.0075;-0.0264;-0.0149
0000172302;15.7371;-8.9136;2.4852;-0.0120;-0.0180;-0.0132
0000172315;15.5072;-8.9447;2.5379;-0.0088;-0.0179;-0.0135
0000172324;15.3181;-9.0525;2.4541;-0.0144;-0.0213;-0.0145
0000172336;15.4809;-9.0812;2.5091;-0.0101;-0.0238;-0.0127
0000172345;15.5432;-9.0381;2.4684;-0.0043;-0.0340;-0.0256
0000172414;15.3875;-9.2536;2.5833;-0.0199;-0.0237;-0.0052
0000172423;15.8113;-9.0046;2.5738;-0.0155;-0.0218;-0.0043
0000172435;15.5791;-9.0309;2.4373;-0.0100;-0.0143;-0.0035
0000172444;15.4187;-9.1435;2.5163;-0.0012;-0.0188;-0.0135
0000172453;15.3540;-9.1004;2.5762;-0.0073;-0.0173;-0.0099
0000172466;15.3061;-9.0405;2.5809;-0.0047;-0.0222;-0.0128
0000172475;15.4282;-8.9663;2.4373;0.0035;-0.0338;-0.0209
0000172487;15.1960;-9.1363;2.3798;-0.0045;-0.0321;-0.0236
0000172496;15.5168;-8.9950;2.4708;-0.0001;-0.0349;-0.0241
0000172509;15.5072;-8.9136;2.5738;-0.0032;-0.0334;-0.0252
0000172518;15.5886;-8.8250;2.5402;-0.0079;-0.0313;-0.0285
0000172530;15.6078;-8.7795;2.5402;-0.0085;-0.0306;-0.0236
0000172539;15.3995;-8.9447;2.4421;-0.0109;-0.0313;-0.0286
0000172552;15.6341;-8.9088;2.5738;-0.0155;-0.0290;-0.0199
0000172561;15.5958;-8.8657;2.5283;-0.0127;-0.0384;-0.0200
0000172570;15.5049;-8.9423;2.5522;-0.0112;-0.0348;-0.0193
0000172582;15.6198;-8.9232;2.5570;-0.0145;-0.0348;-0.0136
0000172591;15.5743;-8.9998;2.4708;-0.0059;-0.0420;-0.0226
0000172605;15.4641;-8.9399;2.4181;-0.0065;-0.0380;-0.0183
0000172614;15.5432;-8.9687;2.5019;-0.0105;-0.0358;-0.0129
0000172683;15.6054;-8.8873;2.4756;-0.0236;-0.0296;0.0000
0000172692;15.4330;-9.0166;2.5043;-0.0188;-0.0316;-0.0031
0000172704;15.5312;-8.9687;2.5618;-0.0244;-0.0338;-0.0011
0000172713;15.3947;-9.1051;2.5666;-0.0129;-0.0402;-0.0119
0000172726;15.5599;-9.0237;2.5355;-0.0123;-0.0334;-0.0048
0000172735;15.7634;-8.8011;2.5091;-0.0089;-0.0376;-0.0088
0000172747;15.5503;-8.9064;2.5259;-0.0147;-0.0348;-0.0113
0000172756;15.4354;-9.0908;2.5307;-0.0129;-0.0352;-0.0147
0000172765;15.2966;-9.0692;2.6121;-0.0072;-0.0457;-0.0209
0000172778;15.4785;-8.8370;2.4995;-0.0111;-0.0433;-0.0195
0000172787;15.4402;-8.8466;2.4660;-0.0097;-0.0456;-0.0183
0000172799;15.4115;-8.9495;2.5115;-0.0153;-0.0388;-0.0179
0000172808;15.4402;-8.9615;2.5259;-0.0137;-0.0428;-0.0156
0000172821;15.5168;-8.9304;2.5570;-0.0155;-0.0432;-0.0189
0000172830;15.4522;-8.9447;2.5283;-0.0145;-0.0432;-0.0159
0000172842;15.5072;-9.1339;2.5786;-0.0152;-0.0429;-0.0112
0000172851;15.6892;-8.8897;2.5714;-0.0113;-0.0468;-0.0132
0000172864;15.5503;-9.0166;2.4924;-0.0169;-0.0434;-0.0135
0000172873;15.6605;-8.9926;2.5905;-0.0145;-0.0436;-0.0091
0000172885;15.6293;-8.8849;2.4972;-0.0176;-0.0418;-0.0099
0000172894;15.5360;-8.8681;2.4062;-0.0167;-0.0417;-0.0113
0000172903;15.5216;-8.9328;2.4684;-0.0179;-0.0457;-0.0089
0000172972;15.5767;-8.8585;2.4708;-0.0188;-0.0352;-0.0061
0000172981;15.4905;-9.0668;2.5331;-0.0084;-0.0393;-0.0155
0000172993;15.4713;-9.0142;2.5450;-0.0137;-0.0376;-0.0095
0000173002;15.6437;-8.9064;2.5043;-0.0136;-0.0302;-0.0100
0000173015;15.5049;-8.9304;2.4804;-0.0187;-0.0353;-0.0079
0000173024;15.4546;-8.9878;2.6073;-0.0135;-0.0401;-0.0136
0000173034;15.5934;-9.0740;2.4900;-0.0105;-0.0501;-0.0172
0000173042;15.4641;-9.0237;2.5426;-0.0163;-0.0406;-0.0105
0000173054;15.5456;-8.9304;2.5546;-0.0128;-0.0448;-0.0164
0000173062;15.6270;-8.9998;2.5067;-0.0123;-0.0449;-0.0144
0000173073;15.5456;-8.9399;2.4852;-0.0124;-0.0449;-0.0196
0000173081;15.4665;-8.8657;2.5474;-0.0135;-0.0418;-0.0147
0000173089;15.4618;-8.8585;2.5211;-0.0201;-0.0413;-0.0123
0000173101;15.7179;-8.8011;2.4445;-0.0208;-0.0360;-0.0100
0000173109;15.6006;-8.9615;2.4995;-0.0143;-0.0406;-0.0085
