time;acc_x;acc_y;acc_z;gyro_x;gyro_y;gyro_z
0000128279;4.8459;-16.3979;-0.5914;0.0207;-0.3583;-0.0452
0000128287;5.1140;-16.2207;-0.5100;0.0129;-0.3784;-0.0292
0000128294;5.2553;-16.3117;-0.5842;0.0121;-0.3938;-0.0254
0000128302;5.4181;-16.4386;-0.5674;0.0108;-0.3956;-0.0164
0000128311;5.8155;-16.4482;-0.3424;0.0104;-0.3926;-0.0119
0000128319;5.9807;-16.2878;-0.3208;0.0121;-0.3842;-0.0097
0000128331;6.3805;-16.3237;-0.1628;0.0069;-0.3363;-0.0017
0000128339;6.2656;-16.5415;-0.0766;0.0080;-0.3044;-0.0115
0000128350;6.4620;-16.2901;-0.0910;0.0028;-0.2337;-0.0176
0000128358;6.4667;-16.5032;-0.1149;0.0093;-0.2017;-0.0348
0000128366;6.5721;-16.4601;-0.1030;0.0289;-0.1685;-0.0452
0000128378;6.4069;-16.7570;0.1460;0.0620;-0.1061;-0.0329
0000128386;6.2058;-16.7953;0.1676;0.0966;-0.0648;-0.0260
0000128397;6.1723;-16.6373;0.0168;0.1370;-0.0099;-0.0232
0000128405;6.2776;-16.5391;0.0718;0.1516;0.0285;-0.0156
0000128417;6.1220;-16.2471;0.0694;0.1704;0.0793;-0.0289
0000128425;6.1555;-16.0747;-0.0311;0.1695;0.1140;-0.0280
0000128436;5.9065;-16.0459;0.1245;0.1767;0.1535;-0.0402
0000128444;5.7221;-15.8137;0.1030;0.1644;0.1848;-0.0437
0000128456;5.3151;-15.6916;0.0814;0.1315;0.2078;-0.0420
0000128464;5.4013;-15.5623;0.1652;0.0993;0.2166;-0.0452
0000128472;5.1332;-15.5934;0.0575;0.0661;0.2077;-0.0464
0000128537;5.1116;-16.5966;-0.0024;0.1094;0.1835;-0.1551
0000128544;5.4803;-16.2327;-0.0311;0.1013;0.2001;-0.1868
0000128556;5.5713;-15.8185;0.0000;0.0978;0.2254;-0.2349
0000128564;5.5785;-15.5910;-0.1053;0.0999;0.2507;-0.2562
0000128575;5.7245;-15.2918;-0.0790;0.0815;0.2882;-0.2822
0000128583;5.9161;-15.2223;-0.0144;0.0506;0.3107;-0.3035
0000128595;5.7988;-15.4689;0.0790;0.0005;0.3508;-0.3409
0000128603;6.0023;-15.5216;0.0455;-0.0461;0.3758;-0.3683
0000128611;5.9999;-15.6605;0.0048;-0.0891;0.4033;-0.3892
0000128622;6.1699;-15.9717;0.0982;-0.1384;0.4517;-0.4013
0000128630;6.2034;-16.1537;0.2179;-0.1543;0.5017;-0.3953
0000128642;6.6343;-16.3021;0.4645;-0.1557;0.6109;-0.3653
0000128650;6.7253;-16.8815;0.5746;-0.1435;0.7004;-0.3405
0000128661;7.4316;-16.9486;0.6847;-0.0785;0.8288;-0.3138
0000128669;7.6136;-17.1664;0.4286;-0.0304;0.9249;-0.3011
0000128681;7.5992;-17.1305;0.3232;0.0281;1.0345;-0.3031
0000128689;7.8458;-16.9007;0.5650;0.0646;1.0944;-0.3158
0000128700;7.4819;-16.7211;0.7829;0.0949;1.2037;-0.3222
0000128708;7.3310;-16.3045;0.6584;0.0987;1.2692;-0.3340
0000128716;6.9576;-16.1417;0.4573;0.0675;1.3158;-0.3384
0000128728;6.4907;-16.1752;0.2945;-0.0225;1.3177;-0.3472
0000128736;6.2297;-16.3763;0.4812;-0.0907;1.2745;-0.2848
0000128799;5.5258;-15.7802;0.4238;-0.0155;1.1107;0.3605
0000128807;5.1547;-15.4378;0.1628;0.1198;1.0387;0.2729
0000128819;5.3870;-14.4897;-0.3831;0.2069;0.9245;0.1607
0000128827;5.3271;-14.3556;-0.2729;0.1996;0.8252;0.1254
0000128838;5.3319;-14.2000;0.1820;0.1290;0.6692;0.1331
0000128846;5.5091;-14.4682;0.2921;0.0608;0.5469;0.1777
0000128854;5.9927;-14.6741;0.3136;-0.0132;0.4538;0.2461
0000128867;6.4787;-15.3397;0.0359;-0.1041;0.3680;0.3653
0000128874;7.2185;-15.7060;-0.2442;-0.1665;0.3537;0.4234
0000128885;8.0278;-16.2949;-0.6249;-0.2683;0.3922;0.4454
0000128893;8.5952;-16.8743;-0.7063;-0.3444;0.4567;0.4064
0000128905;9.4260;-17.8033;-0.8763;-0.4295;0.5709;0.2693
0000128913;9.7899;-18.0547;-0.8523;-0.4374;0.6403;0.1515
0000128924;9.6247;-18.4976;-0.8930;-0.4213;0.6999;-0.0274
0000128932;8.9974;-18.6173;-1.0223;-0.3874;0.7190;-0.1411
0000128940;8.6670;-18.4545;-1.1253;-0.3115;0.7084;-0.2459
0000128952;7.9176;-18.0164;-1.3815;-0.2146;0.6734;-0.3757
0000128960;7.4460;-17.6884;-1.5897;-0.1581;0.6439;-0.4439
0000128971;7.0940;-17.4872;-1.4198;-0.1088;0.6339;-0.4726
0000128979;7.0844;-17.1760;-1.2953;-0.0782;0.6154;-0.4776
0000128991;7.1730;-17.0563;-0.9457;-0.0217;0.5521;-0.4768
0000128999;7.2113;-16.9102;-0.7997;0.0181;0.5032;-0.4662
0000129067;6.7086;-15.7491;-0.4525;0.1884;0.3267;-0.3083
0000129075;6.4835;-15.7850;-0.3543;0.1809;0.2960;-0.2618
0000129087;6.2034;-15.8807;-0.1460;0.1573;0.2467;-0.1772
0000129095;6.1962;-15.6437;-0.1269;0.1432;0.2150;-0.1358
0000129106;5.7700;-15.6246;-0.1173;0.1376;0.1468;-0.0903
0000129114;5.7485;-15.6293;-0.1772;0.1338;0.0993;-0.0588
0000129122;5.9256;-15.5958;-0.0694;0.1380;0.0356;-0.0370
0000129134;6.1148;-15.4474;-0.0287;0.1637;-0.0408;0.0069
0000129142;6.0717;-15.6317;-0.0982;0.1835;-0.0979;0.0329
0000129153;6.3925;-15.6605;-0.1413;0.1645;-0.1591;0.0662
0000129161;6.5362;-15.6533;-0.2801;0.1443;-0.1828;0.0954
0000129173;6.7181;-15.8329;-0.2418;0.0850;-0.2186;0.1234
0000129181;6.7277;-16.0412;-0.0766;0.0577;-0.2591;0.1324
0000129192;6.5793;-16.1896;-0.0479;0.0533;-0.2922;0.1596
0000129200;6.3590;-16.2016;-0.2801;0.0632;-0.3252;0.1816
0000129212;6.1244;-16.2255;-0.2011;0.0705;-0.3845;0.2132
0000129220;5.9664;-16.1872;-0.2298;0.0870;-0.4154;0.2278
0000129228;5.8682;-16.0795;-0.1197;0.0986;-0.4466;0.2342
0000129239;6.2824;-15.8520;-0.2538;0.1224;-0.4808;0.2403
0000129247;6.1483;-15.9597;-0.3591;0.1266;-0.5012;0.2394
0000129259;6.4763;-15.9071;-0.3998;0.1054;-0.5085;0.2694
0000129267;6.7181;-15.7491;-0.3855;0.1019;-0.5107;0.2876
0000129335;7.1251;-16.5583;-0.3208;0.0213;-0.3147;0.3304
0000129343;6.7684;-16.6732;-0.1939;0.0405;-0.2974;0.3163
0000129355;6.5003;-16.5152;0.1676;0.1021;-0.2342;0.3230
0000129363;6.3231;-16.4817;-0.0048;0.1475;-0.1984;0.3509
0000129371;6.2010;-16.4458;-0.0814;0.1771;-0.1945;0.3561
0000129382;6.3231;-16.0292;-0.0383;0.1804;-0.1985;0.3488
0000129390;6.3446;-15.8233;-0.2442;0.1580;-0.2128;0.3224
0000129402;6.5003;-15.4665;-0.3089;0.0510;-0.2026;0.2978
0000129410;6.4284;-15.5408;-0.2945;-0.0380;-0.2060;0.2879
0000129421;6.3327;-15.8352;-0.2658;-0.1541;-0.2010;0.2947
0000129429;6.1890;-16.0076;-0.1891;-0.1905;-0.2057;0.3002
0000129441;6.1196;-16.2231;0.1125;-0.1727;-0.2020;0.3348
0000129449;6.0118;-16.3141;0.1676;-0.1166;-0.1949;0.3733
0000129460;5.8490;-16.5296;0.1389;-0.0274;-0.1792;0.4241
0000129468;6.0693;-16.3787;0.0192;0.0160;-0.1800;0.4584
0000129476;6.1962;-16.3404;-0.1269;0.0456;-0.2018;0.4534
0000129488;6.2560;-16.2207;-0.0479;0.0205;-0.2306;0.4415
0000129496;6.2058;-16.1992;0.1772;-0.0292;-0.2485;0.4249
0000129507;5.9975;-16.5511;0.5459;-0.1621;-0.2535;0.3976
0000129515;6.0789;-16.7283;0.8021;-0.2566;-0.2558;0.3617
0000129527;6.0310;-17.2406;1.0582;-0.3620;-0.2531;0.2813
0000129535;5.8634;-17.7482;1.3503;-0.3659;-0.2265;0.2173
0000129602;6.1555;-16.3476;0.3783;0.3296;0.0020;-0.2165
0000129610;6.4069;-15.9286;0.3998;0.3555;0.0364;-0.1860
0000129622;6.5625;-15.5815;0.4286;0.3415;0.0947;-0.1204
0000129630;6.4452;-15.5168;0.5148;0.2967;0.1468;-0.0610
0000129638;6.5218;-15.1337;0.4214;0.2380;0.1825;-0.0141
0000129650;6.1770;-15.2487;0.3232;0.1224;0.2136;0.0445
0000129658;5.9592;-15.3875;0.2945;0.0388;0.2274;0.0719
0000129669;5.5186;-15.7443;0.2179;-0.0290;0.2109;0.0815
0000129677;5.2098;-15.8975;0.4621;-0.0593;0.1921;0.0822
0000129689;4.6711;-16.2590;0.4166;-0.0702;0.1486;0.0809
0000129697;4.5538;-16.4146;0.5435;-0.0544;0.0929;0.0650
0000129708;4.2784;-16.6182;0.5171;-0.0233;0.0139;0.0309
0000129716;4.2473;-16.7522;0.5578;0.0043;-0.0502;-0.0004
0000129724;4.2114;-16.6996;0.6776;0.0382;-0.1196;-0.0353
0000129736;4.3574;-16.5152;0.5291;0.0810;-0.1935;-0.0630
0000129744;4.5035;-16.3189;0.4094;0.0919;-0.2463;-0.0655
0000129755;4.7812;-16.0172;0.4381;0.0837;-0.2939;-0.0585
0000129763;4.9656;-16.0268;0.2418;0.0749;-0.3204;-0.0418
0000129775;5.1308;-15.8999;0.1173;0.0281;-0.3317;-0.0009
0000129783;5.3750;-15.8137;0.0431;-0.0149;-0.3275;0.0248
0000129795;5.6767;-15.8400;0.0958;-0.0709;-0.3380;0.0460
0000129803;5.7581;-15.9621;0.2682;-0.0833;-0.3465;0.0332
0000129871;5.8179;-16.4841;0.3974;-0.0077;-0.3067;-0.0747
0000129879;5.7461;-16.4194;0.2753;-0.0068;-0.2984;-0.0714
0000129887;5.8299;-16.2901;0.2777;-0.0040;-0.2955;-0.0625
0000129898;5.8873;-16.2399;0.2921;-0.0027;-0.2991;-0.0574
0000129906;5.7628;-16.0890;0.3687;-0.0095;-0.3070;-0.0557
0000129918;5.5067;-16.0316;0.2801;-0.0268;-0.3255;-0.0369
0000129926;5.3774;-15.9813;0.2897;-0.0512;-0.3308;-0.0171
0000129937;5.1834;-16.2183;0.3304;-0.0717;-0.3549;0.0063
0000129945;5.2098;-16.1992;0.2442;-0.0785;-0.3753;0.0057
0000129957;5.3247;-16.2447;0.3208;-0.0845;-0.4001;0.0097
0000129965;5.3534;-16.2590;0.2251;-0.0765;-0.4174;0.0081
0000129976;5.2625;-16.3907;0.1820;-0.0695;-0.4354;-0.0019
0000129984;5.3343;-16.4506;0.1748;-0.0572;-0.4419;-0.0024
0000129992;5.4731;-16.4170;0.2107;-0.0430;-0.4514;-0.0061
0000130004;5.5138;-16.5080;0.2538;-0.0241;-0.4630;-0.0105
0000130012;5.6383;-16.4673;0.2873;-0.0217;-0.4557;-0.0129
0000130023;5.6144;-16.2901;0.1389;-0.0081;-0.4574;-0.0218
0000130031;5.7078;-16.2901;0.1197;-0.0005;-0.4604;-0.0258
0000130043;5.8012;-16.1441;0.0694;-0.0021;-0.4578;-0.0092
0000130051;5.9903;-16.0268;0.1053;-0.0120;-0.4509;0.0077
0000130063;5.6096;-16.1896;0.1460;-0.0416;-0.4331;0.0318
0000130071;5.7102;-16.2255;0.0455;-0.0553;-0.4278;0.0441
0000130139;5.6216;-16.4362;0.1580;0.0349;-0.3825;0.0452
0000130147;5.7006;-16.4027;0.1987;0.0446;-0.3752;0.0478
0000130155;5.8538;-16.3787;0.1125;0.0416;-0.3608;0.0497
0000130166;5.7940;-16.2878;0.0599;0.0452;-0.3527;0.0506
0000130174;5.8490;-16.3117;0.0144;0.0437;-0.3355;0.0500
0000130186;6.1268;-16.0795;0.0048;0.0413;-0.3112;0.0490
0000130194;5.9544;-16.3452;-0.0096;0.0420;-0.2963;0.0557
0000130205;6.0885;-16.0890;0.0287;0.0360;-0.2721;0.0568
0000130213;6.1316;-16.0699;0.0287;0.0274;-0.2545;0.0521
0000130225;6.0214;-16.1633;0.1389;0.0093;-0.2318;0.0452
0000130233;5.8658;-16.1130;0.1580;-0.0023;-0.2186;0.0482
0000130244;5.7844;-16.0842;0.1437;-0.0077;-0.2064;0.0421
0000130252;5.8203;-16.1465;0.1197;-0.0143;-0.1869;0.0408
0000130260;5.7293;-16.2183;0.1700;-0.0184;-0.1797;0.0373
0000130272;5.9687;-16.2375;0.3112;-0.0168;-0.1544;0.0354
0000130280;5.8490;-16.1417;0.3089;-0.0183;-0.1410;0.0305
0000130291;6.0358;-16.1106;0.2969;-0.0238;-0.1102;0.0218
0000130299;6.0813;-16.2111;0.3256;-0.0220;-0.0979;0.0092
0000130311;6.1292;-16.1034;0.2729;-0.0288;-0.0663;0.0064
0000130319;5.9640;-16.3213;0.3328;-0.0229;-0.0490;-0.0005
0000130331;5.9352;-16.0076;0.3208;-0.0333;-0.0257;-0.0092
0000130339;5.8012;-16.0938;0.2346;-0.0413;-0.0103;-0.0192
0000130407;5.3367;-15.9526;0.2107;-0.1932;-0.0196;-0.0314
0000130415;5.1715;-16.2279;0.2322;-0.2105;-0.0317;-0.0145
0000130423;5.0949;-16.3165;0.3017;-0.2197;-0.0521;0.0009
0000130434;5.2146;-16.5272;0.3567;-0.2136;-0.0798;0.0108
0000130442;5.2050;-16.5296;0.3448;-0.2102;-0.0945;0.0189
0000130454;5.4923;-16.5415;0.4429;-0.1785;-0.1262;0.0254
0000130462;5.5019;-16.7355;0.5076;-0.1613;-0.1302;0.0328
0000130473;5.3798;-16.8049;0.6105;-0.1159;-0.1584;0.0292
0000130481;5.5019;-16.8073;0.7542;-0.0899;-0.1856;0.0270
0000130493;5.1427;-16.7570;0.8236;-0.0386;-0.2300;0.0085
0000130501;5.0589;-16.7283;0.6321;0.0041;-0.2467;0.0104
0000130512;5.0278;-16.3931;0.5148;0.0332;-0.2577;0.0336
0000130520;5.0446;-16.2854;0.5794;0.0386;-0.2755;0.0494
0000130528;5.1260;-16.0412;0.4788;0.0293;-0.2935;0.0706
0000130540;5.2912;-15.8496;0.3735;-0.0049;-0.3218;0.0987
0000130548;5.3702;-15.7108;0.2897;-0.0306;-0.3423;0.1136
0000130559;5.5545;-15.6653;0.3208;-0.0588;-0.3539;0.1420
0000130567;5.7078;-15.6389;0.3759;-0.0815;-0.3555;0.1675
0000130579;5.5426;-15.9597;0.4645;-0.1120;-0.3830;0.1986
0000130587;5.5737;-16.1417;0.3783;-0.1287;-0.3882;0.2260
0000130599;5.4372;-16.3285;0.4501;-0.1204;-0.4002;0.2650
0000130607;5.3870;-16.5008;0.4573;-0.0967;-0.3946;0.2930
0000130615;5.5426;-16.4817;0.5698;-0.0621;-0.3950;0.3114
0000130683;6.3614;-15.8233;-0.1293;0.0203;-0.2092;0.3924
0000130691;6.3398;-15.8352;-0.0790;-0.0076;-0.1869;0.4061
0000130702;6.2704;-16.2135;0.0072;-0.0145;-0.1680;0.4247
0000130710;6.1076;-16.6589;0.2274;0.0056;-0.1612;0.4326
0000130722;6.4236;-17.0874;0.7326;0.0957;-0.1707;0.4267
0000130730;5.9089;-17.2766;0.8068;0.1936;-0.1440;0.4141
0000130741;5.8299;-17.0826;0.5722;0.3239;-0.0871;0.4010
0000130749;5.9520;-17.0228;0.5267;0.4037;-0.0433;0.3857
0000130761;6.2321;-16.8695;0.5267;0.5052;0.0400;0.3633
0000130769;6.6224;-16.5942;0.5435;0.5252;0.0873;0.3417
0000130777;6.8594;-16.2925;0.5004;0.5381;0.1017;0.2930
0000130788;7.1108;-15.4665;0.3519;0.5241;0.0925;0.2218
0000130796;6.8426;-14.9925;0.2203;0.4938;0.0895;0.1969
0000130808;5.9304;-14.3604;-0.3304;0.3868;0.0999;0.2161
0000130816;5.4109;-13.9247;-0.4645;0.2892;0.1171;0.2791
0000130827;4.6160;-14.2575;-0.3160;0.1454;0.1354;0.3997
0000130835;3.9600;-14.7698;0.0311;0.0270;0.1263;0.4915
0000130843;3.7637;-15.3804;0.5890;-0.0646;0.0955;0.5704
0000130855;3.9983;-16.4051;1.0702;-0.1672;0.0658;0.6335
0000130863;4.5155;-16.7881;1.2258;-0.2040;0.0402;0.6165
0000130875;5.1332;-17.7482;1.4437;-0.1880;0.0213;0.5097
0000130883;5.8395;-17.7578;1.4006;-0.1099;0.0060;0.4195
0000130951;7.8434;-11.9806;-1.0223;0.5168;0.7033;0.4171
0000130959;8.0038;-11.2073;-1.4006;0.4265;0.8856;0.5127
0000130970;7.9990;-10.2161;-1.8340;0.3419;1.1453;0.6471
0000130978;8.1594;-9.7827;-1.5107;0.3248;1.2814;0.7374
0000130986;8.2911;-9.3853;-0.7638;0.4004;1.3355;0.8326
0000130998;8.6143;-9.3111;0.4262;0.5586;1.3119;0.9870
0000131006;8.0756;-9.7157;2.1715;0.6539;1.1895;1.0912
0000131018;5.8969;-10.6901;4.9273;0.7184;0.7730;1.2215
0000131026;2.9975;-11.0181;2.2362;0.4938;0.7028;1.3791
0000131037;1.3647;-11.5089;-2.1069;-0.2094;0.6817;1.6343
0000131045;0.7230;-12.1913;-2.1548;-0.5949;0.6716;1.7332
0000131057;-0.3208;-13.5248;-0.5483;-0.4449;0.5702;1.7475
0000131065;-0.8284;-15.3780;0.4429;-0.0365;0.4097;1.5544
0000131073;-1.6520;-17.5639;1.1947;0.3088;0.2210;1.2983
0000131084;-2.7821;-19.7306;1.8962;0.4417;-0.0742;1.0269
0000131092;-3.0311;-20.3842;2.5307;0.3918;-0.3063;0.8843
0000131104;-2.2482;-20.1855;2.5905;0.5291;-0.7490;0.7762
0000131112;-1.6616;-19.6516;2.2482;0.6987;-1.0708;0.8172
0000131123;-1.9489;-18.8998;1.5706;0.8728;-1.5112;0.9387
0000131131;-1.8459;-18.3827;1.2474;0.9301;-1.7690;1.0058
0000131143;-0.2538;-17.3771;-0.0096;0.9265;-2.0275;0.9077
0000131151;1.3958;-16.9198;-0.4573;0.8708;-2.1059;0.7260
0000131219;8.2408;-13.9534;-1.7549;1.0897;-0.8351;0.9318
0000131227;7.3502;-14.1833;-1.2833;0.8784;-0.7313;0.8907
0000131235;6.0669;-15.0045;-0.2610;0.6702;-0.6606;0.8200
0000131247;3.7302;-16.7474;-0.4334;0.5007;-0.5975;0.7222
0000131255;2.2482;-17.8703;-0.6009;0.4888;-0.5737;0.6977
0000131266;1.8651;-18.8783;-0.8787;0.6406;-0.5490;0.7882
0000131274;2.7246;-19.1680;-0.8595;0.8248;-0.5296;0.9437
0000131286;5.0326;-18.3252;-1.4892;0.9193;-0.4253;1.1924
0000131294;6.3135;-17.7722;-1.8387;0.8467;-0.3448;1.2833
0000131305;7.3885;-17.4777;-1.4940;0.6933;-0.1986;1.3257
0000131313;7.2449;-17.4657;-1.0032;0.5979;-0.0911;1.3447
0000131325;6.0142;-18.4689;-0.2897;0.5141;0.1219;1.4189
0000131333;5.2625;-18.8065;-0.0934;0.5693;0.2678;1.5717
0000131341;4.7142;-19.0124;-0.0311;0.6807;0.3822;1.7840
0000131352;5.2313;-18.2702;-0.5435;0.7998;0.4974;2.1109
0000131360;5.4037;-17.6405;-0.7973;0.8432;0.5343;2.3534
0000131372;5.6743;-16.7522;-0.5962;0.8799;0.5714;2.6313
0000131380;5.7892;-16.4769;0.0287;0.9120;0.6050;2.7130
0000131391;6.4476;-15.8975;0.4405;0.9689;0.6431;2.7149
0000131399;6.8642;-15.4139;0.5411;0.9843;0.6751;2.6438
0000131411;7.1347;-14.8273;0.9529;1.0581;0.6714;2.5317
0000131419;6.8690;-14.2096;1.0151;1.0820;0.7194;2.4949
0000131427;6.3853;-13.3357;0.9457;1.1277;0.7609;2.5331
0000131491;6.2968;-9.7683;1.6975;0.9902;1.9618;3.0453
0000131499;5.7413;-9.3446;0.7757;0.8084;2.1164;3.0162
0000131511;4.1731;-9.0070;-0.2346;0.4501;2.1858;2.9130
0000131519;1.8603;-8.9136;1.2091;0.3680;2.1646;2.9212
0000131530;-1.3024;-9.2177;3.9863;0.6656;2.0450;3.1151
0000131538;-2.7533;-9.4164;4.8770;0.9418;1.8223;3.3677
0000131546;-3.7326;-9.1267;5.9376;1.1582;1.4798;3.5924
0000131558;-4.8507;-7.5298;7.8889;1.3354;0.9425;3.7298
0000131566;-4.9967;-6.2177;8.1187;1.3085;0.5938;3.6936
0000131577;-3.5506;-4.7980;4.2856;0.9871;0.0901;3.4771
0000131585;-2.0303;-4.4676;2.2505;0.6710;-0.1876;3.1861
0000131597;-0.1724;-4.1970;3.6057;0.4878;-0.1732;2.5523
0000131605;0.2658;-3.4477;6.0478;0.6787;0.1070;2.0797
0000131616;0.8404;-3.0167;7.2377;1.0487;0.5177;1.5473
0000131624;1.5754;-2.8228;7.0078;1.1008;0.7016;1.3719
0000131632;3.1316;-2.6456;6.7253;0.9842;0.9149;1.3114
0000131644;5.3486;-2.6097;5.2313;0.6206;1.3384;1.2786
0000131652;6.0190;-2.8659;4.1132;0.3463;1.6290;1.1996
0000131663;6.2704;-2.9640;2.3487;0.0071;2.0366;0.9998
0000131671;6.1579;-3.1819;1.6281;-0.2246;2.3590;0.8094
0000131683;5.6479;-3.8451;0.0120;-0.5003;2.7620;0.3928
0000131691;4.8147;-4.1827;0.0527;-0.6519;2.8598;0.1147
0000131699;3.8164;-4.2737;0.7614;-0.7480;2.9055;-0.1573
0000131763;24.0689;-9.4619;-16.1752;-1.5825;2.5688;4.3656
0000131771;30.0353;0.8882;17.6501;-2.4272;-1.2117;0.7947
0000131783;7.8482;13.4219;32.0129;-1.2092;-0.1486;-4.3657
0000131791;3.5051;3.4884;6.1627;-0.1310;-0.6031;-4.3657
0000131802;0.4405;-0.9888;-6.4883;-0.2982;-1.9765;-4.3657
0000131810;-2.9449;1.3216;-9.6007;-1.0264;-2.7583;-4.3657
0000131822;-9.7516;3.7900;-9.3853;-2.1325;-1.8715;-4.3657
0000131830;-9.9000;4.3503;-10.3406;-2.3221;-0.4434;-4.3657
0000131842;-6.8450;3.7804;-10.2161;-2.3218;1.4993;-1.3073
0000131850;-3.9648;2.9329;-9.7875;-2.2223;2.4638;0.4936
0000131858;0.8595;0.8045;-7.0461;-2.0388;3.0393;1.8546
0000131870;7.3837;-4.0558;4.2593;-0.4494;2.4928;2.8734
0000131878;9.7707;-6.6367;4.1970;0.7013;1.6848;3.0410
0000131889;10.0006;-7.0270;-3.5985;0.6327;1.4799;2.9128
0000131897;9.3661;-5.1739;-9.9000;-0.3307;1.4710;2.4051
0000131909;4.2593;-0.9888;-6.8714;-1.1774;0.8605;1.7508
0000131917;1.1133;1.4485;-4.3239;-0.8871;0.5161;1.7275
0000131928;-3.4740;4.5466;-2.2122;-0.2729;0.1491;1.8578
0000131936;-8.4348;6.4332;-1.5993;-0.4394;0.2046;1.9946
0000131944;-9.7636;6.1459;-3.0885;-0.6608;0.5969;2.0723
0000131956;-5.3486;3.4836;-2.2170;-0.2890;1.0309;1.7351
0000131964;-2.7198;2.3870;-4.4221;-0.1396;0.8462;1.1301
0000132028;-1.6616;-2.2697;-5.2170;0.0524;-0.0141;-0.1026
0000132036;-0.7805;-2.2290;-5.4420;0.1200;0.0606;-0.0887
0000132048;1.0415;-1.6903;-5.9664;0.1160;0.1077;-0.1402
0000132056;1.5921;-1.6831;-5.2289;0.0366;0.1090;-0.2269
0000132067;0.3974;-1.2881;-3.1460;0.0400;0.0116;-0.3561
0000132075;-1.1444;-1.3240;-1.8387;0.1447;-0.0898;-0.5363
0000132083;-2.5690;-1.3431;-2.1141;0.2098;-0.1009;-0.7246
0000132095;-2.7054;-2.4014;-2.9209;0.2005;-0.0803;-0.8749
0000132103;-3.5362;-2.8683;-3.3303;0.1949;-0.0805;-0.9257
0000132114;-4.1922;-3.7086;-3.6871;0.1539;-0.1200;-0.8863
0000132122;-4.0510;-4.4724;-3.6823;0.1314;-0.1735;-0.8330
0000132134;-4.0630;-4.7692;-3.3184;0.1287;-0.2342;-0.6976
0000132142;-4.1204;-4.6902;-3.0358;0.1424;-0.2701;-0.5999
0000132153;-3.7804;-4.6831;-2.7605;0.1856;-0.3075;-0.4680
0000132161;-3.4141;-4.4077;-2.5977;0.2125;-0.3284;-0.3936
0000132173;-3.4213;-4.1108;-2.1787;0.2306;-0.3445;-0.3247
0000132181;-3.1939;-3.8499;-2.0518;0.2602;-0.3528;-0.3000
0000132192;-2.8084;-3.7062;-1.9273;0.3429;-0.3760;-0.3087
0000132200;-2.8898;-3.5314;-1.9417;0.3717;-0.3786;-0.3459
0000132208;-2.8922;-3.3998;-1.8579;0.3956;-0.3608;-0.3766
0000132220;-2.8419;-3.4309;-2.0279;0.3848;-0.3560;-0.4666
0000132228;-2.7797;-3.4788;-1.8076;0.3613;-0.3287;-0.4888
0000132292;-3.8379;-5.2720;-2.2553;0.0504;-0.2950;-0.4686
0000132300;-3.7828;-5.3989;-1.9896;0.0309;-0.2791;-0.4149
0000132312;-3.9313;-5.6312;-1.5012;0.0298;-0.2686;-0.3317
0000132320;-3.7373;-5.6479;-1.3743;0.0310;-0.2265;-0.2574
0000132332;-3.7637;-5.9352;-1.3527;0.0723;-0.1745;-0.1777
0000132340;-3.6655;-6.1004;-1.5083;0.1081;-0.1446;-0.1355
0000132352;-3.6224;-6.0382;-1.5131;0.1565;-0.1039;-0.0787
0000132360;-3.4596;-5.7916;-1.5107;0.1809;-0.0929;-0.0384
0000132372;-3.5985;-5.4253;-1.5850;0.1895;-0.0601;0.0226
0000132380;-3.3974;-5.1332;-1.9058;0.2101;-0.0436;0.0549
0000132388;-3.5817;-4.9057;-1.9896;0.2124;-0.0278;0.0721
0000132400;-3.2896;-4.7884;-2.0279;0.2173;-0.0165;0.0675
0000132408;-3.1795;-4.6615;-2.0662;0.2070;-0.0031;0.0473
0000132420;-3.0287;-4.8100;-2.2218;0.1789;0.0274;0.0156
0000132428;-3.1484;-4.8698;-2.2625;0.1629;0.0525;0.0045
0000132440;-3.4333;-4.9775;-2.2960;0.1256;0.0798;0.0023
0000132448;-3.4189;-4.8435;-2.3487;0.1061;0.0975;0.0071
0000132460;-3.6655;-4.9704;-2.3128;0.0847;0.1232;0.0148
0000132468;-3.6224;-4.8746;-2.1859;0.0759;0.1272;0.0257
0000132476;-3.4333;-4.7980;-2.3774;0.0683;0.1390;0.0325
0000132540;-3.2322;-4.6017;-2.0303;0.0957;0.1859;-0.0456
0000132548;-3.2417;-4.6878;-2.2338;0.0861;0.2050;-0.0392
0000132560;-3.5195;-4.9752;-2.3583;0.0910;0.1811;-0.0373
0000132568;-3.2657;-4.6591;-2.6169;0.0790;0.1717;-0.0330
0000132580;-3.6272;-4.9560;-2.5881;0.0554;0.1568;-0.0171
0000132588;-3.2896;-4.8554;-2.5546;0.0600;0.1304;-0.0157
0000132600;-3.5769;-4.8339;-2.7222;0.0542;0.1330;0.0007
0000132608;-3.5745;-4.9105;-2.7461;0.0520;0.1222;0.0083
0000132616;-3.4093;-4.8171;-2.9209;0.0432;0.1135;0.0079
0000132628;-3.4357;-4.7692;-3.0143;0.0282;0.0753;0.0147
0000132636;-3.3950;-4.7956;-2.9616;0.0115;0.0538;0.0124
0000132648;-3.4596;-4.8961;-2.9185;-0.0167;0.0300;0.0320
0000132656;-3.1963;-5.0159;-2.6935;-0.0193;0.0007;0.0340
0000132668;-3.5147;-4.7980;-2.6288;-0.0213;-0.0185;0.0418
0000132676;-3.3040;-4.7238;-2.5905;-0.0175;-0.0189;0.0390
0000132688;-3.3232;-4.5514;-2.5714;0.0027;-0.0344;0.0306
0000132696;-3.6392;-4.6807;-2.5259;0.0148;-0.0453;0.0244
0000132708;-3.2920;-4.6807;-2.6863;0.0322;-0.0638;0.0209
0000132716;-3.2010;-4.6471;-2.8467;0.0208;-0.0677;0.0179
0000132724;-3.6200;-4.7573;-2.6887;0.0157;-0.0778;0.0084
0000132736;-3.5530;-4.7645;-2.6504;0.0226;-0.0927;-0.0033
0000132744;-3.1388;-4.6064;-2.7366;0.0147;-0.1003;-0.0059
0000132809;-3.2801;-4.6208;-2.5379;-0.0434;-0.1785;0.0045
0000132816;-3.5434;-4.6998;-2.5139;-0.0268;-0.1916;0.0012
0000132828;-3.1819;-4.6352;-2.6264;-0.0145;-0.1996;-0.0021
0000132836;-3.2896;-4.5370;-2.5977;-0.0318;-0.1973;-0.0141
0000132848;-3.2825;-4.5897;-2.4086;-0.0261;-0.2056;-0.0218
0000132856;-3.3519;-4.6950;-2.3559;-0.0169;-0.2165;-0.0322
0000132868;-3.2441;-4.5298;-2.2170;0.0033;-0.2173;-0.0449
0000132876;-3.3375;-4.7669;-2.1428;0.0143;-0.2093;-0.0450
0000132888;-3.2322;-4.6998;-2.1620;0.0027;-0.1962;-0.0638
0000132896;-3.2394;-4.7118;-2.0925;-0.0093;-0.1891;-0.0707
0000132904;-3.2322;-4.6878;-2.1237;-0.0069;-0.1832;-0.0787
0000132916;-3.4596;-4.9321;-1.9680;0.0027;-0.1498;-0.0645
0000132924;-3.5338;-4.9823;-2.0303;0.0143;-0.1402;-0.0570
0000132936;-3.4979;-5.0159;-1.9944;-0.0101;-0.1074;-0.0500
0000132944;-3.5003;-4.9967;-2.0542;-0.0127;-0.0935;-0.0452
0000132956;-3.4644;-4.9632;-1.9130;0.0171;-0.0814;-0.0195
0000132964;-3.4429;-4.9895;-1.9465;0.0091;-0.0613;-0.0148
0000132976;-3.4477;-4.8794;-2.0039;0.0015;-0.0382;-0.0180
0000132984;-3.5171;-5.1164;-2.0542;-0.0007;-0.0185;-0.0120
0000132996;-3.5674;-4.8937;-2.0853;0.0301;-0.0234;-0.0004
0000133004;-3.2585;-4.6759;-2.2984;0.0358;-0.0241;-0.0003
0000133068;-3.4620;-4.7884;-2.0087;0.0180;0.0128;-0.0301
0000133076;-3.4046;-4.7716;-2.1620;0.0207;0.0209;-0.0272
0000133088;-3.7062;-4.9632;-2.1237;0.0273;0.0064;-0.0083
0000133096;-3.4213;-4.7812;-2.2434;0.0450;0.0059;0.0159
0000133104;-3.3710;-4.8746;-2.3966;0.0169;0.0172;0.0225
0000133116;-3.2777;-4.7429;-2.4493;-0.0052;0.0213;0.0176
0000133124;-3.4333;-4.6591;-2.3463;-0.0084;0.0040;0.0027
0000133136;-3.5195;-4.8028;-2.3679;0.0204;0.0065;-0.0049
0000133144;-3.2944;-4.6687;-2.6121;0.0021;0.0095;-0.0076
0000133156;-3.2681;-4.7381;-2.5091;-0.0188;0.0057;-0.0176
0000133164;-3.3758;-4.6902;-2.3415;-0.0120;-0.0008;-0.0203
0000133176;-3.4213;-4.7381;-2.4157;-0.0075;-0.0104;-0.0230
0000133184;-3.3495;-4.7501;-2.3822;-0.0031;-0.0099;-0.0189
0000133196;-3.4836;-4.7740;-2.4038;0.0024;-0.0201;-0.0257
0000133204;-3.2489;-4.6926;-2.4205;0.0017;-0.0280;-0.0258
0000133212;-3.4189;-4.8770;-2.5283;-0.0016;-0.0273;-0.0230
0000133224;-3.4931;-4.8890;-2.4684;-0.0076;-0.0369;-0.0229
0000133232;-3.4381;-4.8339;-2.3607;-0.0077;-0.0465;-0.0273
0000133244;-3.3710;-4.6855;-2.4421;-0.0128;-0.0464;-0.0200
0000133252;-3.4500;-4.8626;-2.3583;-0.0049;-0.0512;-0.0209
0000133264;-3.1651;-4.6974;-2.3439;-0.0081;-0.0562;-0.0161
0000133272;-3.2896;-4.8100;-2.3511;-0.0117;-0.0513;-0.0132
0000133338;-3.4860;-4.7788;-2.2529;-0.0149;-0.0242;-0.0252
0000133346;-3.4285;-4.8004;-2.2601;-0.0089;-0.0273;-0.0336
0000133359;-3.4716;-4.7357;-2.5714;-0.0028;-0.0308;-0.0346
0000133368;-3.5793;-4.7716;-2.5091;-0.0059;-0.0381;-0.0274
0000133381;-3.4764;-4.7094;-2.3750;-0.0004;-0.0544;-0.0405
0000133390;-3.3064;-4.6088;-2.3822;0.0055;-0.0549;-0.0369
0000133403;-3.2226;-4.6304;-2.2362;0.0141;-0.0525;-0.0506
0000133412;-3.3495;-4.7333;-2.2434;0.0282;-0.0580;-0.0666
0000133421;-3.3710;-4.8459;-2.2865;0.0240;-0.0641;-0.0681
0000133434;-3.4333;-4.8339;-2.3104;0.0266;-0.0721;-0.0742
0000133443;-3.2992;-4.7597;-2.4876;0.0334;-0.0853;-0.0671
0000133456;-3.2561;-4.7812;-2.2745;0.0288;-0.0829;-0.0665
0000133465;-3.2178;-4.7908;-2.1189;0.0308;-0.0833;-0.0667
0000133478;-3.4069;-5.0709;-2.0183;0.0096;-0.0493;-0.0657
0000133487;-3.2250;-4.9895;-2.0446;0.0067;-0.0332;-0.0469
0000133500;-3.3734;-5.1044;-2.0758;0.0033;-0.0112;-0.0261
0000133509;-3.3208;-5.0446;-2.2362;-0.0113;-0.0028;-0.0045
0000133522;-3.4572;-4.9847;-2.2649;-0.0155;-0.0071;0.0121
0000133531;-3.3806;-4.9584;-2.0925;-0.0100;-0.0047;0.0165
0000133544;-3.4860;-4.8243;-1.9321;-0.0253;0.0334;0.0207
0000133553;-3.2801;-4.7238;-1.8962;-0.0155;0.0516;0.0216
0000133562;-3.4333;-4.9967;-2.0303;-0.0105;0.0693;0.0333
0000133631;-3.5961;-4.8267;-2.6863;-0.0457;-0.0362;0.0314
0000133640;-3.2920;-4.6424;-2.5139;-0.0366;-0.0526;0.0147
0000133653;-3.4860;-4.6807;-2.5307;-0.0252;-0.0640;0.0019
0000133662;-3.2058;-4.5610;-2.4181;-0.0292;-0.0701;-0.0089
0000133675;-3.4716;-4.6855;-2.3320;-0.0187;-0.0807;-0.0241
0000133684;-3.2561;-4.6974;-2.3296;-0.0145;-0.0735;-0.0321
0000133697;-3.5123;-4.7836;-2.3607;-0.0040;-0.0773;-0.0294
0000133706;-3.4596;-4.8339;-2.2122;0.0023;-0.0810;-0.0277
0000133722;-3.2417;-4.6615;-2.1045;0.0036;-0.0763;-0.0393
0000133731;-3.3399;-4.7453;-2.1811;0.0091;-0.0580;-0.0422
0000133744;-3.1723;-4.7190;-2.1691;0.0151;-0.0457;-0.0412
0000133753;-3.1675;-4.7405;-2.0925;0.0175;-0.0404;-0.0517
0000133762;-3.5985;-4.8267;-2.0782;0.0144;-0.0187;-0.0417
0000133774;-3.1699;-4.9464;-1.9944;0.0168;-0.0059;-0.0365
0000133783;-3.3375;-4.8794;-2.1189;0.0204;0.0120;-0.0316
0000133796;-3.2825;-4.9081;-2.1045;0.0314;0.0269;-0.0345
0000133805;-3.1795;-4.9177;-2.0446;0.0356;0.0418;-0.0386
0000133817;-3.0095;-4.7956;-2.0279;0.0546;0.0606;-0.0462
0000133826;-3.1651;-4.7429;-2.2122;0.0630;0.0540;-0.0590
0000133895;-3.4405;-4.7836;-2.6719;0.0454;0.0569;0.0237
0000133904;-3.2729;-4.8530;-2.7581;0.0310;0.0558;0.0306
0000133916;-3.3830;-4.7692;-2.9113;0.0240;0.0300;0.0294
0000133925;-3.4644;-4.6424;-2.9185;0.0160;0.0221;0.0228
0000133934;-3.3136;-4.6328;-2.6983;0.0129;-0.0012;0.0079
0000133947;-3.2537;-4.7070;-2.8395;-0.0007;-0.0216;-0.0037
0000133956;-3.4333;-4.7429;-2.7677;-0.0117;-0.0266;-0.0049
0000133968;-3.4788;-4.9560;-2.7438;-0.0191;-0.0418;-0.0101
0000133977;-3.3447;-4.7501;-2.7198;-0.0152;-0.0532;-0.0132
0000133990;-3.3974;-4.9033;-2.6073;-0.0232;-0.0695;-0.0101
0000133999;-3.5171;-4.8315;-2.6097;-0.0282;-0.0717;-0.0105
0000134011;-3.5698;-4.9225;-2.4373;-0.0293;-0.0755;-0.0099
0000134020;-3.8044;-4.9608;-2.4014;-0.0196;-0.0795;-0.0071
0000134033;-3.3950;-4.8052;-2.4612;-0.0249;-0.0913;-0.0116
0000134042;-3.3208;-4.7357;-2.4636;-0.0320;-0.0886;-0.0140
0000134054;-3.2681;-4.6711;-2.3487;-0.0250;-0.0922;-0.0159
0000134063;-3.2370;-4.7716;-2.3822;-0.0246;-0.0831;-0.0197
0000134076;-3.2920;-4.7836;-2.3008;-0.0209;-0.0707;-0.0169
0000134085;-3.3471;-4.8483;-2.3248;-0.0200;-0.0706;-0.0207
0000134094;-3.2441;-4.8914;-2.3128;-0.0165;-0.0644;-0.0137
0000134106;-3.2106;-4.7214;-2.2865;-0.0111;-0.0538;-0.0163
0000134115;-3.2801;-4.7046;-2.2098;-0.0119;-0.0542;-0.0280
0000134184;-3.3854;-4.7669;-2.5857;-0.0226;-0.0478;-0.0048
0000134193;-3.4285;-4.9249;-2.6169;-0.0285;-0.0622;-0.0159
0000134205;-3.3806;-4.8147;-2.4708;-0.0317;-0.0677;-0.0040
0000134214;-3.5314;-4.9799;-2.4900;-0.0374;-0.0661;0.0011
0000134227;-3.2657;-4.8818;-2.5666;-0.0333;-0.0838;0.0077
0000134236;-3.4022;-4.9584;-2.3750;-0.0302;-0.0733;0.0183
0000134248;-3.1220;-4.6998;-2.3080;-0.0297;-0.0713;0.0159
0000134257;-3.2106;-4.7357;-2.3104;-0.0246;-0.0661;-0.0008
0000134270;-3.3112;-4.8052;-2.4038;-0.0305;-0.0486;-0.0017
0000134279;-3.4429;-4.7836;-2.3894;-0.0294;-0.0468;-0.0075
0000134291;-3.5506;-4.9656;-2.3870;-0.0260;-0.0477;-0.0065
0000134300;-3.3184;-4.7429;-2.4684;-0.0213;-0.0544;-0.0121
0000134309;-3.3639;-4.6902;-2.5043;-0.0161;-0.0549;-0.0155
0000134322;-3.3878;-4.6448;-2.3679;-0.0127;-0.0697;-0.0370
0000134331;-3.4429;-4.7453;-2.2529;-0.0029;-0.0671;-0.0500
0000134343;-3.4046;-4.8028;-2.1931;-0.0036;-0.0526;-0.0553
0000134352;-3.4716;-4.9297;-2.1691;-0.0139;-0.0436;-0.0406
0000134365;-3.2154;-4.8866;-2.2482;-0.0207;-0.0322;-0.0191
0000134374;-3.3830;-5.0781;-2.2505;-0.0278;-0.0297;-0.0031
0000134386;-3.3902;-4.9775;-2.3798;-0.0353;-0.0280;0.0141
0000134395;-3.4524;-5.0326;-2.4134;-0.0374;-0.0406;0.0167
0000134463;-3.5482;-4.8794;-2.3463;-0.0520;-0.1029;0.0338
0000134472;-3.3878;-4.6567;-2.3487;-0.0405;-0.1110;0.0217
0000134484;-3.3830;-4.7022;-2.3607;-0.0277;-0.1067;0.0015
0000134493;-3.3303;-4.6855;-2.1500;-0.0147;-0.1021;-0.0148
0000134502;-3.4069;-4.7333;-2.0806;-0.0055;-0.0902;-0.0203
0000134515;-3.3639;-4.7860;-1.9273;0.0095;-0.0556;-0.0333
0000134524;-3.2561;-4.7453;-1.7454;0.0115;-0.0189;-0.0301
0000134536;-3.0191;-4.7692;-1.5467;0.0317;0.0330;-0.0512
0000134545;-3.0670;-4.8578;-1.3934;0.0461;0.0825;-0.0598
0000134558;-2.8611;-4.7142;-1.9417;0.0381;0.1640;-0.0762
0000134567;-3.3830;-4.7836;-2.5953;0.0317;0.1845;-0.0790
0000134579;-4.2162;-5.0637;-3.3255;0.0312;0.1315;-0.0368
0000134588;-3.6368;-5.1236;-2.9951;0.0232;0.0722;-0.0009
0000134601;-3.1508;-4.6184;-2.6049;0.0084;0.0187;0.0019
0000134610;-3.3878;-4.6088;-2.5139;0.0209;0.0097;-0.0179
0000134622;-3.0358;-4.3910;-2.5833;0.0365;-0.0185;-0.0785
0000134631;-3.4453;-4.6783;-2.5259;0.0266;-0.0218;-0.0890
0000134640;-3.5578;-5.1092;-2.4612;0.0161;-0.0236;-0.0701
0000134653;-3.6655;-5.3534;-2.4373;-0.0036;-0.0089;-0.0028
0000134662;-3.6296;-5.2840;-2.6815;-0.0193;-0.0113;0.0373
0000134674;-3.2010;-4.7214;-2.7390;-0.0338;-0.0330;0.0458
0000134683;-3.3088;-4.6926;-2.5977;-0.0389;-0.0532;0.0352
0000134752;-3.5362;-4.9536;-2.6049;-0.0420;-0.0766;0.0310
0000134761;-3.4477;-5.0278;-2.5690;-0.0400;-0.0881;0.0445
0000134773;-3.4836;-4.9632;-2.5355;-0.0469;-0.1053;0.0636
0000134782;-3.2968;-4.8267;-2.4612;-0.0502;-0.1075;0.0733
0000134795;-3.3974;-4.9632;-2.1524;-0.0177;-0.1081;0.0803
0000134804;-3.0598;-4.6783;-2.3391;-0.0280;-0.0927;0.0564
0000134816;-3.1939;-4.6878;-2.1141;-0.0309;-0.0758;0.0376
0000134825;-3.3279;-4.5107;-2.2386;-0.0305;-0.0537;0.0236
0000134834;-3.1316;-4.5442;-2.2242;-0.0209;-0.0409;0.0013
0000134847;-3.2322;-4.5705;-2.1356;-0.0099;-0.0250;-0.0193
0000134856;-3.2968;-4.7836;-2.1787;-0.0055;-0.0137;-0.0301
0000134868;-3.2465;-4.8100;-2.1691;0.0063;-0.0109;-0.0453
0000134877;-3.2777;-4.6855;-2.1500;0.0015;0.0008;-0.0398
0000134890;-3.1819;-4.7405;-2.1596;0.0075;0.0167;-0.0388
0000134899;-3.3567;-4.8363;-2.2529;0.0096;0.0211;-0.0446
0000134911;-3.4596;-4.9249;-2.3774;0.0048;0.0281;-0.0414
0000134920;-3.3016;-4.9225;-2.4588;-0.0021;0.0203;-0.0314
0000134933;-3.4884;-4.8626;-2.5450;-0.0100;0.0092;-0.0229
0000134942;-3.7206;-4.9249;-2.7485;-0.0107;-0.0021;-0.0238
0000134951;-3.3926;-4.6160;-2.9042;-0.0175;-0.0116;-0.0077
0000134963;-3.4955;-4.8554;-2.8563;-0.0234;-0.0461;-0.0001
0000134972;-3.4716;-4.6352;-2.6983;-0.0228;-0.0739;-0.0115
0000135041;-3.0622;-4.8171;-2.0590;0.0191;-0.0612;-0.0365
0000135050;-3.1125;-4.7309;-1.9393;0.0273;-0.0529;-0.0420
0000135062;-3.2010;-4.7932;-1.9130;0.0382;-0.0217;-0.0478
0000135071;-3.4093;-4.9416;-1.7957;0.0458;0.0048;-0.0525
0000135084;-3.0694;-4.8818;-1.6113;0.1088;0.0590;-0.0450
0000135093;-3.3351;-5.0661;-1.5323;0.1318;0.0943;-0.0144
0000135105;-3.6152;-5.3750;-2.2194;0.1699;0.1308;0.0266
0000135114;-2.9784;-4.9608;-2.9257;0.0767;0.1796;0.0493
0000135127;-3.3399;-4.3886;-3.0813;0.0280;0.1719;0.0268
0000135136;-3.7421;-4.4173;-3.2274;0.0318;0.1370;-0.0059
0000135145;-3.3926;-4.3551;-3.4046;0.0222;0.0805;-0.0445
0000135156;-3.2537;-4.4269;-3.1867;0.0257;-0.0097;-0.0907
0000135165;-3.3686;-4.5370;-2.9209;0.0147;-0.0596;-0.1192
0000135179;-3.5650;-4.8243;-2.5929;0.0181;-0.0697;-0.1251
0000135188;-3.4453;-4.8435;-2.3487;0.0204;-0.0685;-0.1211
0000135201;-3.3184;-4.9488;-2.4421;0.0112;-0.0577;-0.0925
0000135210;-3.5386;-5.1356;-2.4612;0.0041;-0.0582;-0.0674
0000135222;-3.5650;-5.1332;-2.6432;-0.0088;-0.0653;-0.0348
0000135231;-3.4069;-4.9967;-2.7126;-0.0249;-0.0839;-0.0176
0000135300;-3.2465;-4.7884;-2.3511;-0.0365;-0.1524;0.0068
0000135309;-3.2705;-4.8626;-2.2793;-0.0350;-0.1414;0.0036
0000135321;-3.3878;-4.9752;-2.2194;-0.0242;-0.1316;-0.0041
0000135330;-3.3495;-4.9680;-2.1620;-0.0265;-0.1155;0.0140
0000135339;-3.6009;-5.3702;-2.2027;-0.0183;-0.1092;0.0160
0000135352;-3.4620;-5.0709;-2.2266;-0.0353;-0.0853;0.0500
0000135361;-3.4189;-4.9895;-2.2697;-0.0336;-0.0821;0.0663
0000135373;-3.3806;-4.8937;-2.0303;-0.0252;-0.0738;0.0870
0000135382;-3.2489;-4.8028;-2.0901;-0.0208;-0.0613;0.0771
0000135395;-3.0933;-4.6448;-1.9752;-0.0172;-0.0309;0.0629
0000135404;-3.2322;-4.6519;-2.0542;-0.0073;-0.0196;0.0352
0000135416;-3.3495;-4.7142;-2.0830;0.0028;0.0148;0.0157
0000135425;-3.4189;-4.7381;-2.1404;0.0123;0.0305;0.0045
0000135438;-3.2322;-4.6998;-2.2529;0.0188;0.0433;0.0111
0000135445;-3.2872;-4.7812;-2.3511;0.0136;0.0489;0.0183
0000135453;-3.5171;-4.9488;-2.4134;0.0129;0.0469;0.0201
0000135464;-3.4860;-4.7645;-2.4924;0.0091;0.0456;0.0233
0000135472;-3.5027;-4.6831;-2.5379;0.0127;0.0328;0.0200
0000135484;-3.1843;-4.4484;-2.6360;0.0063;0.0171;-0.0008
0000135492;-3.4381;-4.6424;-2.7150;0.0053;0.0079;-0.0128
0000135503;-3.2801;-4.4819;-2.7246;-0.0072;-0.0049;-0.0326
0000135511;-3.3519;-4.6088;-2.7557;-0.0131;-0.0171;-0.0449
