time;acc_x;acc_y;acc_z;gyro_x;gyro_y;gyro_z
0000409379;-2.2960;-7.1587;-4.4341;0.0834;-0.0679;-0.0199
0000409387;-2.0231;-7.0390;-4.4412;0.0909;-0.0542;-0.0289
0000409394;-2.0423;-7.0485;-4.4412;0.0919;-0.0452;-0.0298
0000409402;-2.2003;-7.0054;-4.4628;0.0833;-0.0338;-0.0297
0000409411;-2.2697;-7.0725;-4.6136;0.0706;-0.0151;-0.0248
0000409419;-2.3727;-7.1108;-4.6807;0.0689;-0.0195;-0.0272
0000409432;-2.3535;-7.0892;-4.7214;0.0525;-0.0252;-0.0169
0000409439;-2.3798;-7.0629;-4.7525;0.0454;-0.0293;-0.0192
0000409451;-2.5235;-6.9456;-4.7118;0.0397;-0.0384;-0.0252
0000409458;-2.7557;-6.9336;-4.7573;0.0358;-0.0413;-0.0163
0000409466;-2.7821;-7.0006;-4.7190;0.0332;-0.0521;-0.0087
0000409479;-2.9066;-7.0006;-4.7597;0.0244;-0.0734;0.0308
0000409486;-2.8730;-7.0030;-4.7669;0.0165;-0.0899;0.0484
0000409498;-2.7509;-6.7062;-4.5849;-0.0037;-0.1061;0.0766
0000409505;-2.8778;-6.8809;-4.5825;-0.0256;-0.1094;0.0926
0000409518;-2.6695;-6.6343;-4.5921;-0.0480;-0.0942;0.1212
0000409525;-2.3703;-6.4141;-4.5825;-0.0669;-0.0725;0.1343
0000409593;-2.2194;-7.1132;-4.8530;-0.1059;0.1107;0.1836
0000409600;-2.4325;-7.1036;-4.8195;-0.0977;0.1200;0.1809
0000409613;-2.6767;-7.2018;-5.0278;-0.0885;0.1232;0.1808
0000409620;-2.5331;-7.0701;-5.0422;-0.0830;0.1136;0.1808
0000409628;-2.5450;-7.2161;-5.1595;-0.0795;0.1183;0.1811
0000409640;-2.4541;-7.0485;-5.2146;-0.0671;0.1128;0.1756
0000409647;-2.4253;-7.1826;-5.1164;-0.0650;0.1256;0.1716
0000409660;-2.4038;-7.2257;-5.2098;-0.0602;0.1354;0.1580
0000409667;-2.4062;-7.1778;-5.2194;-0.0669;0.1406;0.1452
0000409679;-2.1117;-6.8785;-5.2888;-0.0741;0.1427;0.1322
0000409686;-2.3080;-6.8738;-5.2984;-0.0825;0.1411;0.1175
0000409699;-2.4732;-6.8618;-5.2625;-0.0955;0.1339;0.1022
0000409706;-2.6288;-6.7828;-5.2241;-0.1025;0.1383;0.0901
0000409718;-2.3918;-6.5027;-5.3678;-0.1126;0.1374;0.0845
0000409725;-2.5833;-6.6295;-5.3510;-0.1200;0.1330;0.0799
0000409733;-2.5618;-6.7421;-5.3893;-0.1192;0.1094;0.0669
0000409746;-2.2889;-6.9384;-5.3846;-0.1198;0.0953;0.0770
0000409753;-2.3080;-7.0030;-5.3870;-0.1159;0.0946;0.0902
0000409765;-2.0423;-6.8522;-5.3391;-0.1046;0.0926;0.0945
0000409772;-2.0566;-6.7684;-5.3295;-0.0977;0.1035;0.1027
0000409785;-2.1069;-6.7014;-5.2816;-0.0657;0.1033;0.1033
0000409792;-2.1835;-6.7469;-5.3175;-0.0525;0.1083;0.1062
0000409861;-2.2362;-6.2106;-5.1930;-0.0281;0.0456;0.1424
0000409868;-2.1883;-6.4093;-5.0733;-0.0366;0.0426;0.1479
0000409881;-2.2625;-6.4955;-5.1092;-0.0258;0.0397;0.1555
0000409888;-2.1452;-6.5290;-5.2385;-0.0144;0.0525;0.1629
0000409896;-2.0997;-6.3758;-5.2864;0.0077;0.0790;0.1616
0000409908;-2.3583;-6.5003;-5.5617;0.0334;0.0993;0.1544
0000409915;-2.5450;-6.5697;-5.3846;0.0442;0.0741;0.1399
0000409928;-2.4445;-6.4620;-5.2720;0.0397;0.0261;0.1188
0000409935;-2.4804;-6.3015;-5.2433;0.0265;0.0159;0.1204
0000409947;-2.2075;-6.0382;-5.0805;0.0137;0.0203;0.1219
0000409954;-2.4995;-5.9927;-5.1380;0.0027;0.0272;0.1191
0000409967;-2.3990;-5.8993;-5.3319;-0.0201;0.0344;0.1130
0000409974;-2.3008;-5.8802;-5.3199;-0.0406;0.0417;0.1071
0000409982;-2.3032;-5.7461;-5.3367;-0.0541;0.0370;0.0947
0000409994;-2.3056;-5.8395;-5.4923;-0.0701;0.0470;0.0809
0000410001;-2.4373;-5.9161;-5.5162;-0.0861;0.0450;0.0733
0000410014;-2.4636;-6.0861;-5.4899;-0.0919;0.0372;0.0522
0000410021;-2.5163;-6.1531;-5.6240;-0.0931;0.0389;0.0441
0000410033;-2.4756;-6.1723;-5.5330;-0.0887;0.0329;0.0422
0000410040;-2.4205;-6.0525;-5.5809;-0.0926;0.0257;0.0388
0000410053;-2.3487;-6.0669;-5.6407;-0.0803;0.0188;0.0288
0000410060;-2.3487;-6.0717;-5.6838;-0.0814;0.0203;0.0309
0000410128;-2.2889;-6.1842;-5.6120;-0.0465;-0.0405;-0.0035
0000410135;-2.2194;-6.3063;-5.5569;-0.0476;-0.0349;-0.0028
0000410143;-2.2529;-6.1938;-5.5402;-0.0400;-0.0436;-0.0069
0000410156;-2.4469;-6.2776;-5.4372;-0.0373;-0.0556;-0.0099
0000410163;-2.3870;-6.2584;-5.5282;-0.0401;-0.0605;-0.0048
0000410175;-2.3080;-6.2034;-5.4588;-0.0380;-0.0605;-0.0103
0000410182;-2.0662;-6.2010;-5.4085;-0.0474;-0.0501;-0.0137
0000410195;-2.1213;-6.0406;-5.3271;-0.0442;-0.0428;-0.0286
0000410202;-2.0973;-6.1268;-5.3175;-0.0518;-0.0301;-0.0286
0000410214;-2.1668;-6.2441;-5.3271;-0.0542;-0.0185;-0.0274
0000410221;-2.1691;-6.2082;-5.3510;-0.0557;-0.0205;-0.0289
0000410234;-2.2865;-6.2513;-5.3056;-0.0506;-0.0350;-0.0317
0000410241;-2.3152;-6.3111;-5.3079;-0.0509;-0.0380;-0.0244
0000410253;-2.2338;-6.2752;-5.2864;-0.0500;-0.0408;-0.0252
0000410260;-2.1524;-6.1818;-5.3008;-0.0546;-0.0381;-0.0221
0000410273;-2.2673;-6.1292;-5.3247;-0.0466;-0.0389;-0.0301
0000410280;-2.1308;-6.1028;-5.1906;-0.0498;-0.0292;-0.0248
0000410292;-2.2745;-6.2656;-5.2098;-0.0513;-0.0286;-0.0320
0000410299;-2.0159;-5.9927;-5.2577;-0.0408;-0.0396;-0.0329
0000410307;-2.2027;-6.1555;-5.3032;-0.0414;-0.0282;-0.0289
0000410320;-2.2003;-6.1699;-5.2505;-0.0340;-0.0306;-0.0249
0000410327;-2.1452;-6.1531;-5.2529;-0.0384;-0.0221;-0.0209
0000410395;-2.3152;-6.2704;-5.3558;-0.0265;-0.0108;-0.0344
0000410402;-2.2098;-6.1579;-5.3439;-0.0250;-0.0071;-0.0257
0000410415;-2.2889;-6.1651;-5.4085;-0.0282;-0.0067;-0.0240
0000410422;-2.2889;-6.1627;-5.3726;-0.0313;-0.0077;-0.0268
0000410434;-2.2051;-6.1148;-5.4061;-0.0168;-0.0181;-0.0298
0000410441;-2.2122;-6.2106;-5.4037;-0.0193;-0.0099;-0.0230
0000410454;-2.1428;-6.2010;-5.4372;-0.0179;-0.0073;-0.0172
0000410461;-2.0949;-6.2225;-5.3941;-0.0120;-0.0064;-0.0237
0000410473;-2.2889;-6.2513;-5.4157;-0.0101;0.0015;-0.0229
0000410480;-2.3487;-6.2010;-5.4468;-0.0016;-0.0079;-0.0211
0000410493;-2.3343;-6.3829;-5.3870;-0.0012;-0.0072;-0.0160
0000410501;-2.0901;-6.0765;-5.5186;0.0019;-0.0119;-0.0172
0000410508;-2.1715;-6.1651;-5.4660;0.0089;-0.0144;-0.0179
0000410520;-2.1237;-6.0621;-5.4827;0.0119;-0.0169;-0.0141
0000410527;-2.2649;-6.2201;-5.4755;0.0101;-0.0197;-0.0137
0000410540;-2.2146;-6.2106;-5.4708;0.0153;-0.0171;-0.0131
0000410547;-2.1644;-6.1962;-5.4564;0.0241;-0.0264;-0.0176
0000410559;-2.0710;-6.1746;-5.4420;0.0216;-0.0298;-0.0159
0000410566;-2.2913;-6.3231;-5.4660;0.0209;-0.0270;-0.0131
0000410579;-2.0997;-6.1124;-5.5162;0.0199;-0.0344;-0.0218
0000410586;-2.3511;-6.3398;-5.3271;0.0201;-0.0296;-0.0176
0000410654;-2.2482;-6.2944;-5.4444;0.0211;-0.0317;-0.0093
0000410661;-2.3583;-6.3590;-5.3630;0.0192;-0.0389;-0.0135
0000410674;-2.3200;-6.1531;-5.4133;0.0195;-0.0446;-0.0147
0000410681;-2.3224;-6.2584;-5.4085;0.0241;-0.0526;-0.0173
0000410689;-2.2913;-6.2345;-5.4420;0.0232;-0.0574;-0.0131
0000410701;-2.1189;-6.1866;-5.2816;0.0252;-0.0568;-0.0135
0000410708;-2.2386;-6.2896;-5.3558;0.0289;-0.0489;-0.0108
0000410721;-1.9513;-6.1268;-5.4348;0.0314;-0.0261;-0.0159
0000410728;-2.2434;-6.2034;-5.3391;0.0241;-0.0167;-0.0085
0000410741;-2.2577;-6.1292;-5.4205;0.0265;-0.0272;-0.0109
0000410748;-2.2075;-6.2058;-5.4516;0.0265;-0.0377;-0.0076
0000410760;-2.2817;-6.3925;-5.3798;0.0332;-0.0478;-0.0143
0000410767;-2.1596;-6.2297;-5.3893;0.0308;-0.0357;-0.0101
0000410780;-2.2290;-6.3470;-5.2864;0.0308;-0.0195;-0.0113
0000410787;-2.1811;-6.2537;-5.3151;0.0356;-0.0115;-0.0127
0000410799;-2.2841;-6.2728;-5.3989;0.0285;-0.0059;-0.0092
0000410806;-2.2194;-6.2560;-5.4396;0.0350;-0.0197;-0.0119
0000410814;-2.2529;-6.2177;-5.4420;0.0293;-0.0324;-0.0096
0000410827;-2.2194;-6.2130;-5.5186;0.0237;-0.0376;-0.0036
0000410834;-2.0686;-6.0621;-5.4348;0.0229;-0.0414;-0.0069
0000410902;-2.2721;-6.2345;-5.4205;0.0143;-0.0488;-0.0183
0000410909;-2.0806;-6.1842;-5.4324;0.0119;-0.0478;-0.0160
0000410922;-2.0375;-6.1507;-5.3606;0.0124;-0.0453;-0.0189
0000410929;-2.1811;-6.2273;-5.4372;0.0075;-0.0396;-0.0136
0000410941;-2.2673;-6.3279;-5.3893;0.0100;-0.0380;-0.0148
0000410948;-2.1859;-6.1555;-5.4420;0.0101;-0.0393;-0.0181
0000410961;-2.2482;-6.1818;-5.3726;0.0112;-0.0412;-0.0200
0000410968;-2.2841;-6.1555;-5.4324;0.0049;-0.0434;-0.0180
0000410980;-2.2122;-6.2297;-5.3870;0.0059;-0.0473;-0.0230
0000410987;-2.1596;-6.1339;-5.4851;0.0003;-0.0501;-0.0238
0000410995;-2.1859;-6.1244;-5.4372;0.0064;-0.0541;-0.0301
0000411008;-2.2601;-6.3207;-5.4324;0.0039;-0.0544;-0.0324
0000411015;-2.2697;-6.1196;-5.3798;0.0071;-0.0624;-0.0268
0000411027;-2.2146;-6.3351;-5.3582;0.0008;-0.0565;-0.0284
0000411034;-2.2769;-6.2776;-5.3582;-0.0001;-0.0577;-0.0289
0000411047;-2.2098;-6.1818;-5.3510;-0.0087;-0.0549;-0.0249
0000411054;-2.1811;-6.1651;-5.4803;-0.0037;-0.0593;-0.0313
0000411066;-2.1428;-6.2513;-5.3391;-0.0013;-0.0582;-0.0326
0000411073;-2.1117;-6.2584;-5.4061;-0.0023;-0.0594;-0.0324
0000411086;-2.3104;-6.4117;-5.3175;-0.0021;-0.0590;-0.0312
0000411093;-2.4469;-6.4739;-5.3606;-0.0075;-0.0577;-0.0254
0000411161;-2.3296;-6.3662;-5.3750;-0.0001;-0.0634;-0.0253
0000411168;-2.3008;-6.2489;-5.3654;0.0016;-0.0637;-0.0272
0000411181;-2.2721;-6.2656;-5.3774;-0.0035;-0.0621;-0.0220
0000411188;-2.2673;-6.3590;-5.3941;-0.0029;-0.0566;-0.0204
0000411196;-2.2194;-6.2704;-5.3798;-0.0013;-0.0642;-0.0253
0000411208;-2.2984;-6.3303;-5.2744;-0.0079;-0.0614;-0.0218
0000411215;-2.1979;-6.3039;-5.3558;0.0019;-0.0652;-0.0302
0000411228;-2.1141;-6.2058;-5.2553;0.0080;-0.0574;-0.0216
0000411235;-2.4349;-6.5529;-5.2361;0.0015;-0.0457;-0.0160
0000411247;-2.2936;-6.3303;-5.4037;0.0053;-0.0489;-0.0189
0000411254;-2.3224;-6.2896;-5.3774;0.0060;-0.0497;-0.0195
0000411267;-2.2649;-6.3662;-5.3319;0.0059;-0.0560;-0.0177
0000411274;-2.4110;-6.3782;-5.3415;-0.0037;-0.0518;-0.0123
0000411286;-2.2889;-6.3063;-5.2960;-0.0021;-0.0556;-0.0153
0000411293;-2.2003;-6.3925;-5.2050;-0.0016;-0.0594;-0.0204
0000411306;-2.2865;-6.2560;-5.1451;0.0008;-0.0388;-0.0163
0000411313;-2.0853;-6.2776;-5.3654;-0.0019;-0.0233;-0.0173
0000411321;-2.3343;-6.3973;-5.3199;0.0039;-0.0232;-0.0173
0000411333;-2.4205;-6.4212;-5.3223;0.0016;-0.0236;-0.0131
0000411340;-2.4157;-6.3542;-5.3103;-0.0007;-0.0310;-0.0147
0000411353;-2.1189;-6.2656;-5.2960;0.0004;-0.0288;-0.0131
0000411360;-2.1332;-6.3494;-5.2840;0.0044;-0.0298;-0.0135
0000411428;-2.2841;-6.2201;-5.3534;0.0104;-0.0193;-0.0173
0000411435;-2.2529;-6.4596;-5.3247;0.0035;-0.0075;-0.0055
0000411448;-2.1787;-6.2656;-5.3774;0.0020;-0.0027;-0.0111
0000411455;-2.2410;-6.3327;-5.3103;-0.0020;-0.0047;-0.0072
0000411467;-2.2434;-6.4189;-5.3510;-0.0020;-0.0084;-0.0145
0000411474;-2.1045;-6.3207;-5.3510;-0.0035;-0.0084;-0.0099
0000411487;-2.1284;-6.4260;-5.3247;-0.0065;-0.0041;-0.0053
0000411494;-2.0566;-6.2273;-5.3846;-0.0032;-0.0019;-0.0083
0000411506;-2.2577;-6.5027;-5.4181;-0.0053;-0.0060;-0.0113
0000411513;-2.3559;-6.3997;-5.3702;-0.0029;-0.0104;-0.0104
0000411521;-2.3966;-6.3590;-5.3678;-0.0053;-0.0009;-0.0085
0000411534;-2.0925;-6.1938;-5.3965;-0.0052;-0.0052;-0.0119
0000411541;-2.1596;-6.2656;-5.3702;-0.0080;-0.0036;-0.0088
0000411553;-2.1069;-6.2058;-5.3295;-0.0083;-0.0049;-0.0101
0000411560;-2.2362;-6.2537;-5.3223;-0.0097;-0.0065;-0.0173
0000411573;-2.2410;-6.3135;-5.3678;-0.0096;-0.0060;-0.0157
0000411580;-2.0279;-6.3135;-5.3486;-0.0132;-0.0021;-0.0121
0000411592;-2.1883;-6.3949;-5.5210;-0.0133;-0.0057;-0.0133
0000411599;-2.2458;-6.4284;-5.3893;-0.0152;-0.0043;-0.0121
0000411612;-2.3367;-6.3255;-5.3965;-0.0179;-0.0111;-0.0145
0000411619;-2.1931;-6.2776;-5.3079;-0.0159;-0.0169;-0.0101
0000411687;-2.2242;-6.4667;-5.4468;-0.0188;-0.0136;-0.0079
0000411694;-2.2003;-6.3470;-5.4181;-0.0087;-0.0201;-0.0145
0000411707;-2.1380;-6.3207;-5.3726;-0.0131;-0.0201;-0.0169
0000411714;-2.2146;-6.2560;-5.4037;-0.0157;-0.0133;-0.0071
0000411722;-2.2889;-6.3997;-5.4085;-0.0211;-0.0140;-0.0072
0000411734;-2.2290;-6.2513;-5.3822;-0.0192;-0.0171;-0.0069
0000411741;-2.2410;-6.4189;-5.4324;-0.0185;-0.0191;-0.0101
0000411754;-2.1452;-6.2656;-5.3582;-0.0144;-0.0222;-0.0105
0000411761;-2.2290;-6.3063;-5.4061;-0.0173;-0.0236;-0.0145
0000411773;-2.1404;-6.2800;-5.4564;-0.0175;-0.0168;-0.0047
0000411780;-2.3008;-6.2944;-5.4277;-0.0163;-0.0240;-0.0112
0000411793;-2.1308;-6.2800;-5.4660;-0.0187;-0.0289;-0.0156
0000411800;-2.1787;-6.2728;-5.4348;-0.0120;-0.0305;-0.0160
0000411812;-2.3272;-6.4811;-5.4348;-0.0147;-0.0337;-0.0161
0000411819;-2.1524;-6.2800;-5.4133;-0.0065;-0.0250;-0.0141
0000411832;-2.1189;-6.3303;-5.4827;-0.0131;-0.0205;-0.0107
0000411839;-2.1500;-6.3422;-5.3798;-0.0191;-0.0148;-0.0075
0000411851;-2.0877;-6.2249;-5.3774;-0.0144;-0.0128;-0.0089
0000411858;-2.1548;-6.2225;-5.4348;-0.0141;-0.0209;-0.0073
0000411871;-2.3152;-6.2752;-5.4420;-0.0145;-0.0280;-0.0167
0000411878;-2.1859;-6.2273;-5.5162;-0.0148;-0.0273;-0.0105
0000411886;-2.2242;-6.4284;-5.3510;-0.0173;-0.0409;-0.0137
0000411954;-2.1380;-6.2824;-5.3726;-0.0071;-0.0449;-0.0113
0000411961;-2.0231;-6.2537;-5.3271;-0.0091;-0.0374;-0.0136
0000411974;-2.1644;-6.4715;-5.2744;-0.0064;-0.0199;-0.0093
0000411981;-2.0949;-6.2968;-5.3319;-0.0123;-0.0069;-0.0088
0000411993;-2.0925;-6.3518;-5.4157;-0.0029;0.0005;-0.0125
0000412000;-2.2218;-6.2824;-5.4708;-0.0072;-0.0039;-0.0117
0000412013;-2.3008;-6.2824;-5.4995;-0.0075;-0.0132;-0.0089
0000412020;-2.1979;-6.2249;-5.5354;-0.0087;-0.0209;-0.0135
0000412032;-2.2290;-6.2824;-5.5737;-0.0123;-0.0286;-0.0112
0000412039;-2.3320;-6.4500;-5.4324;-0.0087;-0.0357;-0.0148
0000412052;-2.0901;-6.2417;-5.4636;-0.0081;-0.0258;-0.0180
0000412059;-2.2625;-6.3063;-5.4731;-0.0061;-0.0261;-0.0119
0000412072;-2.2051;-6.3710;-5.5138;-0.0011;-0.0281;-0.0144
0000412079;-2.2649;-6.4165;-5.4564;-0.0108;-0.0234;-0.0093
0000412087;-2.1524;-6.2968;-5.4516;-0.0085;-0.0280;-0.0111
0000412099;-2.2434;-6.3279;-5.4013;-0.0103;-0.0254;-0.0119
0000412106;-2.2673;-6.4212;-5.4420;-0.0027;-0.0304;-0.0123
0000412119;-2.1189;-6.3805;-5.3750;-0.0077;-0.0268;-0.0105
0000412126;-2.2505;-6.4021;-5.4085;-0.0055;-0.0313;-0.0112
0000412139;-2.3272;-6.3686;-5.4229;-0.0041;-0.0285;-0.0159
0000412146;-2.1691;-6.3039;-5.4085;-0.0080;-0.0272;-0.0099
0000412214;-2.1189;-6.2417;-5.4803;-0.0132;-0.0428;-0.0160
0000412221;-2.0949;-6.3159;-5.4420;-0.0139;-0.0394;-0.0117
0000412233;-2.1428;-6.2058;-5.4708;-0.0171;-0.0338;-0.0113
0000412240;-2.2075;-6.3398;-5.4444;-0.0084;-0.0368;-0.0172
0000412253;-1.9800;-6.2153;-5.4947;-0.0179;-0.0293;-0.0148
0000412260;-2.1261;-6.3351;-5.4444;-0.0105;-0.0345;-0.0188
0000412272;-2.3008;-6.3111;-5.3846;-0.0100;-0.0424;-0.0169
0000412279;-2.1763;-6.3231;-5.4277;-0.0108;-0.0398;-0.0143
0000412292;-2.1284;-6.3422;-5.4085;-0.0097;-0.0418;-0.0184
0000412299;-2.1261;-6.3303;-5.4037;-0.0057;-0.0397;-0.0168
0000412307;-2.3320;-6.3973;-5.4061;-0.0117;-0.0352;-0.0121
0000412319;-2.1380;-6.3398;-5.5402;-0.0104;-0.0398;-0.0151
0000412326;-2.2960;-6.3805;-5.4684;-0.0143;-0.0384;-0.0117
0000412339;-2.1835;-6.3877;-5.4612;-0.0121;-0.0421;-0.0083
0000412346;-2.0710;-6.1699;-5.5115;-0.0109;-0.0457;-0.0163
0000412358;-2.3200;-6.3877;-5.3798;-0.0133;-0.0322;-0.0099
0000412365;-2.0423;-6.2417;-5.4372;-0.0081;-0.0409;-0.0149
0000412378;-2.1237;-6.3039;-5.4564;-0.0112;-0.0440;-0.0129
0000412385;-2.0662;-6.3662;-5.5067;-0.0159;-0.0434;-0.0155
0000412398;-2.2362;-6.2968;-5.4085;-0.0093;-0.0456;-0.0121
0000412405;-2.2889;-6.4404;-5.4588;-0.0127;-0.0378;-0.0073
0000412474;-2.2338;-6.3566;-5.3846;-0.0120;-0.0281;-0.0083
0000412481;-2.1572;-6.2106;-5.4300;-0.0089;-0.0360;-0.0120
0000412493;-2.2817;-6.3590;-5.3822;-0.0103;-0.0421;-0.0119
0000412500;-1.9609;-6.0861;-5.4324;-0.0093;-0.0424;-0.0123
0000412508;-2.1739;-6.2584;-5.3654;-0.0108;-0.0466;-0.0096
0000412521;-2.3080;-6.3255;-5.4109;-0.0172;-0.0469;-0.0091
0000412528;-2.1189;-6.2944;-5.4324;-0.0107;-0.0413;-0.0135
0000412540;-2.0375;-6.3829;-5.4061;-0.0156;-0.0249;-0.0172
0000412547;-2.2936;-6.3925;-5.4660;-0.0068;-0.0282;-0.0176
0000412560;-2.2170;-6.2225;-5.4612;-0.0135;-0.0340;-0.0099
0000412567;-2.3367;-6.3949;-5.4229;-0.0115;-0.0478;-0.0097
0000412579;-2.1069;-6.1244;-5.3103;-0.0163;-0.0402;-0.0101
0000412586;-2.0949;-6.2752;-5.3343;-0.0087;-0.0369;-0.0151
0000412599;-2.0710;-6.2010;-5.3941;-0.0069;-0.0218;-0.0201
0000412606;-2.2434;-6.4787;-5.4061;-0.0095;-0.0124;-0.0153
0000412618;-2.2793;-6.3518;-5.4540;-0.0053;-0.0179;-0.0172
0000412625;-2.3008;-6.3590;-5.4229;-0.0109;-0.0149;-0.0133
0000412638;-2.3487;-6.3949;-5.5258;-0.0084;-0.0245;-0.0095
0000412645;-2.1668;-6.2872;-5.3439;-0.0127;-0.0276;-0.0099
0000412658;-2.3320;-6.2848;-5.4229;-0.0081;-0.0312;-0.0161
0000412665;-2.1644;-6.3542;-5.5402;-0.0128;-0.0245;-0.0065
0000412673;-2.2027;-6.2872;-5.4492;-0.0087;-0.0222;-0.0112
0000412739;-2.0542;-6.2153;-5.4516;-0.0049;-0.0364;-0.0145
0000412746;-2.0135;-6.2345;-5.4133;-0.0101;-0.0356;-0.0105
0000412758;-2.1452;-6.3087;-5.4516;-0.0069;-0.0325;-0.0123
0000412765;-2.0973;-6.3159;-5.4540;-0.0129;-0.0298;-0.0101
0000412778;-2.1883;-6.3111;-5.3893;-0.0108;-0.0314;-0.0129
0000412785;-2.2314;-6.2201;-5.4444;-0.0096;-0.0309;-0.0164
0000412798;-2.1213;-6.3303;-5.4899;-0.0095;-0.0289;-0.0200
0000412805;-2.1284;-6.4212;-5.4396;-0.0163;-0.0284;-0.0230
0000412818;-2.2146;-6.2920;-5.4372;-0.0168;-0.0332;-0.0144
0000412825;-2.2338;-6.2872;-5.4181;-0.0116;-0.0404;-0.0165
0000412837;-2.3966;-6.4380;-5.4516;-0.0171;-0.0385;-0.0149
0000412844;-2.0446;-6.2010;-5.3726;-0.0168;-0.0400;-0.0144
0000412857;-2.1596;-6.3877;-5.4061;-0.0128;-0.0393;-0.0153
0000412864;-2.2051;-6.3135;-5.3630;-0.0095;-0.0416;-0.0203
0000412872;-2.1715;-6.3518;-5.4157;-0.0085;-0.0350;-0.0139
0000412884;-2.2984;-6.3063;-5.4037;-0.0073;-0.0337;-0.0113
0000412891;-2.2697;-6.2728;-5.4420;-0.0087;-0.0432;-0.0148
0000412904;-2.2889;-6.3494;-5.4300;-0.0085;-0.0452;-0.0191
0000412911;-2.0662;-6.1603;-5.5498;-0.0097;-0.0446;-0.0151
0000412924;-2.1907;-6.3614;-5.3726;-0.0092;-0.0450;-0.0171
0000412931;-2.1404;-6.2968;-5.4899;-0.0132;-0.0389;-0.0119
0000412998;-2.1668;-6.4404;-5.4396;-0.0044;-0.0489;-0.0143
0000413005;-2.2458;-6.2632;-5.4684;-0.0075;-0.0477;-0.0077
0000413018;-2.2865;-6.4835;-5.3893;-0.0081;-0.0453;-0.0088
0000413025;-2.2745;-6.3686;-5.4085;-0.0088;-0.0453;-0.0100
0000413038;-2.1644;-6.2968;-5.3917;-0.0089;-0.0442;-0.0109
0000413045;-2.2362;-6.4332;-5.3439;-0.0035;-0.0530;-0.0193
0000413058;-2.2936;-6.3758;-5.3558;-0.0020;-0.0485;-0.0167
0000413065;-2.0734;-6.2800;-5.3343;-0.0096;-0.0429;-0.0071
0000413078;-2.1380;-6.2944;-5.3774;-0.0059;-0.0373;-0.0115
0000413085;-2.1404;-6.2560;-5.3415;-0.0100;-0.0354;-0.0081
0000413093;-2.1165;-6.3087;-5.4205;-0.0045;-0.0416;-0.0123
0000413105;-2.3272;-6.4548;-5.4348;-0.0072;-0.0437;-0.0099
0000413112;-2.1811;-6.1962;-5.4133;-0.0016;-0.0466;-0.0135
0000413125;-2.1524;-6.2537;-5.4205;-0.0047;-0.0470;-0.0113
0000413132;-2.2434;-6.2944;-5.3822;-0.0017;-0.0528;-0.0176
0000413144;-2.2505;-6.2920;-5.3343;-0.0088;-0.0520;-0.0140
0000413151;-2.1404;-6.2177;-5.3079;-0.0080;-0.0548;-0.0163
0000413164;-2.1237;-6.2489;-5.4157;-0.0057;-0.0473;-0.0151
0000413171;-2.1548;-6.2848;-5.4468;-0.0067;-0.0373;-0.0168
0000413184;-2.3415;-6.4691;-5.4468;-0.0104;-0.0237;-0.0125
0000413191;-2.2410;-6.3135;-5.3702;-0.0075;-0.0349;-0.0177
0000413257;-2.3104;-6.3782;-5.4157;-0.0123;-0.0211;-0.0117
0000413264;-2.2817;-6.3662;-5.4540;-0.0093;-0.0330;-0.0164
0000413277;-2.2242;-6.3255;-5.4755;-0.0113;-0.0401;-0.0127
0000413284;-2.2362;-6.3087;-5.4755;-0.0100;-0.0438;-0.0107
0000413292;-2.1213;-6.3638;-5.4109;-0.0064;-0.0506;-0.0111
0000413305;-2.2242;-6.3662;-5.4300;-0.0101;-0.0505;-0.0100
0000413312;-2.4062;-6.5314;-5.4348;-0.0121;-0.0442;-0.0121
0000413325;-2.2434;-6.3039;-5.4779;-0.0132;-0.0444;-0.0088
0000413332;-2.2338;-6.2082;-5.4229;-0.0123;-0.0458;-0.0084
0000413345;-2.3224;-6.3590;-5.3582;-0.0063;-0.0525;-0.0107
0000413352;-2.2362;-6.2872;-5.3726;-0.0137;-0.0473;-0.0061
0000413365;-2.1787;-6.3375;-5.4181;-0.0105;-0.0564;-0.0129
0000413372;-2.1979;-6.1746;-5.4229;-0.0161;-0.0545;-0.0079
0000413385;-2.3559;-6.3901;-5.3774;-0.0205;-0.0552;-0.0041
0000413392;-2.0518;-6.1746;-5.3630;-0.0125;-0.0620;-0.0127
0000413405;-2.2003;-6.2728;-5.3893;-0.0180;-0.0613;-0.0137
0000413412;-2.3439;-6.3398;-5.4396;-0.0179;-0.0605;-0.0108
0000413425;-2.2505;-6.2656;-5.4372;-0.0179;-0.0669;-0.0071
0000413432;-2.3008;-6.3446;-5.4827;-0.0204;-0.0763;-0.0068
0000413445;-2.3966;-6.3638;-5.4971;-0.0257;-0.0822;-0.0075
0000413452;-2.1691;-6.2130;-5.5402;-0.0316;-0.0875;0.0001
0000413460;-2.5115;-6.3758;-5.5474;-0.0332;-0.0985;-0.0003
0000413525;-2.4588;-6.4165;-5.4947;-0.0582;-0.1371;0.0044
0000413532;-2.1835;-6.1316;-5.5115;-0.0683;-0.1339;0.0089
0000413545;-2.2218;-6.2177;-5.4037;-0.0762;-0.1346;0.0083
0000413552;-2.1213;-6.1890;-5.3893;-0.0830;-0.1303;0.0141
0000413565;-2.2529;-6.3494;-5.3439;-0.0845;-0.1278;0.0215
0000413572;-2.3343;-6.4356;-5.2984;-0.0758;-0.1362;0.0236
0000413585;-2.5977;-6.6343;-5.2744;-0.0677;-0.1344;0.0386
0000413592;-2.4684;-6.4476;-5.3415;-0.0658;-0.1306;0.0502
0000413605;-2.4038;-6.3351;-5.3295;-0.0691;-0.1352;0.0630
0000413612;-2.5738;-6.3135;-5.4300;-0.0717;-0.1314;0.0746
0000413625;-2.7485;-6.3758;-5.3989;-0.0857;-0.1408;0.0883
0000413632;-2.5594;-6.1268;-5.4133;-0.0874;-0.1576;0.0930
0000413640;-2.7725;-6.3159;-5.4205;-0.0934;-0.1639;0.1045
0000413653;-2.4469;-6.1483;-5.3989;-0.1077;-0.1913;0.1196
0000413660;-2.3511;-6.1651;-5.4085;-0.1087;-0.2018;0.1244
0000413672;-2.2434;-6.2177;-5.1954;-0.1192;-0.1996;0.1371
0000413680;-2.3631;-6.2369;-5.1380;-0.1234;-0.1960;0.1462
0000413692;-2.1596;-6.1651;-5.1906;-0.1200;-0.1917;0.1535
0000413700;-2.2913;-6.2297;-5.0829;-0.1155;-0.1857;0.1523
0000413712;-2.2242;-6.2800;-5.0278;-0.1071;-0.1715;0.1564
0000413720;-2.2649;-6.1914;-4.9153;-0.1055;-0.1663;0.1536
0000413785;-2.2194;-6.1435;-4.8937;-0.0596;-0.1828;0.2012
0000413792;-2.4828;-6.3518;-4.8243;-0.0446;-0.1905;0.1990
0000413805;-2.4708;-6.1723;-4.9368;-0.0421;-0.1735;0.2018
0000413812;-2.5498;-6.1363;-4.9033;-0.0310;-0.1701;0.1903
0000413820;-2.7007;-6.1603;-4.9129;-0.0300;-0.1695;0.1796
0000413833;-2.8826;-6.4955;-4.8890;-0.0215;-0.1958;0.1583
0000413840;-2.8659;-6.3829;-4.9728;-0.0117;-0.2026;0.1480
0000413853;-2.8683;-6.3470;-4.9297;-0.0021;-0.2117;0.1354
0000413860;-2.7198;-6.1986;-4.9392;0.0104;-0.2154;0.1191
0000413873;-2.8611;-6.4021;-4.9799;0.0139;-0.2062;0.1202
0000413880;-2.7174;-6.0669;-4.9321;0.0160;-0.2092;0.1120
0000413893;-2.7605;-5.9113;-5.0278;0.0156;-0.2106;0.1160
0000413900;-2.7821;-5.9328;-5.0111;0.0065;-0.2113;0.1167
0000413913;-2.6600;-5.7628;-4.9919;-0.0035;-0.2353;0.1184
0000413920;-2.6049;-5.7437;-4.9799;-0.0060;-0.2409;0.1183
0000413928;-2.4565;-5.6312;-4.9129;-0.0168;-0.2398;0.1222
0000413941;-2.5546;-5.7126;-4.9129;-0.0238;-0.2370;0.1330
0000413948;-2.6193;-6.0597;-4.8698;-0.0310;-0.2318;0.1444
0000413961;-2.3463;-5.9879;-4.9081;-0.0308;-0.2312;0.1703
0000413968;-2.2003;-6.1196;-4.9368;-0.0292;-0.2264;0.1935
0000413981;-1.9321;-6.1004;-4.9249;-0.0296;-0.2162;0.2290
0000413988;-1.7526;-5.8849;-4.9632;-0.0353;-0.1865;0.2545
0000414053;-3.2058;-4.9105;-5.1571;-0.1640;-0.0853;0.1111
0000414060;-3.1316;-4.8961;-5.1451;-0.1928;-0.0941;0.0875
0000414073;-2.9736;-4.9847;-5.0613;-0.2120;-0.1155;0.0642
0000414080;-2.9568;-5.3151;-5.0542;-0.2157;-0.1323;0.0548
0000414093;-2.6384;-5.4348;-5.0015;-0.1980;-0.1480;0.0568
0000414100;-2.5977;-5.7150;-4.9273;-0.1909;-0.1567;0.0652
0000414108;-2.6839;-5.7293;-4.8602;-0.1740;-0.1605;0.0747
0000414121;-2.3272;-5.7078;-4.9009;-0.1475;-0.1411;0.1110
0000414128;-2.4325;-5.6072;-4.9009;-0.1306;-0.1447;0.1244
0000414140;-2.3415;-5.3654;-4.7477;-0.1099;-0.1395;0.1448
0000414148;-2.3822;-5.3870;-4.7357;-0.0866;-0.1370;0.1524
0000414161;-2.5522;-5.1116;-4.6424;-0.0745;-0.1444;0.1510
0000414168;-2.1811;-4.9321;-4.6543;-0.0893;-0.1443;0.1486
0000414181;-2.1141;-4.8483;-4.8315;-0.1030;-0.1202;0.1470
0000414188;-2.3918;-4.7764;-4.7070;-0.1215;-0.1122;0.1580
0000414200;-2.4565;-4.6376;-4.6519;-0.1340;-0.1206;0.1776
0000414208;-2.6193;-4.7022;-4.5466;-0.1302;-0.1274;0.1895
0000414221;-2.7773;-4.6328;-4.6040;-0.1292;-0.1451;0.2034
0000414228;-2.8347;-4.6232;-4.6088;-0.1304;-0.1549;0.2017
0000414236;-2.8706;-4.4508;-4.5394;-0.1406;-0.1804;0.2018
0000414248;-3.1939;-4.3359;-4.6088;-0.1500;-0.2226;0.1848
0000414256;-3.2417;-4.2880;-4.4580;-0.1576;-0.2475;0.1853
0000414321;-3.5482;-4.1396;-4.2784;-0.2037;-0.4177;0.1948
0000414328;-3.2801;-3.9002;-4.3574;-0.2325;-0.4291;0.1751
0000414340;-3.4333;-3.7517;-4.3958;-0.2783;-0.4453;0.1334
0000414348;-3.3088;-3.4716;-4.3311;-0.3143;-0.4618;0.0938
0000414361;-3.3423;-3.4740;-4.1108;-0.3693;-0.5037;0.0362
0000414368;-3.4213;-3.5841;-4.3383;-0.4006;-0.5333;-0.0052
0000414381;-3.1077;-3.5338;-4.0414;-0.4474;-0.5784;-0.0408
0000414389;-2.9018;-3.7733;-3.9600;-0.4706;-0.5990;-0.0662
0000414402;-2.4253;-3.7852;-3.8978;-0.4926;-0.5886;-0.0757
0000414411;-2.5259;-3.8283;-3.9887;-0.4986;-0.5962;-0.0919
0000414420;-2.7677;-3.9480;-3.7278;-0.5165;-0.5921;-0.0729
0000414433;-2.7294;-3.7062;-3.6224;-0.5261;-0.6035;-0.0478
0000414442;-2.8491;-3.8068;-3.6895;-0.5389;-0.6134;-0.0292
0000414455;-2.5857;-3.6488;-3.5769;-0.5560;-0.6186;-0.0067
0000414464;-2.6288;-3.5889;-3.5506;-0.5730;-0.6123;0.0045
0000414477;-2.4373;-3.5889;-3.5243;-0.5929;-0.6291;0.0225
0000414486;-2.5809;-3.9097;-3.4333;-0.6017;-0.6306;0.0380
0000414499;-2.5211;-4.0342;-3.4572;-0.5971;-0.6360;0.0620
0000414508;-2.5833;-4.2593;-3.3734;-0.5926;-0.6366;0.0747
0000414521;-2.5379;-4.1779;-3.4285;-0.5796;-0.6122;0.0861
0000414530;-2.6336;-4.0510;-3.3255;-0.5773;-0.6193;0.0746
0000414595;-3.1412;-4.6352;-3.1173;-0.5837;-0.6811;0.0554
0000414604;-3.0957;-4.6064;-3.0311;-0.5758;-0.6835;0.0417
0000414617;-3.1196;-4.5514;-3.0526;-0.5585;-0.6784;0.0040
0000414626;-3.1939;-4.3431;-2.8850;-0.5601;-0.6672;-0.0200
0000414635;-3.3327;-4.2377;-2.7150;-0.5586;-0.6744;-0.0600
0000414648;-3.7469;-3.9648;-2.6719;-0.5808;-0.6969;-0.1151
0000414657;-3.9217;-3.8690;-2.6456;-0.5918;-0.7249;-0.1604
0000414670;-4.0821;-3.9576;-2.3774;-0.5921;-0.7759;-0.2134
0000414679;-4.1779;-4.2353;-2.4134;-0.5894;-0.8143;-0.2358
0000414692;-3.9145;-4.5705;-2.0063;-0.5901;-0.8836;-0.2669
0000414701;-3.8451;-4.7645;-1.9417;-0.5789;-0.8988;-0.2635
0000414714;-3.4572;-4.7549;-1.7454;-0.5800;-0.8934;-0.2642
0000414723;-3.1867;-4.5945;-1.6592;-0.5829;-0.8905;-0.2687
0000414739;-2.6049;-4.0151;-1.5754;-0.6123;-0.8635;-0.2883
0000414748;-2.5402;-4.1683;-1.4988;-0.6412;-0.8657;-0.3098
0000414761;-2.4900;-4.2210;-1.3862;-0.6853;-0.8816;-0.3299
0000414770;-2.6791;-4.4412;-1.3168;-0.7164;-0.9056;-0.3303
0000414839;-2.8395;-4.6376;-0.6823;-0.6338;-0.8259;-0.1187
0000414848;-2.8994;-4.7381;-0.5052;-0.6106;-0.8428;-0.1426
0000414857;-2.7749;-4.8147;-0.3783;-0.5846;-0.8487;-0.1729
0000414870;-2.8778;-5.8897;-0.0599;-0.4960;-0.8306;-0.2162
0000414879;-2.6887;-6.1627;0.0048;-0.4283;-0.7938;-0.2384
0000414891;-2.4900;-6.3422;-0.0192;-0.3515;-0.7117;-0.2483
0000414900;-2.6145;-6.4620;0.0479;-0.2975;-0.6667;-0.2817
0000414913;-2.9688;-6.2106;0.1724;-0.2405;-0.6162;-0.3424
0000414922;-3.5338;-6.3303;0.1867;-0.2044;-0.6009;-0.3986
0000414934;-3.9624;-6.4189;0.3974;-0.1584;-0.5977;-0.4604
0000414943;-4.2497;-6.5888;0.4381;-0.1182;-0.6183;-0.4776
0000414956;-4.5729;-6.7109;0.5890;-0.0638;-0.6776;-0.4711
0000414965;-4.6424;-6.7157;0.7111;-0.0245;-0.7164;-0.4526
0000414977;-4.2832;-6.5242;0.9888;0.0073;-0.7292;-0.4266
0000414986;-4.0893;-6.3829;0.9768;0.0385;-0.7152;-0.4219
0000414995;-4.0342;-6.3494;1.1516;0.0787;-0.7099;-0.4369
0000415008;-4.0941;-6.4045;1.1947;0.1324;-0.7222;-0.4559
0000415017;-3.8044;-6.3303;1.3216;0.1688;-0.7353;-0.4699
0000415029;-4.0247;-6.2608;1.5036;0.2160;-0.7433;-0.4830
0000415038;-4.1276;-6.1746;1.5921;0.2431;-0.7353;-0.4815
0000415051;-4.5633;-6.1938;1.7166;0.2583;-0.7229;-0.4982
0000415060;-4.5825;-5.9592;1.7502;0.2599;-0.7348;-0.5103
0000415129;-5.4348;-6.1148;2.4588;0.2991;-0.8954;-0.3211
0000415138;-5.4731;-6.1579;2.4110;0.3355;-0.9141;-0.2986
0000415151;-5.8466;-6.2465;2.4780;0.3659;-0.9373;-0.2443
0000415160;-6.0956;-6.1363;2.5474;0.3680;-0.9541;-0.2180
0000415169;-6.2297;-5.9735;2.3128;0.3647;-0.9882;-0.2030
0000415181;-6.2537;-5.8035;2.2434;0.3380;-1.0706;-0.1876
0000415190;-6.0190;-5.5929;2.3343;0.3163;-1.1454;-0.1908
0000415203;-5.7006;-5.6503;2.4948;0.2774;-1.1988;-0.1984
0000415212;-5.3486;-5.8131;2.5307;0.2661;-1.2155;-0.2238
0000415224;-5.4133;-6.0478;2.6695;0.2643;-1.2043;-0.2434
0000415233;-5.4564;-6.1675;2.6839;0.2870;-1.2037;-0.2633
0000415246;-5.4947;-6.0741;2.7031;0.2939;-1.1960;-0.2685
0000415255;-5.5450;-5.9616;2.6193;0.2924;-1.1906;-0.2729
0000415267;-5.1475;-6.0669;2.4660;0.2936;-1.2156;-0.2970
0000415276;-4.8866;-5.9400;2.5259;0.2834;-1.2470;-0.3273
0000415285;-4.6687;-6.0837;2.7916;0.2862;-1.2781;-0.3640
0000415298;-3.9409;-6.2417;3.0742;0.2928;-1.2525;-0.3696
0000415307;-3.3854;-6.0980;3.3950;0.2939;-1.2079;-0.3625
0000415319;-2.5642;-5.9568;3.6200;0.3179;-1.1080;-0.3695
0000415328;-2.4205;-5.9783;3.8164;0.3425;-1.0168;-0.3974
0000415341;-2.2242;-5.9783;3.6248;0.3742;-0.8856;-0.4477
0000415350;-2.5139;-6.1268;3.6368;0.3834;-0.8358;-0.4838
0000415420;-2.4565;-6.1723;4.3838;0.4664;-0.5946;-0.6185
0000415429;-2.2529;-5.9520;4.4245;0.4728;-0.5396;-0.6384
0000415442;-2.0830;-5.8562;3.9935;0.4999;-0.5052;-0.6816
0000415451;-2.1404;-5.8083;4.0390;0.4763;-0.5232;-0.7129
0000415460;-2.1284;-5.8730;4.3862;0.4596;-0.5167;-0.7136
0000415472;-2.1165;-6.0430;4.9273;0.4615;-0.4277;-0.7001
0000415481;-2.0614;-5.9352;4.7980;0.4682;-0.3371;-0.6883
0000415494;-2.2745;-6.1339;4.7908;0.4746;-0.2405;-0.6723
0000415503;-2.2793;-6.0118;4.2258;0.4828;-0.2161;-0.6752
0000415515;-2.3008;-5.9017;4.4125;0.4878;-0.2094;-0.6699
0000415524;-2.2362;-6.0645;4.6112;0.4950;-0.1973;-0.6446
0000415537;-2.0279;-6.0956;4.6088;0.5068;-0.1628;-0.6042
0000415546;-1.9824;-6.2273;4.8937;0.5401;-0.1603;-0.5728
0000415558;-2.2410;-6.5697;4.6495;0.5966;-0.1009;-0.5388
0000415567;-2.2889;-6.4428;5.0350;0.6348;-0.0971;-0.5308
0000415576;-2.4157;-6.2896;5.0925;0.6255;-0.0414;-0.5189
0000415589;-2.6121;-6.0118;4.7142;0.6146;-0.0300;-0.5112
0000415598;-2.5474;-5.9687;5.1068;0.5804;-0.0362;-0.4828
0000415610;-2.5666;-5.9185;5.0230;0.5233;-0.0229;-0.4543
0000415619;-2.6073;-5.9161;5.0087;0.4931;-0.0233;-0.4163
0000415632;-2.2338;-5.9759;4.4652;0.4529;-0.0308;-0.3738
0000415641;-2.2697;-5.9161;4.8076;0.4231;-0.0400;-0.3495
0000415711;-2.2027;-6.5314;4.6424;0.4599;0.2244;-0.2374
0000415720;-2.0806;-6.4524;4.0486;0.4767;0.2296;-0.2281
0000415729;-2.1715;-6.3877;4.0869;0.4707;0.2189;-0.2236
0000415742;-2.0853;-6.4691;4.2306;0.4546;0.2769;-0.2197
0000415751;-2.2242;-6.3470;3.9456;0.4355;0.2966;-0.2025
0000415763;-2.0686;-6.0142;4.3479;0.4318;0.3172;-0.1772
0000415772;-2.1404;-5.9927;4.2306;0.4373;0.3834;-0.1608
0000415785;-2.4349;-6.0023;3.8020;0.4203;0.4005;-0.1524
0000415794;-2.5307;-5.9352;4.1324;0.3852;0.4032;-0.1573
0000415806;-2.3152;-6.1866;3.8044;0.3623;0.4257;-0.1524
0000415815;-2.7605;-6.4308;3.8427;0.3605;0.4073;-0.1406
0000415824;-2.6719;-6.3638;4.0606;0.3449;0.3949;-0.1069
0000415837;-2.4134;-6.5098;3.9361;0.3421;0.4279;-0.0810
0000415846;-2.3559;-6.4236;3.7469;0.3312;0.4323;-0.0492
0000415858;-2.1572;-6.3446;3.6727;0.3179;0.4205;-0.0073
0000415867;-2.0734;-6.0861;3.7421;0.3288;0.4259;0.0108
0000415880;-2.2529;-6.0047;3.3064;0.3277;0.3854;0.0376
0000415889;-2.4565;-5.9616;3.2178;0.3079;0.3483;0.0357
0000415901;-1.9704;-6.0669;3.7661;0.2952;0.4078;0.0320
0000415910;-1.6544;-5.8371;3.4022;0.3079;0.4550;0.0180
0000415919;-2.0518;-5.8442;2.9616;0.2926;0.4211;0.0036
0000415932;-1.7286;-5.6790;3.4884;0.2368;0.4335;-0.0262
0000415941;-1.7095;-5.7509;3.3519;0.2146;0.4706;-0.0482
0000416011;-1.6640;-5.8251;3.0406;0.0521;0.4229;0.0087
0000416020;-2.0542;-5.9424;3.1101;0.0302;0.4318;0.0139
0000416033;-2.2745;-5.8754;2.8754;-0.0043;0.4229;0.0195
0000416042;-2.5570;-5.7916;2.6001;-0.0280;0.3778;0.0132
0000416054;-2.4900;-5.8945;2.9066;-0.0693;0.3580;0.0077
0000416063;-2.1907;-6.0454;3.0335;-0.1062;0.3640;0.0161
0000416072;-1.9561;-6.2010;2.8467;-0.1283;0.3351;-0.0008
0000416085;-1.7071;-6.4428;2.6959;-0.1604;0.2691;0.0007
0000416094;-1.3264;-6.4787;2.7701;-0.1677;0.2314;0.0185
0000416106;-1.6568;-6.6367;2.2601;-0.1579;0.1871;0.0148
0000416115;-1.4964;-6.3494;2.1787;-0.1667;0.1107;-0.0068
0000416128;-1.2043;-6.3255;2.7988;-0.1507;0.0131;-0.0310
0000416137;-1.0774;-6.3015;2.5546;-0.1264;-0.0332;-0.0641
0000416149;-0.4022;-6.4476;2.6025;-0.1366;-0.0933;-0.1256
0000416158;-0.1556;-6.7086;2.6695;-0.1283;-0.0977;-0.1496
0000416171;0.1245;-6.8187;2.3703;-0.1188;-0.1144;-0.1545
0000416180;0.3017;-6.9863;2.6600;-0.1222;-0.1162;-0.1347
0000416189;0.0287;-7.0964;2.6121;-0.1242;-0.1260;-0.1002
0000416200;-0.4310;-7.0653;2.6528;-0.1038;-0.1263;-0.0480
0000416209;-0.8068;-6.9528;2.7821;-0.0735;-0.1474;0.0023
0000416223;-1.6209;-6.9360;2.8826;-0.0550;-0.1643;0.0745
0000416232;-1.5826;-6.7277;3.5793;-0.0312;-0.1426;0.0927
0000416301;-1.6664;-7.0366;3.1388;-0.0155;0.0629;0.0177
0000416310;-1.7621;-6.9288;3.0622;-0.0083;0.0496;0.0123
0000416322;-1.4676;-6.8139;2.9808;-0.0055;0.0169;0.0120
0000416331;-1.4772;-6.5697;3.0670;-0.0143;0.0163;0.0354
0000416340;-1.9273;-6.5577;2.9113;-0.0262;0.0111;0.0494
0000416353;-1.9896;-6.4548;3.1580;-0.0354;-0.0043;0.0705
0000416362;-1.9369;-6.3422;3.2322;-0.0432;-0.0157;0.0914
0000416374;-1.6951;-6.5050;3.3279;-0.0629;-0.0425;0.1178
0000416383;-1.9225;-6.6272;3.3327;-0.0791;-0.0404;0.1303
0000416396;-2.0111;-6.7397;3.4500;-0.1255;-0.0823;0.1547
0000416405;-2.0231;-6.5888;3.4429;-0.1428;-0.1114;0.1709
0000416417;-1.9944;-6.5841;3.7637;-0.1685;-0.1278;0.1879
0000416426;-2.0614;-6.6918;3.6895;-0.1893;-0.1283;0.1981
0000416439;-2.0518;-6.5266;3.8810;-0.2121;-0.1220;0.2165
0000416448;-2.0470;-6.2632;3.6488;-0.2202;-0.1128;0.2161
0000416457;-2.0758;-6.2201;3.6823;-0.2356;-0.0811;0.2234
0000416469;-2.3128;-6.2010;3.4022;-0.2529;-0.0626;0.2169
0000416478;-2.4995;-6.3997;3.4979;-0.2709;-0.0561;0.2052
0000416491;-2.4301;-6.2991;3.3686;-0.2919;-0.0312;0.1933
0000416500;-2.5618;-6.1986;2.9592;-0.3112;-0.0298;0.1845
0000416512;-2.7390;-6.1579;3.0765;-0.3211;-0.0262;0.1787
0000416521;-2.6073;-6.3446;3.2441;-0.3187;-0.0137;0.1553
0000416590;-2.6264;-6.5242;3.2825;-0.2482;-0.0344;0.0468
0000416599;-2.3894;-6.7086;3.1771;-0.2326;-0.0237;0.0277
0000416611;-2.4852;-6.8211;3.0287;-0.2129;-0.0052;0.0051
0000416620;-2.4253;-6.6559;3.1723;-0.2088;-0.0019;-0.0055
0000416629;-2.5426;-6.8498;3.2298;-0.1911;-0.0217;-0.0238
0000416642;-2.8587;-6.6391;3.2489;-0.1684;-0.0544;-0.0402
0000416651;-2.9018;-6.4955;3.2896;-0.1544;-0.0915;-0.0598
0000416663;-3.3471;-6.5074;3.3662;-0.1458;-0.1415;-0.0705
0000416672;-3.4836;-6.2297;3.3902;-0.1447;-0.1964;-0.0765
0000416685;-3.7278;-6.2824;3.5027;-0.1302;-0.2944;-0.0573
0000416694;-3.5506;-6.3518;3.7637;-0.1123;-0.3537;-0.0469
0000416706;-3.6919;-6.6559;4.0486;-0.0991;-0.4174;-0.0843
0000416715;-3.8259;-6.8833;4.2784;-0.0946;-0.3958;-0.1139
0000416728;-3.6129;-6.8761;4.3551;-0.0637;-0.3772;-0.1580
0000416737;-3.3471;-6.8761;4.2713;-0.0377;-0.3726;-0.1648
0000416749;-3.0861;-7.0030;4.1803;-0.0103;-0.3543;-0.1514
0000416758;-2.8132;-6.8618;4.2425;0.0063;-0.3409;-0.1318
0000416767;-2.4517;-6.7373;4.2186;0.0065;-0.2900;-0.0871
0000416780;-2.1548;-6.4643;4.1611;0.0049;-0.2130;-0.0369
0000416789;-2.2769;-6.3662;3.9792;-0.0027;-0.1709;-0.0140
0000416801;-2.2482;-6.1028;3.8714;-0.0352;-0.1106;0.0123
0000416810;-2.0782;-6.1028;3.8618;-0.0659;-0.0766;0.0201
0000416879;-2.6911;-6.5936;3.2681;-0.2066;0.0115;0.0933
0000416888;-2.8467;-6.5841;3.1508;-0.1952;0.0131;0.0915
0000416900;-3.1029;-6.8522;3.2848;-0.1783;-0.0076;0.0815
0000416909;-3.0023;-6.6056;3.3686;-0.1641;-0.0226;0.0731
0000416918;-2.8946;-6.5673;3.4141;-0.1466;-0.0364;0.0504
0000416931;-2.9975;-6.4212;3.5650;-0.1358;-0.0436;0.0301
0000416940;-2.9066;-6.5841;3.6224;-0.1168;-0.0586;0.0191
0000416952;-2.8323;-6.5769;3.6607;-0.1017;-0.0750;0.0124
0000416961;-2.7916;-6.5146;3.8188;-0.0974;-0.0590;0.0185
0000416974;-2.7605;-6.5721;3.8690;-0.0737;-0.0594;0.0225
0000416983;-2.9066;-6.6607;3.7924;-0.0548;-0.0449;0.0308
0000416995;-2.6264;-6.5577;3.8499;-0.0352;-0.0240;0.0212
0000417004;-2.8108;-6.6894;3.8331;-0.0238;-0.0131;0.0119
0000417017;-2.6767;-6.5050;3.7038;-0.0119;-0.0107;-0.0119
0000417026;-2.7150;-6.3566;3.7781;-0.0087;0.0007;-0.0101
0000417035;-2.7605;-6.3973;3.6655;0.0035;0.0039;-0.0281
0000417047;-2.7485;-6.3279;3.5314;0.0085;0.0036;-0.0297
0000417056;-2.8467;-6.4643;3.5458;0.0133;0.0112;-0.0254
0000417069;-2.7916;-6.5338;3.4907;0.0250;0.0035;-0.0195
0000417078;-2.7174;-6.5290;3.5027;0.0368;0.0036;-0.0191
0000417090;-2.7940;-6.5146;3.4022;0.0509;0.0025;-0.0132
0000417099;-2.6408;-6.3375;3.4285;0.0554;0.0053;-0.0091
0000417168;-2.9544;-6.2537;3.5099;0.0441;-0.0269;-0.0131
0000417177;-2.8587;-6.3111;3.5937;0.0462;-0.0354;-0.0129
0000417189;-2.7509;-6.2537;3.5482;0.0381;-0.0490;-0.0080
0000417198;-3.0335;-6.3997;3.5793;0.0388;-0.0490;0.0001
0000417207;-2.7557;-6.4165;3.6607;0.0378;-0.0477;0.0004
0000417220;-2.7366;-6.3231;3.6919;0.0457;-0.0513;-0.0053
0000417229;-2.6887;-6.2824;3.7014;0.0384;-0.0462;0.0045
0000417241;-2.6073;-6.3111;3.7038;0.0404;-0.0472;0.0027
0000417250;-2.6169;-6.3207;3.6799;0.0432;-0.0428;-0.0033
0000417263;-2.6528;-6.2297;3.5793;0.0481;-0.0362;-0.0048
0000417272;-2.6240;-6.3470;3.5745;0.0541;-0.0285;-0.0081
0000417284;-2.7342;-6.3805;3.6129;0.0565;-0.0085;-0.0080
0000417293;-2.5929;-6.2058;3.6440;0.0576;0.0035;-0.0107
0000417302;-2.6743;-6.2824;3.6272;0.0581;0.0135;-0.0076
0000417315;-2.6983;-6.2201;3.5027;0.0649;0.0193;-0.0180
0000417324;-2.5738;-6.3039;3.5434;0.0574;0.0273;-0.0095
0000417336;-2.6336;-6.2608;3.4884;0.0646;0.0284;-0.0179
0000417345;-2.8587;-6.4883;3.4716;0.0678;0.0257;-0.0228
0000417358;-2.6959;-6.2560;3.3615;0.0703;0.0233;-0.0183
0000417367;-2.7773;-6.3159;3.3830;0.0652;0.0276;-0.0222
0000417379;-2.7773;-6.2130;3.3878;0.0685;0.0300;-0.0273
0000417388;-2.7078;-6.1675;3.2609;0.0722;0.0334;-0.0262
0000417397;-2.8156;-6.3231;3.3926;0.0707;0.0374;-0.0294
0000417464;-3.1173;-6.2704;3.3662;0.0604;0.0088;-0.0269
0000417473;-2.8970;-6.3422;3.4500;0.0553;0.0120;-0.0314
0000417485;-2.8467;-6.2345;3.3926;0.0504;0.0121;-0.0324
0000417494;-3.0143;-6.3877;3.3758;0.0361;0.0201;-0.0280
0000417507;-2.9401;-6.2321;3.3351;0.0378;0.0077;-0.0310
0000417516;-3.0646;-6.4332;3.3471;0.0268;0.0111;-0.0236
0000417528;-2.9688;-6.4404;3.3830;0.0274;0.0016;-0.0288
0000417537;-2.7581;-6.2441;3.4165;0.0245;-0.0043;-0.0221
0000417546;-2.7438;-6.3303;3.3758;0.0203;-0.0009;-0.0155
0000417559;-2.7294;-6.3183;3.3519;0.0236;0.0005;-0.0157
0000417568;-2.8276;-6.5457;3.4285;0.0237;-0.0023;-0.0200
0000417580;-2.7749;-6.4667;3.4237;0.0248;-0.0047;-0.0240
0000417589;-2.7940;-6.4308;3.4237;0.0228;-0.0056;-0.0216
0000417602;-2.7605;-6.3829;3.3854;0.0171;0.0027;-0.0224
0000417611;-2.7892;-6.2728;3.3878;0.0133;-0.0008;-0.0248
0000417623;-2.8395;-6.3566;3.3830;0.0085;0.0045;-0.0248
0000417632;-2.7988;-6.3159;3.4620;0.0093;0.0028;-0.0282
0000417646;-2.8754;-6.4141;3.4524;-0.0013;0.0085;-0.0222
0000417655;-2.8156;-6.3159;3.3998;-0.0067;0.0063;-0.0250
0000417664;-2.6097;-6.2896;3.4548;-0.0119;0.0061;-0.0224
0000417731;-2.8778;-6.4452;3.3758;-0.0085;-0.0133;-0.0276
0000417740;-2.8802;-6.3925;3.4716;-0.0099;-0.0047;-0.0195
0000417752;-2.7054;-6.2369;3.3782;-0.0129;0.0000;-0.0226
0000417761;-2.8323;-6.2824;3.3255;-0.0115;-0.0008;-0.0189
0000417774;-2.8635;-6.3949;3.4141;-0.0105;-0.0037;-0.0165
0000417783;-2.8539;-6.3159;3.3615;-0.0132;-0.0144;-0.0159
0000417795;-3.0478;-6.4356;3.3447;-0.0234;-0.0151;-0.0084
0000417804;-2.8036;-6.3255;3.4500;-0.0218;-0.0261;-0.0164
0000417817;-2.7797;-6.2800;3.4189;-0.0256;-0.0184;-0.0149
0000417826;-2.9449;-6.3470;3.4022;-0.0305;-0.0132;-0.0096
0000417835;-2.9113;-6.4093;3.3639;-0.0297;-0.0149;-0.0100
0000417847;-2.8347;-6.2800;3.3255;-0.0289;-0.0209;-0.0072
0000417856;-2.9185;-6.4715;3.3974;-0.0276;-0.0249;-0.0096
0000417869;-2.8850;-6.3159;3.3279;-0.0330;-0.0245;-0.0024
0000417878;-3.0239;-6.4715;3.3279;-0.0354;-0.0168;-0.0043
0000417890;-2.6456;-6.2848;3.3519;-0.0312;-0.0254;-0.0081
0000417899;-2.7797;-6.2704;3.3662;-0.0321;-0.0099;-0.0019
0000417912;-2.6528;-6.2177;3.3064;-0.0298;-0.0113;-0.0013
0000417921;-2.9113;-6.3183;3.2920;-0.0384;-0.0147;0.0011
0000417933;-2.8922;-6.3494;3.2896;-0.0405;-0.0103;-0.0028
0000417942;-2.6959;-6.2824;3.2896;-0.0318;-0.0156;-0.0095
0000418009;-2.8994;-6.4452;3.2872;-0.0429;-0.0181;-0.0051
0000418018;-2.8395;-6.2872;3.2513;-0.0436;-0.0171;0.0005
0000418027;-3.0023;-6.4284;3.2705;-0.0417;-0.0226;-0.0052
0000418039;-2.9832;-6.3710;3.2489;-0.0440;-0.0156;-0.0032
0000418048;-2.8084;-6.2513;3.2681;-0.0398;-0.0180;-0.0116
0000418061;-2.8994;-6.4620;3.2657;-0.0392;-0.0205;-0.0092
0000418070;-2.8132;-6.2130;3.2657;-0.0418;-0.0238;-0.0156
0000418082;-2.8132;-6.4117;3.3495;-0.0378;-0.0163;-0.0141
0000418091;-3.0406;-6.6248;3.2896;-0.0364;-0.0128;-0.0088
0000418104;-2.7964;-6.2680;3.3423;-0.0382;-0.0128;-0.0096
0000418113;-2.8323;-6.3207;3.2992;-0.0321;-0.0183;-0.0147
0000418125;-2.8730;-6.3446;3.2633;-0.0308;-0.0203;-0.0093
0000418134;-2.7414;-6.2728;3.2417;-0.0309;-0.0197;-0.0096
0000418147;-2.8323;-6.3255;3.2178;-0.0296;-0.0196;-0.0127
0000418156;-2.9329;-6.4356;3.2106;-0.0273;-0.0265;-0.0123
0000418165;-2.7797;-6.2728;3.2777;-0.0305;-0.0246;-0.0083
0000418177;-2.8228;-6.2369;3.2825;-0.0316;-0.0261;-0.0076
0000418186;-2.9904;-6.3949;3.2968;-0.0313;-0.0276;-0.0080
0000418199;-2.9233;-6.3925;3.2346;-0.0310;-0.0282;-0.0096
0000418208;-2.9305;-6.3805;3.2968;-0.0273;-0.0312;-0.0129
0000418220;-2.9616;-6.4572;3.2441;-0.0289;-0.0320;-0.0125
0000418229;-2.8204;-6.3758;3.2753;-0.0266;-0.0370;-0.0101
0000418296;-2.6815;-6.2991;3.1963;-0.0244;-0.0288;-0.0076
0000418305;-2.9904;-6.3853;3.2298;-0.0208;-0.0356;-0.0125
0000418317;-2.8204;-6.4260;3.2896;-0.0273;-0.0298;-0.0099
0000418326;-2.7892;-6.3446;3.1436;-0.0256;-0.0337;-0.0080
0000418339;-2.9401;-6.4284;3.3184;-0.0156;-0.0350;-0.0155
0000418348;-2.9018;-6.3949;3.2298;-0.0171;-0.0314;-0.0136
0000418357;-3.0095;-6.5457;3.2202;-0.0176;-0.0334;-0.0193
0000418369;-2.7869;-6.3279;3.2465;-0.0151;-0.0316;-0.0176
0000418378;-2.8156;-6.4548;3.2322;-0.0156;-0.0309;-0.0171
0000418391;-2.8730;-6.3710;3.1580;-0.0139;-0.0325;-0.0220
0000418400;-2.8156;-6.3446;3.3184;-0.0180;-0.0280;-0.0212
0000418412;-2.9664;-6.4356;3.3184;-0.0187;-0.0301;-0.0183
0000418421;-2.9999;-6.3183;3.2082;-0.0173;-0.0394;-0.0238
0000418434;-2.8970;-6.3470;3.2609;-0.0230;-0.0468;-0.0221
0000418443;-2.7557;-6.3614;3.2250;-0.0220;-0.0413;-0.0211
0000418455;-2.9066;-6.3877;3.3782;-0.0261;-0.0322;-0.0220
0000418464;-2.8898;-6.4165;3.2992;-0.0225;-0.0317;-0.0173
0000418477;-2.8443;-6.3446;3.1987;-0.0220;-0.0460;-0.0207
0000418486;-2.9521;-6.3446;3.2537;-0.0160;-0.0532;-0.0179
0000418495;-3.0813;-6.5553;3.2657;-0.0124;-0.0549;-0.0188
0000418507;-3.1196;-6.4907;3.2633;-0.0121;-0.0542;-0.0163
0000418516;-2.7509;-6.3494;3.2896;-0.0120;-0.0562;-0.0165
0000418583;-2.7174;-6.2201;3.3279;-0.0238;-0.0397;-0.0135
0000418592;-2.8922;-6.4835;3.1987;-0.0209;-0.0400;-0.0218
0000418604;-2.9113;-6.4979;3.2465;-0.0208;-0.0414;-0.0160
0000418613;-2.8132;-6.3231;3.2801;-0.0188;-0.0405;-0.0144
0000418626;-3.0670;-6.5984;3.2801;-0.0230;-0.0353;-0.0077
0000418635;-2.9449;-6.5314;3.3088;-0.0137;-0.0397;-0.0131
0000418647;-2.8994;-6.3398;3.2537;-0.0165;-0.0310;-0.0077
0000418656;-3.0287;-6.5146;3.3471;-0.0109;-0.0398;-0.0139
0000418669;-2.7701;-6.3303;3.2609;-0.0123;-0.0396;-0.0117
0000418678;-2.7725;-6.4189;3.3710;-0.0119;-0.0325;-0.0100
0000418687;-2.8874;-6.4643;3.3471;-0.0191;-0.0304;-0.0119
0000418699;-2.8419;-6.3470;3.2417;-0.0242;-0.0353;-0.0109
0000418708;-2.8467;-6.3590;3.3998;-0.0217;-0.0326;-0.0125
0000418721;-2.8850;-6.3590;3.3112;-0.0245;-0.0298;-0.0123
0000418730;-2.8180;-6.3590;3.3136;-0.0213;-0.0297;-0.0140
0000418742;-2.9856;-6.5410;3.2968;-0.0211;-0.0344;-0.0091
0000418751;-2.9449;-6.4548;3.2729;-0.0156;-0.0346;-0.0095
0000418764;-2.8802;-6.3494;3.2944;-0.0221;-0.0377;-0.0103
0000418773;-2.8994;-6.3686;3.3232;-0.0152;-0.0413;-0.0177
0000418785;-2.8802;-6.3398;3.3016;-0.0181;-0.0349;-0.0139
0000418794;-2.8659;-6.3279;3.3279;-0.0253;-0.0308;-0.0123
0000418861;-2.9473;-6.4212;3.3878;-0.0242;-0.0370;-0.0157
0000418870;-2.8706;-6.3446;3.3399;-0.0253;-0.0345;-0.0104
0000418879;-2.8802;-6.3470;3.3423;-0.0212;-0.0344;-0.0157
0000418891;-2.7485;-6.3734;3.2513;-0.0193;-0.0346;-0.0148
0000418900;-2.8563;-6.4165;3.2992;-0.0270;-0.0329;-0.0135
0000418913;-2.8826;-6.4069;3.3208;-0.0256;-0.0308;-0.0101
0000418922;-2.8515;-6.3925;3.2848;-0.0257;-0.0289;-0.0093
0000418934;-2.7150;-6.2225;3.2489;-0.0276;-0.0305;-0.0101
0000418943;-2.7701;-6.3327;3.2465;-0.0258;-0.0302;-0.0117
0000418956;-2.6959;-6.3111;3.3351;-0.0249;-0.0326;-0.0136
0000418965;-2.7461;-6.3087;3.3160;-0.0233;-0.0312;-0.0104
0000418977;-2.9928;-6.4524;3.2082;-0.0192;-0.0312;-0.0148
0000418986;-2.8970;-6.3877;3.2489;-0.0183;-0.0310;-0.0147
0000418995;-2.7294;-6.3782;3.1364;-0.0228;-0.0258;-0.0156
0000419008;-2.8108;-6.4548;3.3591;-0.0160;-0.0258;-0.0153
0000419017;-2.9066;-6.4691;3.3112;-0.0216;-0.0165;-0.0124
0000419029;-2.7533;-6.2608;3.3543;-0.0183;-0.0155;-0.0151
0000419038;-2.9975;-6.5529;3.3734;-0.0100;-0.0288;-0.0215
0000419051;-2.7988;-6.2201;3.3136;-0.0151;-0.0281;-0.0181
0000419060;-2.9832;-6.4332;3.4165;-0.0119;-0.0328;-0.0204
0000419072;-2.7749;-6.3518;3.3639;-0.0165;-0.0296;-0.0180
0000419081;-2.9401;-6.3710;3.3088;-0.0215;-0.0208;-0.0149
0000419149;-2.8491;-6.3710;3.4261;-0.0072;-0.0266;-0.0145
0000419158;-2.9401;-6.3925;3.3327;-0.0111;-0.0305;-0.0161
0000419171;-2.9425;-6.3470;3.2848;-0.0133;-0.0274;-0.0095
0000419180;-2.8946;-6.3494;3.2896;-0.0145;-0.0289;-0.0105
0000419189;-2.8683;-6.2920;3.2944;-0.0177;-0.0289;-0.0129
0000419201;-2.8539;-6.3638;3.3543;-0.0164;-0.0254;-0.0100
0000419210;-2.8874;-6.4404;3.2609;-0.0135;-0.0317;-0.0139
0000419223;-2.9161;-6.3231;3.2825;-0.0189;-0.0309;-0.0139
0000419232;-2.7988;-6.4045;3.3447;-0.0196;-0.0265;-0.0125
0000419244;-2.7821;-6.2968;3.2825;-0.0145;-0.0268;-0.0104
0000419253;-2.8084;-6.4404;3.3734;-0.0140;-0.0317;-0.0151
0000419266;-2.8371;-6.2106;3.2202;-0.0207;-0.0258;-0.0120
0000419275;-2.9233;-6.4332;3.3423;-0.0127;-0.0266;-0.0125
0000419287;-2.7916;-6.2824;3.3375;-0.0164;-0.0297;-0.0073
0000419296;-2.7174;-6.2249;3.3184;-0.0144;-0.0280;-0.0159
0000419309;-2.9712;-6.5314;3.3447;-0.0173;-0.0250;-0.0117
0000419318;-2.9377;-6.5194;3.3208;-0.0189;-0.0228;-0.0100
0000419327;-2.8036;-6.3805;3.3686;-0.0169;-0.0288;-0.0119
0000419339;-2.7605;-6.2584;3.2178;-0.0139;-0.0285;-0.0156
0000419348;-2.9353;-6.4476;3.3088;-0.0215;-0.0242;-0.0077
0000419361;-2.9018;-6.3925;3.2298;-0.0124;-0.0317;-0.0157
0000419370;-2.9808;-6.4117;3.3303;-0.0127;-0.0328;-0.0168
0000419438;-2.8419;-6.3686;3.3423;-0.0132;-0.0306;-0.0133
0000419447;-2.8371;-6.4739;3.2082;-0.0141;-0.0320;-0.0135
0000419460;-2.9137;-6.3422;3.3088;-0.0123;-0.0349;-0.0108
0000419469;-2.8802;-6.4141;3.2705;-0.0193;-0.0230;-0.0052
0000419481;-2.9137;-6.3470;3.2848;-0.0159;-0.0308;-0.0085
0000419490;-2.8659;-6.4835;3.2681;-0.0173;-0.0300;-0.0136
0000419503;-2.8036;-6.2800;3.2753;-0.0176;-0.0336;-0.0107
0000419512;-2.9233;-6.3398;3.2633;-0.0147;-0.0305;-0.0132
0000419521;-2.7414;-6.2417;3.1987;-0.0209;-0.0237;-0.0083
0000419533;-2.7509;-6.3351;3.2633;-0.0177;-0.0288;-0.0149
0000419542;-2.9113;-6.3351;3.3064;-0.0173;-0.0269;-0.0137
0000419555;-2.8778;-6.3183;3.2968;-0.0176;-0.0285;-0.0112
0000419564;-2.8012;-6.3159;3.2513;-0.0168;-0.0234;-0.0067
0000419576;-2.7773;-6.3255;3.2394;-0.0208;-0.0257;-0.0099
0000419585;-2.7797;-6.3303;3.1603;-0.0161;-0.0310;-0.0217
0000419598;-2.7749;-6.3590;3.1939;-0.0141;-0.0336;-0.0165
0000419607;-2.9712;-6.4596;3.3255;-0.0161;-0.0248;-0.0112
0000419619;-2.9784;-6.5457;3.2825;-0.0143;-0.0218;-0.0117
0000419628;-2.8156;-6.3494;3.3591;-0.0155;-0.0278;-0.0149
0000419641;-2.8850;-6.3829;3.3255;-0.0203;-0.0172;-0.0120
0000419650;-3.0789;-6.5122;3.2106;-0.0169;-0.0338;-0.0192
0000419659;-2.8778;-6.3542;3.2944;-0.0176;-0.0313;-0.0145
0000419729;-2.8108;-6.4093;3.2202;-0.0059;-0.0324;-0.0179
0000419738;-2.8084;-6.4069;3.2465;-0.0073;-0.0254;-0.0145
0000419751;-2.9281;-6.4620;3.2513;-0.0067;-0.0236;-0.0133
0000419760;-2.8683;-6.4045;3.3279;-0.0056;-0.0262;-0.0147
0000419772;-2.8826;-6.3351;3.2801;-0.0119;-0.0266;-0.0129
0000419781;-2.8970;-6.4500;3.3064;-0.0081;-0.0261;-0.0156
0000419794;-2.7557;-6.2944;3.3399;-0.0109;-0.0199;-0.0151
0000419803;-2.9544;-6.4356;3.2322;-0.0132;-0.0232;-0.0205
0000419815;-2.9736;-6.3063;3.2465;-0.0120;-0.0233;-0.0201
0000419824;-3.0550;-6.5074;3.3543;-0.0068;-0.0245;-0.0220
0000419837;-3.0287;-6.5362;3.3088;-0.0099;-0.0225;-0.0237
0000419846;-2.9233;-6.4141;3.2896;-0.0087;-0.0265;-0.0200
0000419855;-2.9353;-6.3614;3.2920;-0.0151;-0.0173;-0.0187
0000419867;-3.0143;-6.3446;3.3208;-0.0135;-0.0196;-0.0179
0000419876;-2.8276;-6.5170;3.3351;-0.0032;-0.0228;-0.0209
0000419889;-2.8395;-6.3901;3.3040;-0.0072;-0.0163;-0.0143
0000419898;-2.9544;-6.3877;3.4022;-0.0052;-0.0257;-0.0208
0000419910;-2.6815;-6.3758;3.2705;-0.0109;-0.0203;-0.0183
0000419919;-2.8850;-6.2776;3.3136;-0.0104;-0.0181;-0.0161
0000419932;-2.7270;-6.4524;3.2561;-0.0079;-0.0171;-0.0171
0000419941;-2.8922;-6.4260;3.3255;-0.0043;-0.0191;-0.0173
0000420011;-2.9113;-6.2010;3.2681;-0.0029;-0.0280;-0.0191
0000420020;-2.8994;-6.4189;3.2513;-0.0037;-0.0191;-0.0108
0000420033;-2.8180;-6.3327;3.3040;-0.0057;-0.0292;-0.0187
0000420042;-2.6647;-6.2824;3.2513;-0.0068;-0.0209;-0.0125
0000420051;-2.8467;-6.3494;3.2058;-0.0001;-0.0270;-0.0179
0000420063;-2.8587;-6.3422;3.1795;-0.0051;-0.0252;-0.0155
0000420072;-2.9233;-6.4117;3.2394;-0.0045;-0.0260;-0.0169
0000420085;-2.9616;-6.4763;3.3088;-0.0037;-0.0193;-0.0129
0000420094;-2.6576;-6.2393;3.2968;-0.0019;-0.0161;-0.0116
0000420106;-2.9353;-6.4811;3.2250;0.0000;-0.0216;-0.0135
0000420115;-2.9904;-6.5601;3.3639;0.0065;-0.0262;-0.0189
0000420128;-2.9281;-6.4620;3.2058;0.0040;-0.0205;-0.0161
0000420137;-2.8443;-6.3303;3.2513;0.0031;-0.0270;-0.0163
0000420149;-2.7581;-6.3734;3.3040;0.0068;-0.0314;-0.0161
0000420158;-2.8180;-6.2991;3.2777;-0.0005;-0.0257;-0.0163
0000420167;-2.8898;-6.4356;3.2010;0.0068;-0.0330;-0.0209
0000420180;-2.8060;-6.3039;3.2825;0.0007;-0.0294;-0.0160
0000420189;-2.8036;-6.3590;3.2202;0.0103;-0.0382;-0.0218
0000420201;-2.8228;-6.4356;3.2848;0.0104;-0.0349;-0.0160
0000420210;-2.8539;-6.3686;3.3255;0.0035;-0.0204;-0.0147
0000420223;-2.7821;-6.3279;3.3040;0.0056;-0.0167;-0.0148
0000420232;-2.8683;-6.4141;3.3279;0.0111;-0.0290;-0.0205
0000420301;-2.9233;-6.4212;3.3543;0.0045;-0.0318;-0.0234
0000420310;-2.8491;-6.3039;3.2226;0.0103;-0.0404;-0.0225
0000420323;-2.9090;-6.4500;3.3016;0.0063;-0.0382;-0.0173
0000420332;-3.1149;-6.6224;3.2681;0.0129;-0.0436;-0.0228
0000420341;-2.7797;-6.4620;3.2801;0.0208;-0.0418;-0.0199
0000420353;-2.7054;-6.2704;3.2106;0.0139;-0.0380;-0.0203
0000420362;-2.7988;-6.3542;3.2729;0.0045;-0.0301;-0.0151
0000420375;-2.8730;-6.3231;3.2226;0.0051;-0.0394;-0.0233
0000420384;-2.8252;-6.1531;3.3208;-0.0019;-0.0300;-0.0160
0000420396;-2.8922;-6.4260;3.2370;-0.0043;-0.0404;-0.0196
0000420405;-2.9784;-6.2991;3.3064;-0.0040;-0.0433;-0.0240
0000420418;-2.8874;-6.2537;3.2417;-0.0079;-0.0518;-0.0236
0000420427;-3.0191;-6.4141;3.2633;-0.0132;-0.0465;-0.0169
0000420439;-2.9257;-6.3901;3.2465;-0.0192;-0.0482;-0.0129
0000420448;-2.8467;-6.3949;3.2968;-0.0104;-0.0570;-0.0218
0000420461;-2.8347;-6.3614;3.3303;-0.0157;-0.0570;-0.0164
0000420470;-2.8012;-6.3446;3.2896;-0.0105;-0.0606;-0.0289
0000420479;-3.0406;-6.4308;3.3375;-0.0169;-0.0625;-0.0197
0000420491;-3.1196;-6.4835;3.3351;-0.0212;-0.0593;-0.0179
0000420500;-2.8276;-6.4620;3.3830;-0.0137;-0.0675;-0.0253
0000420514;-2.7653;-6.4117;3.4500;-0.0217;-0.0654;-0.0221
0000420523;-2.8922;-6.3710;3.4285;-0.0197;-0.0703;-0.0258
0000420592;-3.0143;-6.4500;3.4884;-0.0043;-0.0846;-0.0296
0000420601;-2.8228;-6.4308;3.4213;-0.0040;-0.0879;-0.0312
0000420613;-2.9329;-6.4548;3.5219;-0.0036;-0.0958;-0.0285
0000420622;-2.9521;-6.4021;3.5362;0.0041;-0.1071;-0.0309
0000420635;-3.1149;-6.4620;3.6559;-0.0001;-0.1166;-0.0306
0000420644;-2.9233;-6.4069;3.6895;-0.0015;-0.1182;-0.0338
0000420653;-2.7174;-6.2537;3.5913;0.0031;-0.1280;-0.0318
0000420665;-2.8084;-6.3303;3.9504;0.0059;-0.1328;-0.0316
0000420674;-2.8994;-6.4907;3.9193;0.0123;-0.1427;-0.0385
0000420687;-2.8108;-6.5386;4.0007;0.0218;-0.1424;-0.0312
0000420696;-2.7988;-6.3973;3.8666;0.0218;-0.1383;-0.0222
0000420708;-2.5857;-6.3686;3.9648;0.0368;-0.1415;-0.0228
0000420717;-2.5642;-6.3303;4.0055;0.0361;-0.1356;-0.0230
0000420730;-2.7294;-6.4021;4.2234;0.0398;-0.1466;-0.0281
0000420739;-2.5977;-6.3805;4.1492;0.0452;-0.1540;-0.0270
0000420751;-2.6001;-6.3231;4.2138;0.0514;-0.1556;-0.0249
0000420760;-2.5331;-6.2130;4.3574;0.0514;-0.1528;-0.0185
0000420769;-2.5786;-6.3063;4.3598;0.0557;-0.1619;-0.0232
0000420782;-2.4086;-6.2465;4.5442;0.0560;-0.1675;-0.0183
0000420791;-2.4181;-6.4380;4.5466;0.0698;-0.1693;-0.0169
0000420803;-2.3774;-6.3638;4.6208;0.0801;-0.1700;-0.0073
0000420812;-2.2625;-6.4045;4.7262;0.0927;-0.1612;-0.0047
0000420881;-2.8970;-6.3542;4.4843;0.1454;-0.1829;-0.0552
0000420888;-3.1843;-6.5098;4.6711;0.1531;-0.2511;-0.0630
0000420900;-3.0454;-6.3159;4.8028;0.1515;-0.2988;-0.0657
0000420907;-3.3351;-6.4428;4.4867;0.1565;-0.3475;-0.0754
0000420920;-3.2753;-6.2728;4.1348;0.1414;-0.4591;-0.0750
0000420927;-3.2178;-6.1363;4.1803;0.1286;-0.5689;-0.0785
0000420935;-3.1316;-5.9280;4.2737;0.1088;-0.6578;-0.0678
0000420947;-2.7988;-5.9256;4.3934;0.0838;-0.7501;-0.0698
0000420954;-2.5618;-6.0382;4.3718;0.0601;-0.8001;-0.0755
0000420967;-1.9106;-5.9400;4.3670;0.0273;-0.8497;-0.0791
0000420974;-1.8292;-6.1818;4.4460;0.0028;-0.8780;-0.0827
0000420986;-1.4150;-6.0525;4.4317;-0.0233;-0.9157;-0.0893
0000420993;-1.1061;-6.1962;4.2904;-0.0374;-0.9222;-0.0866
0000421006;-1.2330;-6.2513;4.0462;-0.0648;-0.9657;-0.0646
0000421013;-1.2378;-6.2680;4.1563;-0.0865;-1.0044;-0.0397
0000421025;-1.0439;-6.3279;4.3838;-0.1031;-1.0183;-0.0072
0000421032;-0.7422;-6.4787;4.4796;-0.1047;-0.9763;0.0143
0000421040;-0.4310;-6.4260;4.5849;-0.1147;-0.9198;0.0458
