time;acc_x;acc_y;acc_z;gyro_x;gyro_y;gyro_z
0001014032;6.5553;-16.0579;1.6400;-0.0169;-0.0290;-0.0101
0001014040;6.3063;-16.0866;1.6376;-0.0207;-0.0326;-0.0131
0001014047;6.4212;-16.0316;1.6520;-0.0125;-0.0385;-0.0161
0001014055;6.3375;-16.1776;1.6472;-0.0168;-0.0369;-0.0177
0001014063;6.4141;-16.1010;1.7142;-0.0109;-0.0374;-0.0155
0001014071;6.5027;-16.0795;1.6328;-0.0196;-0.0294;-0.0108
0001014079;6.5098;-16.0771;1.7095;-0.0187;-0.0312;-0.0119
0001014087;6.5434;-16.0196;1.7166;-0.0192;-0.0352;-0.0128
0001014095;6.5888;-15.9023;1.6903;-0.0084;-0.0370;-0.0167
0001014103;6.3925;-16.0675;1.6376;-0.0143;-0.0308;-0.0119
0001014111;6.4500;-16.1226;1.5826;-0.0160;-0.0294;-0.0100
0001014119;6.4476;-15.9933;1.6879;-0.0173;-0.0342;-0.0116
0001014127;6.3638;-16.2327;1.6903;-0.0137;-0.0386;-0.0167
0001014135;6.5434;-16.0603;1.6520;-0.0175;-0.0284;-0.0104
0001014143;6.3829;-16.1034;1.6472;-0.0232;-0.0285;-0.0125
0001014151;6.2632;-16.2351;1.7047;-0.0205;-0.0361;-0.0164
0001014159;6.3901;-16.1345;1.6616;-0.0180;-0.0353;-0.0165
0001014167;6.4859;-16.1082;1.6712;-0.0238;-0.0294;-0.0100
0001014175;6.5673;-15.9382;1.5945;-0.0212;-0.0320;-0.0121
0001014183;6.4835;-16.0627;1.6855;-0.0201;-0.0301;-0.0143
0001014191;6.4643;-16.1513;1.6783;-0.0135;-0.0340;-0.0161
0001014199;6.5314;-16.0723;1.7310;-0.0105;-0.0369;-0.0144
0001014207;6.3183;-16.1034;1.7119;-0.0144;-0.0276;-0.0117
0001014215;6.5146;-16.1226;1.6640;-0.0189;-0.0330;-0.0168
0001014223;6.4572;-16.0962;1.6879;-0.0139;-0.0297;-0.0139
0001014231;6.4069;-16.0914;1.7166;-0.0135;-0.0352;-0.0191
0001014239;6.2513;-16.1585;1.6783;-0.0209;-0.0305;-0.0139
0001014247;6.3973;-16.1633;1.6328;-0.0204;-0.0357;-0.0132
0001014255;6.4883;-15.9693;1.7334;-0.0135;-0.0358;-0.0188
0001014263;6.3805;-16.1441;1.5610;-0.0160;-0.0342;-0.0173
0001014271;6.3782;-16.2255;1.6640;-0.0173;-0.0381;-0.0195
0001014279;6.2991;-16.2135;1.7526;-0.0195;-0.0341;-0.0133
0001014287;6.4093;-16.2016;1.7406;-0.0135;-0.0385;-0.0207
0001014295;6.3279;-16.1273;1.6161;-0.0167;-0.0354;-0.0128
0001014303;6.4476;-16.1058;1.6951;-0.0185;-0.0384;-0.0191
0001014311;6.4715;-16.0028;1.6831;-0.0139;-0.0380;-0.0205
0001014319;6.3734;-16.0986;1.6999;-0.0184;-0.0320;-0.0088
0001014327;6.5338;-15.9741;1.5778;-0.0173;-0.0372;-0.0195
0001014335;6.4643;-15.9981;1.6807;-0.0113;-0.0382;-0.0189
0001014343;6.3111;-16.1130;1.7071;-0.0143;-0.0350;-0.0143
0001014351;6.3494;-16.2207;1.6352;-0.0137;-0.0342;-0.0128
0001014359;6.4308;-16.1106;1.6999;-0.0131;-0.0361;-0.0193
0001014367;6.3805;-16.1010;1.6328;-0.0051;-0.0418;-0.0161
0001014375;6.5697;-16.0316;1.5706;-0.0137;-0.0344;-0.0107
0001014383;6.4572;-16.1369;1.6544;-0.0163;-0.0346;-0.0096
0001014391;6.4763;-15.9861;1.6400;-0.0165;-0.0342;-0.0156
0001014399;6.4117;-16.0986;1.5874;-0.0121;-0.0410;-0.0188
0001014407;6.4452;-16.0292;1.6831;-0.0151;-0.0372;-0.0141
0001014415;6.4548;-16.1106;1.6209;-0.0191;-0.0318;-0.0121
0001014423;6.4691;-16.0938;1.6616;-0.0192;-0.0362;-0.0147
0001014431;6.3039;-16.1369;1.7430;-0.0139;-0.0394;-0.0185
0001014439;6.3446;-16.1345;1.6496;-0.0143;-0.0304;-0.0151
0001014447;6.3782;-16.0747;1.6448;-0.0115;-0.0386;-0.0177
0001014455;6.3877;-16.1728;1.6065;-0.0147;-0.0342;-0.0135
0001014463;6.4141;-16.0579;1.5730;-0.0140;-0.0306;-0.0136
0001014471;6.4189;-16.0555;1.6209;-0.0148;-0.0362;-0.0160
0001014479;6.6295;-15.9119;1.7214;-0.0189;-0.0316;-0.0120
0001014487;6.5146;-16.0268;1.7142;-0.0076;-0.0325;-0.0139
0001014495;6.5362;-16.0459;1.6568;-0.0167;-0.0317;-0.0105
0001014503;6.5122;-16.0771;1.6568;-0.0191;-0.0301;-0.0097
0001014511;6.4332;-16.1178;1.6735;-0.0155;-0.0332;-0.0119
0001014519;6.4907;-16.0603;1.6568;-0.0111;-0.0370;-0.0197
0001014527;6.4141;-16.1585;1.6927;-0.0120;-0.0337;-0.0133
0001014535;6.4308;-16.1202;1.6305;-0.0081;-0.0265;-0.0103
0001014543;6.4380;-16.1992;1.7286;-0.0065;-0.0305;-0.0109
0001014551;6.3231;-16.2064;1.7119;0.0028;-0.0354;-0.0200
0001014559;6.3159;-16.1585;1.7310;0.0045;-0.0366;-0.0149
0001014567;6.5577;-16.0435;1.6759;0.0032;-0.0306;-0.0129
0001014575;6.4763;-16.0771;1.6400;-0.0019;-0.0313;-0.0112
0001014602;6.4715;-15.9909;1.6807;-0.0039;-0.0284;-0.0131
0001014610;6.4859;-15.9885;1.7238;-0.0045;-0.0310;-0.0084
0001014618;6.5984;-15.9382;1.6688;-0.0021;-0.0325;-0.0172
0001014626;6.4596;-16.0388;1.6783;0.0001;-0.0332;-0.0177
0001014634;6.7421;-15.7826;1.5586;-0.0027;-0.0340;-0.0160
0001014642;6.5362;-16.0244;1.7310;-0.0005;-0.0338;-0.0220
0001014650;6.4955;-16.1680;1.7933;-0.0032;-0.0308;-0.0125
0001014658;6.4643;-15.9478;1.6616;-0.0033;-0.0301;-0.0189
0001014666;6.3829;-16.1609;1.7526;-0.0071;-0.0266;-0.0143
0001014674;6.4548;-16.1010;1.7095;-0.0065;-0.0277;-0.0144
0001014682;6.3877;-16.1297;1.6999;-0.0055;-0.0285;-0.0141
0001014690;6.4643;-16.0795;1.7454;0.0015;-0.0334;-0.0195
0001014698;6.3614;-16.0938;1.7334;-0.0035;-0.0284;-0.0177
0001014706;6.2489;-16.2183;1.7142;-0.0089;-0.0297;-0.0180
0001014714;6.5553;-15.9167;1.6807;-0.0021;-0.0365;-0.0234
0001014722;6.3566;-16.1896;1.7382;-0.0064;-0.0353;-0.0189
0001014730;6.4452;-15.9885;1.6233;-0.0092;-0.0336;-0.0169
0001014738;6.4069;-15.9597;1.6257;-0.0136;-0.0337;-0.0173
0001014746;6.5218;-15.9430;1.6472;-0.0100;-0.0364;-0.0224
0001014754;6.2560;-16.2399;1.6688;-0.0043;-0.0396;-0.0225
0001014762;6.3901;-16.0531;1.7119;-0.0071;-0.0361;-0.0187
0001014770;6.6535;-15.9574;1.6807;-0.0116;-0.0313;-0.0183
0001014778;6.4476;-16.0747;1.7119;-0.0048;-0.0409;-0.0290
0001014786;6.4452;-16.0555;1.6352;-0.0068;-0.0449;-0.0221
0001014794;6.4236;-16.1273;1.6305;-0.0133;-0.0377;-0.0148
0001014802;6.2944;-16.1968;1.6735;-0.0116;-0.0380;-0.0233
0001014810;6.2991;-16.0819;1.7454;-0.0104;-0.0429;-0.0218
0001014818;6.4524;-15.9957;1.6376;-0.0137;-0.0433;-0.0221
0001014826;6.4763;-16.1297;1.7119;-0.0137;-0.0389;-0.0177
0001014834;6.4332;-16.1537;1.6831;-0.0108;-0.0442;-0.0248
0001014842;6.3375;-16.1824;1.6783;-0.0131;-0.0369;-0.0209
0001014850;6.4620;-16.1513;1.6400;-0.0169;-0.0329;-0.0193
0001014858;6.4093;-16.2159;1.6640;-0.0153;-0.0358;-0.0208
0001014866;6.6056;-16.0699;1.8124;-0.0133;-0.0382;-0.0222
0001014874;6.3925;-16.0364;1.6879;-0.0107;-0.0393;-0.0229
0001014882;6.3805;-16.1393;1.6544;-0.0115;-0.0361;-0.0179
0001014890;6.3782;-16.1944;1.6448;-0.0075;-0.0374;-0.0222
0001014898;6.4763;-16.1345;1.6688;-0.0101;-0.0290;-0.0140
0001014906;6.3973;-16.1202;1.8052;-0.0025;-0.0342;-0.0169
0001014914;6.4093;-16.1130;1.6352;-0.0116;-0.0318;-0.0144
0001014922;6.3997;-16.0388;1.7549;-0.0133;-0.0278;-0.0143
0001014930;6.3853;-16.1249;1.7262;-0.0085;-0.0329;-0.0149
0001014938;6.5074;-16.1034;1.6305;-0.0128;-0.0300;-0.0097
0001014946;6.3398;-16.1656;1.7765;-0.0141;-0.0298;-0.0119
0001014954;6.3710;-16.1297;1.7190;-0.0124;-0.0342;-0.0169
0001014962;6.5649;-16.0675;1.7478;-0.0127;-0.0296;-0.0141
0001014970;6.4859;-16.0603;1.7382;-0.0163;-0.0340;-0.0183
0001014978;6.5027;-16.1393;1.7454;-0.0092;-0.0350;-0.0148
0001014986;6.4189;-16.2327;1.6927;-0.0128;-0.0305;-0.0131
0001014994;6.3614;-16.0435;1.6927;-0.0127;-0.0333;-0.0151
0001015002;6.3710;-16.0316;1.7406;-0.0017;-0.0393;-0.0172
0001015010;6.4931;-16.0842;1.6975;-0.0095;-0.0357;-0.0112
0001015018;6.3590;-16.1609;1.7047;-0.0099;-0.0330;-0.0093
0001015026;6.3949;-16.2351;1.5993;-0.0095;-0.0358;-0.0139
0001015034;6.4763;-16.0531;1.7526;-0.0075;-0.0393;-0.0145
0001015042;6.4069;-15.9981;1.7047;-0.0035;-0.0349;-0.0116
0001015050;6.4117;-16.0914;1.7861;-0.0077;-0.0329;-0.0099
0001015058;6.3183;-16.0914;1.7047;-0.0099;-0.0348;-0.0107
0001015066;6.5098;-16.0914;1.6400;-0.0075;-0.0364;-0.0187
0001015074;6.4787;-15.8975;1.7286;0.0012;-0.0421;-0.0155
0001015082;6.3542;-16.0675;1.7358;-0.0076;-0.0424;-0.0143
0001015090;6.4811;-15.9933;1.6951;-0.0088;-0.0346;-0.0057
0001015098;6.2106;-16.2183;1.6472;-0.0160;-0.0409;-0.0108
0001015106;6.4596;-16.0579;1.6400;-0.0145;-0.0348;-0.0068
0001015114;6.3183;-16.1010;1.6831;-0.0113;-0.0353;-0.0099
0001015122;6.3542;-16.1273;1.6472;-0.0137;-0.0374;-0.0116
0001015130;6.4452;-16.1393;1.6376;-0.0179;-0.0334;-0.0115
0001015138;6.5434;-16.2518;1.7142;-0.0099;-0.0394;-0.0175
0001015146;6.4931;-16.1393;1.6735;-0.0180;-0.0328;-0.0189
0001015154;6.4380;-16.1106;1.7071;-0.0093;-0.0342;-0.0155
0001015239;6.5338;-15.9885;1.7382;-0.0141;-0.0298;-0.0108
0001015247;6.4308;-16.2087;1.7621;-0.0140;-0.0330;-0.0075
0001015255;6.3686;-16.1824;1.6927;-0.0109;-0.0296;-0.0123
0001015263;6.5050;-16.0962;1.6927;-0.0073;-0.0313;-0.0096
0001015271;6.3590;-16.3021;1.6735;-0.0063;-0.0344;-0.0084
0001015279;6.4524;-16.0555;1.7142;-0.0104;-0.0366;-0.0137
0001015287;6.3398;-16.0842;1.6568;-0.0041;-0.0389;-0.0145
0001015295;6.5003;-15.9957;1.7286;-0.0064;-0.0362;-0.0127
0001015303;6.4739;-16.0986;1.6712;-0.0116;-0.0332;-0.0113
0001015311;6.4979;-15.8568;1.6376;-0.0088;-0.0400;-0.0143
0001015319;6.5505;-16.0603;1.7286;-0.0087;-0.0353;-0.0105
0001015327;6.5194;-16.0172;1.7693;-0.0109;-0.0346;-0.0100
0001015335;6.3279;-16.0675;1.6352;-0.0109;-0.0341;-0.0075
0001015343;6.3590;-16.1776;1.6999;-0.0081;-0.0326;-0.0077
0001015351;6.2632;-16.2758;1.7358;-0.0077;-0.0370;-0.0119
0001015359;6.5362;-15.9597;1.7214;-0.0039;-0.0377;-0.0121
0001015367;6.2537;-16.0842;1.7693;-0.0028;-0.0345;-0.0096
0001015375;6.2584;-16.1896;1.7597;-0.0041;-0.0381;-0.0177
0001015383;6.4907;-16.0316;1.7071;-0.0075;-0.0354;-0.0129
0001015391;6.3231;-16.0388;1.7861;-0.0160;-0.0310;-0.0096
0001015399;6.4955;-15.9861;1.6759;-0.0203;-0.0330;-0.0133
0001015407;6.3470;-16.0076;1.6759;-0.0144;-0.0345;-0.0113
0001015415;6.3327;-16.1130;1.7573;-0.0171;-0.0324;-0.0083
0001015423;6.3686;-16.1441;1.6759;-0.0145;-0.0352;-0.0115
0001015431;6.5242;-16.0459;1.7262;-0.0171;-0.0344;-0.0136
0001015439;6.7062;-15.8855;1.7909;-0.0104;-0.0352;-0.0164
0001015447;6.3686;-16.0986;1.7909;-0.0157;-0.0318;-0.0159
0001015455;6.4811;-16.1441;1.7047;-0.0097;-0.0389;-0.0184
0001015463;6.4404;-16.0555;1.7119;-0.0089;-0.0361;-0.0173
0001015471;6.5194;-15.9885;1.7693;-0.0136;-0.0349;-0.0117
0001015479;6.5098;-15.9262;1.7382;-0.0155;-0.0342;-0.0148
0001015487;6.3734;-16.0603;1.7238;-0.0191;-0.0328;-0.0148
0001015495;6.3590;-16.1178;1.7669;-0.0113;-0.0377;-0.0180
0001015503;6.4883;-16.0340;1.7190;-0.0164;-0.0309;-0.0175
0001015511;6.5098;-16.1752;1.7430;-0.0220;-0.0320;-0.0141
0001015519;6.4524;-16.0531;1.6352;-0.0237;-0.0294;-0.0141
0001015527;6.3183;-16.1178;1.7909;-0.0173;-0.0360;-0.0171
0001015535;6.2968;-16.1585;1.6879;-0.0224;-0.0301;-0.0107
0001015543;6.3470;-16.1537;1.7741;-0.0226;-0.0289;-0.0069
0001015551;6.5817;-15.9190;1.6544;-0.0189;-0.0344;-0.0143
0001015559;6.4572;-16.0531;1.6759;-0.0155;-0.0352;-0.0188
0001015567;6.6056;-16.0627;1.7119;-0.0173;-0.0313;-0.0144
0001015575;6.6104;-15.9382;1.6640;-0.0184;-0.0362;-0.0172
0001015583;6.4308;-16.0076;1.7549;-0.0230;-0.0290;-0.0128
0001015591;6.4356;-16.0388;1.7454;-0.0280;-0.0337;-0.0137
0001015599;6.3829;-16.0076;1.6807;-0.0230;-0.0341;-0.0168
0001015607;6.4141;-16.1273;1.7238;-0.0268;-0.0270;-0.0109
0001015615;6.4500;-16.0771;1.7382;-0.0297;-0.0256;-0.0091
0001015623;6.3422;-16.1561;1.6831;-0.0320;-0.0273;-0.0159
0001015631;6.4212;-16.0388;1.6903;-0.0250;-0.0324;-0.0164
0001015639;6.4883;-15.9909;1.6807;-0.0289;-0.0277;-0.0105
0001015647;6.4212;-16.1489;1.6185;-0.0277;-0.0292;-0.0165
0001015655;6.2824;-16.1130;1.6975;-0.0229;-0.0384;-0.0221
0001015663;6.3901;-16.0723;1.7717;-0.0229;-0.0290;-0.0135
0001015671;6.3231;-16.0388;1.7358;-0.0232;-0.0304;-0.0119
0001015679;6.4811;-16.0699;1.7526;-0.0241;-0.0332;-0.0167
0001015687;6.5242;-15.9358;1.6640;-0.0280;-0.0281;-0.0136
0001015695;6.4979;-15.9885;1.6664;-0.0252;-0.0346;-0.0136
0001015703;6.2752;-16.1034;1.7262;-0.0256;-0.0314;-0.0143
0001015711;6.5074;-15.9813;1.6759;-0.0215;-0.0400;-0.0173
0001015719;6.3111;-16.0771;1.6041;-0.0269;-0.0368;-0.0133
0001015727;6.2608;-16.1848;1.6568;-0.0288;-0.0313;-0.0159
0001015735;6.3758;-16.0699;1.6544;-0.0306;-0.0388;-0.0140
0001015743;6.4165;-16.1034;1.7526;-0.0260;-0.0381;-0.0191
0001015751;6.4500;-15.9693;1.6807;-0.0282;-0.0346;-0.0108
0001015759;6.4763;-15.9813;1.6688;-0.0277;-0.0381;-0.0140
0001015767;6.5529;-16.0771;1.6113;-0.0268;-0.0346;-0.0121
0001015775;6.3566;-16.1034;1.6640;-0.0304;-0.0360;-0.0156
0001015783;6.3470;-16.1728;1.6592;-0.0175;-0.0424;-0.0212
0001015869;6.4165;-16.1800;1.7119;-0.0280;-0.0342;-0.0123
0001015877;6.4069;-16.1441;1.6568;-0.0224;-0.0325;-0.0128
0001015885;6.3590;-16.2064;1.6640;-0.0175;-0.0361;-0.0104
0001015893;6.3782;-16.0962;1.6712;-0.0226;-0.0269;-0.0097
0001015901;6.4691;-16.1417;1.6496;-0.0257;-0.0334;-0.0104
0001015909;6.3518;-16.0412;1.6281;-0.0225;-0.0312;-0.0125
0001015917;6.2728;-16.1992;1.7023;-0.0199;-0.0380;-0.0189
0001015925;6.5098;-16.1417;1.6879;-0.0246;-0.0348;-0.0129
0001015933;6.3279;-16.0890;1.7406;-0.0297;-0.0301;-0.0113
0001015941;6.2991;-16.2040;1.7071;-0.0245;-0.0334;-0.0121
0001015949;6.3518;-16.2159;1.6592;-0.0188;-0.0337;-0.0137
0001015957;6.7014;-15.9621;1.6472;-0.0217;-0.0314;-0.0037
0001015965;6.3566;-16.1010;1.6783;-0.0218;-0.0284;-0.0116
0001015973;6.4117;-16.1656;1.7334;-0.0181;-0.0333;-0.0115
0001015981;6.4356;-16.0699;1.6640;-0.0160;-0.0357;-0.0119
0001015989;6.3662;-16.1058;1.6759;-0.0234;-0.0281;-0.0109
0001015997;6.6056;-16.0603;1.6688;-0.0245;-0.0334;-0.0151
0001016005;6.7038;-16.0771;1.5802;-0.0222;-0.0334;-0.0112
0001016013;6.6008;-16.0603;1.5897;-0.0280;-0.0353;-0.0120
0001016021;6.4189;-16.1321;1.7406;-0.0270;-0.0334;-0.0176
0001016029;6.4739;-16.0412;1.6879;-0.0213;-0.0374;-0.0152
0001016037;6.3255;-16.1585;1.6520;-0.0221;-0.0309;-0.0125
0001016045;6.5434;-15.9789;1.6520;-0.0184;-0.0370;-0.0153
0001016053;6.4691;-16.1249;1.6688;-0.0149;-0.0385;-0.0123
0001016061;6.3470;-16.1297;1.7095;-0.0187;-0.0316;-0.0093
0001016069;6.3566;-16.1321;1.6161;-0.0180;-0.0333;-0.0177
0001016077;6.4380;-16.0483;1.6735;-0.0131;-0.0394;-0.0156
0001016085;6.3877;-16.0986;1.6209;-0.0144;-0.0344;-0.0093
0001016093;6.3303;-16.1848;1.5897;-0.0207;-0.0320;-0.0108
0001016101;6.2321;-16.2040;1.7382;-0.0216;-0.0318;-0.0125
0001016109;6.3542;-16.0555;1.6712;-0.0211;-0.0326;-0.0107
0001016117;6.4476;-16.0771;1.5897;-0.0195;-0.0330;-0.0147
0001016125;6.4715;-16.1393;1.7023;-0.0207;-0.0338;-0.0133
0001016133;6.3303;-16.0819;1.5850;-0.0176;-0.0326;-0.0143
0001016141;6.4476;-16.0723;1.6281;-0.0128;-0.0393;-0.0161
0001016149;6.3662;-16.0914;1.6807;-0.0191;-0.0342;-0.0131
0001016157;6.2584;-16.2375;1.7214;-0.0220;-0.0348;-0.0115
0001016165;6.3351;-16.2016;1.6448;-0.0183;-0.0370;-0.0131
0001016173;6.2704;-16.1656;1.6975;-0.0151;-0.0402;-0.0192
0001016181;6.3303;-16.1106;1.7023;-0.0171;-0.0329;-0.0100
0001016189;6.2944;-16.1800;1.6568;-0.0185;-0.0338;-0.0152
0001016197;6.2848;-16.1609;1.6975;-0.0125;-0.0396;-0.0200
0001016205;6.4452;-16.0962;1.6712;-0.0113;-0.0370;-0.0147
0001016213;6.6224;-15.8951;1.6185;-0.0152;-0.0305;-0.0116
0001016221;6.5697;-16.0579;1.6448;-0.0120;-0.0354;-0.0128
0001016229;6.4093;-16.1704;1.6903;-0.0155;-0.0370;-0.0113
0001016237;6.4332;-16.0076;1.6735;-0.0195;-0.0308;-0.0103
0001016245;6.3805;-16.1273;1.6137;-0.0218;-0.0340;-0.0152
0001016253;6.5505;-16.0196;1.6041;-0.0228;-0.0302;-0.0136
0001016261;6.3183;-16.1345;1.6065;-0.0215;-0.0346;-0.0188
0001016269;6.5457;-16.0842;1.7597;-0.0230;-0.0312;-0.0148
0001016277;6.5362;-16.1393;1.6424;-0.0220;-0.0300;-0.0124
0001016285;6.3039;-16.2207;1.5993;-0.0254;-0.0330;-0.0103
0001016293;6.4955;-16.0244;1.6137;-0.0191;-0.0344;-0.0147
0001016301;6.5386;-15.9741;1.7406;-0.0160;-0.0357;-0.0140
0001016309;6.4452;-16.2135;1.6664;-0.0200;-0.0292;-0.0057
0001016317;6.5745;-15.9238;1.6975;-0.0180;-0.0256;-0.0087
0001016325;6.2177;-16.2423;1.7047;-0.0199;-0.0298;-0.0121
0001016333;6.2177;-16.2351;1.7071;-0.0153;-0.0354;-0.0171
0001016341;6.2656;-16.1010;1.7095;-0.0232;-0.0288;-0.0136
0001016349;6.0861;-16.3021;1.7310;-0.0213;-0.0346;-0.0217
0001016357;6.4069;-16.0842;1.6472;-0.0163;-0.0349;-0.0181
0001016365;6.3614;-16.0531;1.7142;-0.0188;-0.0321;-0.0161
0001016373;6.2968;-16.1561;1.7190;-0.0196;-0.0360;-0.0209
0001016381;6.3039;-16.1800;1.6927;-0.0179;-0.0317;-0.0129
0001016389;6.4835;-16.0795;1.7166;-0.0260;-0.0308;-0.0128
0001016397;6.2896;-16.2279;1.6352;-0.0147;-0.0376;-0.0159
0001016405;6.2704;-16.2183;1.6352;-0.0230;-0.0316;-0.0127
0001016413;6.5003;-16.0459;1.7023;-0.0147;-0.0370;-0.0148
0001016421;6.4835;-16.1944;1.6352;-0.0201;-0.0325;-0.0109
0001016507;6.6032;-15.9550;1.5969;-0.0184;-0.0369;-0.0157
0001016515;6.4835;-16.0795;1.6376;-0.0180;-0.0372;-0.0199
0001016523;6.2752;-16.1034;1.6688;-0.0195;-0.0325;-0.0132
0001016531;6.5266;-16.1202;1.7693;-0.0160;-0.0402;-0.0211
0001016539;6.5218;-16.1513;1.6855;-0.0188;-0.0360;-0.0141
0001016547;6.3997;-16.1130;1.5826;-0.0209;-0.0310;-0.0131
0001016555;6.3470;-16.2351;1.5969;-0.0125;-0.0338;-0.0163
0001016563;6.3351;-16.0483;1.6233;-0.0177;-0.0332;-0.0144
0001016571;6.4763;-16.0483;1.6879;-0.0136;-0.0272;-0.0184
0001016579;6.4620;-16.1417;1.6424;-0.0145;-0.0324;-0.0204
0001016587;6.5673;-16.0890;1.6448;-0.0176;-0.0320;-0.0129
0001016595;6.3446;-16.0651;1.6376;-0.0132;-0.0330;-0.0124
0001016603;6.4667;-16.0675;1.6616;-0.0165;-0.0376;-0.0147
0001016611;6.3470;-16.1249;1.6472;-0.0103;-0.0366;-0.0159
0001016619;6.3590;-16.1513;1.6568;-0.0164;-0.0305;-0.0117
0001016627;6.4643;-16.1537;1.6735;-0.0185;-0.0302;-0.0109
0001016635;6.2896;-16.1154;1.6807;-0.0109;-0.0364;-0.0195
0001016643;6.3734;-16.1010;1.6592;-0.0137;-0.0334;-0.0157
0001016651;6.4212;-16.1656;1.6688;-0.0173;-0.0300;-0.0095
0001016659;6.4883;-16.1034;1.6113;-0.0191;-0.0278;-0.0109
0001016667;6.4883;-16.0388;1.6783;-0.0159;-0.0354;-0.0127
0001016675;6.5098;-16.0938;1.7286;-0.0128;-0.0336;-0.0168
0001016683;6.4356;-16.0723;1.6233;-0.0164;-0.0304;-0.0119
0001016691;6.3782;-16.0220;1.6520;-0.0183;-0.0285;-0.0084
0001016699;6.5505;-16.0172;1.6759;-0.0156;-0.0345;-0.0136
0001016707;6.4404;-15.9430;1.7071;-0.0177;-0.0329;-0.0171
0001016715;6.3470;-16.1393;1.7190;-0.0117;-0.0418;-0.0184
0001016723;6.3973;-16.1465;1.6544;-0.0181;-0.0325;-0.0139
0001016731;6.3470;-16.1273;1.6568;-0.0145;-0.0321;-0.0135
0001016739;6.5912;-15.8712;1.7142;-0.0165;-0.0318;-0.0109
0001016747;6.4811;-16.0603;1.7071;-0.0065;-0.0428;-0.0193
0001016755;6.5481;-16.0268;1.5993;-0.0117;-0.0384;-0.0147
0001016763;6.4332;-16.1585;1.6041;-0.0164;-0.0345;-0.0119
0001016771;6.4691;-16.0579;1.6448;-0.0136;-0.0309;-0.0139
0001016779;6.2489;-16.1010;1.6520;-0.0079;-0.0412;-0.0153
0001016787;6.4236;-16.0651;1.6161;-0.0167;-0.0322;-0.0115
0001016795;6.4069;-16.1034;1.6185;-0.0067;-0.0394;-0.0160
0001016803;6.4835;-16.1561;1.6735;-0.0103;-0.0400;-0.0189
0001016811;6.2369;-16.1513;1.6999;-0.0112;-0.0345;-0.0147
0001016819;6.3542;-16.2207;1.6712;-0.0148;-0.0358;-0.0169
0001016827;6.4763;-15.9957;1.5921;-0.0176;-0.0298;-0.0072
0001016835;6.3805;-16.0795;1.7238;-0.0132;-0.0348;-0.0183
0001016843;6.4093;-16.0795;1.6161;-0.0151;-0.0309;-0.0132
0001016851;6.4093;-16.1010;1.6257;-0.0131;-0.0342;-0.0197
0001016859;6.4021;-16.0220;1.6448;-0.0103;-0.0374;-0.0184
0001016867;6.4500;-16.0675;1.6712;-0.0140;-0.0345;-0.0180
0001016875;6.4596;-16.0459;1.5969;-0.0133;-0.0362;-0.0173
0001016883;6.3303;-16.0819;1.7095;-0.0196;-0.0328;-0.0143
0001016891;6.3542;-16.1824;1.7382;-0.0140;-0.0341;-0.0176
0001016899;6.4643;-16.1249;1.6376;-0.0105;-0.0368;-0.0147
0001016907;6.3949;-16.1704;1.7190;-0.0133;-0.0324;-0.0135
0001016915;6.4452;-16.0268;1.7119;-0.0128;-0.0313;-0.0113
0001016923;6.4380;-16.0220;1.5826;-0.0051;-0.0354;-0.0173
0001016931;6.4093;-16.1393;1.7334;-0.0104;-0.0317;-0.0153
0001016939;6.4572;-16.1226;1.6472;-0.0100;-0.0389;-0.0173
0001016947;6.2153;-16.1465;1.6233;-0.0065;-0.0332;-0.0076
0001016955;6.5457;-15.9933;1.7023;-0.0039;-0.0393;-0.0151
0001016963;6.2704;-16.1178;1.6568;-0.0060;-0.0377;-0.0161
0001016971;6.5529;-15.9885;1.6712;-0.0096;-0.0345;-0.0135
0001016979;6.5098;-16.0842;1.6735;-0.0140;-0.0314;-0.0123
0001016987;6.3063;-16.1369;1.6209;-0.0123;-0.0354;-0.0172
0001016995;6.3638;-16.2447;1.6065;-0.0079;-0.0369;-0.0177
0001017003;6.4883;-16.0316;1.6328;-0.0113;-0.0346;-0.0128
0001017011;6.3135;-16.1776;1.6879;-0.0025;-0.0389;-0.0152
0001017019;6.5290;-16.0771;1.6257;-0.0071;-0.0326;-0.0135
0001017027;6.5098;-16.0459;1.6544;-0.0012;-0.0376;-0.0136
0001017035;6.4524;-16.1226;1.7693;-0.0095;-0.0325;-0.0100
0001017043;6.5649;-15.9502;1.5275;-0.0085;-0.0386;-0.0147
0001017051;6.5266;-16.0483;1.7262;-0.0052;-0.0368;-0.0164
0001017137;6.5003;-16.0220;1.6759;-0.0121;-0.0297;-0.0161
0001017145;6.3877;-16.0435;1.6257;-0.0135;-0.0394;-0.0193
0001017153;6.5457;-15.9574;1.6065;-0.0033;-0.0356;-0.0176
0001017161;6.4739;-16.1178;1.6520;-0.0101;-0.0316;-0.0125
0001017169;6.5290;-16.0531;1.7789;-0.0049;-0.0368;-0.0173
0001017177;6.4931;-16.0005;1.6257;0.0000;-0.0372;-0.0167
0001017185;6.4955;-16.0196;1.6807;-0.0048;-0.0332;-0.0147
0001017193;6.5314;-15.9717;1.6544;-0.0049;-0.0352;-0.0139
0001017201;6.4236;-16.1034;1.6807;-0.0032;-0.0402;-0.0156
0001017209;6.4524;-16.1154;1.6281;-0.0043;-0.0410;-0.0147
0001017217;6.4883;-16.0842;1.6281;-0.0084;-0.0394;-0.0137
0001017225;6.3303;-16.2135;1.6352;-0.0067;-0.0398;-0.0144
0001017233;6.4811;-16.1992;1.6233;-0.0041;-0.0354;-0.0109
0001017241;6.4907;-16.0723;1.6113;-0.0100;-0.0328;-0.0107
0001017249;6.3877;-16.1297;1.6688;-0.0096;-0.0338;-0.0112
0001017257;6.3973;-15.9645;1.6759;-0.0079;-0.0382;-0.0185
0001017265;6.4093;-16.0316;1.6520;-0.0079;-0.0328;-0.0157
0001017273;6.4093;-16.1273;1.6640;-0.0073;-0.0381;-0.0205
0001017281;6.5146;-16.1728;1.7119;-0.0068;-0.0346;-0.0176
0001017289;6.4907;-16.1537;1.6089;-0.0107;-0.0254;-0.0155
0001017297;6.3087;-16.2830;1.6712;-0.0119;-0.0294;-0.0151
0001017305;6.5529;-16.0483;1.7765;-0.0049;-0.0368;-0.0156
0001017313;6.4691;-16.1154;1.6951;-0.0039;-0.0350;-0.0145
0001017321;6.4380;-16.1489;1.7262;-0.0072;-0.0261;-0.0105
0001017329;6.2872;-16.1465;1.7071;-0.0020;-0.0304;-0.0144
0001017337;6.5769;-15.9909;1.6281;-0.0083;-0.0336;-0.0088
0001017345;6.5505;-16.0340;1.6688;-0.0036;-0.0344;-0.0196
0001017353;6.3614;-16.1920;1.7190;-0.0076;-0.0308;-0.0181
0001017361;6.5769;-16.0627;1.6927;-0.0048;-0.0368;-0.0147
0001017369;6.4069;-16.0675;1.6903;-0.0105;-0.0318;-0.0144
0001017377;6.4117;-16.0292;1.7190;-0.0083;-0.0384;-0.0167
0001017385;6.4236;-16.0675;1.7645;-0.0029;-0.0380;-0.0137
0001017393;6.3782;-16.1585;1.6640;-0.0069;-0.0289;-0.0089
0001017401;6.4093;-16.1249;1.7621;-0.0095;-0.0333;-0.0091
0001017409;6.4141;-16.0651;1.7334;-0.0079;-0.0337;-0.0137
0001017417;6.4715;-16.0531;1.6257;-0.0092;-0.0293;-0.0089
0001017425;6.5338;-16.0459;1.7957;-0.0103;-0.0337;-0.0127
0001017433;6.2752;-16.1297;1.6712;-0.0100;-0.0313;-0.0145
0001017441;6.4715;-15.9023;1.5850;-0.0103;-0.0314;-0.0125
0001017449;6.3303;-16.0507;1.6281;-0.0185;-0.0272;-0.0105
0001017457;6.4811;-15.9693;1.5850;-0.0222;-0.0270;-0.0205
0001017465;6.5290;-15.8903;1.6448;-0.0294;-0.0229;-0.0113
0001017473;6.4308;-15.9837;1.6951;-0.0297;-0.0222;-0.0136
0001017481;6.4404;-16.0531;1.6400;-0.0305;-0.0308;-0.0201
0001017489;6.4141;-15.9574;1.6520;-0.0424;-0.0262;-0.0112
0001017497;6.3973;-15.8927;1.6400;-0.0468;-0.0300;-0.0155
0001017505;6.3015;-15.8951;1.7406;-0.0490;-0.0276;-0.0144
0001017513;6.3925;-15.9789;1.6783;-0.0469;-0.0345;-0.0192
0001017521;6.3398;-15.9669;1.7621;-0.0546;-0.0284;-0.0128
0001017529;6.5481;-15.9621;1.6376;-0.0514;-0.0258;-0.0144
0001017537;6.3662;-16.1728;1.7047;-0.0556;-0.0265;-0.0159
0001017545;6.4189;-16.0986;1.6783;-0.0622;-0.0176;-0.0123
0001017553;6.3279;-15.9933;1.7334;-0.0636;-0.0196;-0.0145
0001017561;6.4572;-16.1249;1.7214;-0.0697;-0.0163;-0.0131
0001017569;6.5793;-16.0172;1.8148;-0.0702;-0.0187;-0.0149
0001017577;6.4907;-16.2159;1.7047;-0.0653;-0.0236;-0.0160
0001017585;6.4500;-16.1010;1.7693;-0.0671;-0.0159;-0.0113
0001017593;6.6032;-16.0507;1.7190;-0.0617;-0.0246;-0.0155
0001017601;6.3566;-16.1680;1.6759;-0.0644;-0.0180;-0.0081
0001017609;6.5194;-16.0986;1.7166;-0.0636;-0.0179;-0.0137
0001017617;6.4907;-16.0651;1.6472;-0.0711;-0.0129;-0.0103
0001017625;6.4931;-15.8807;1.7549;-0.0646;-0.0173;-0.0128
0001017633;6.4715;-16.0028;1.7502;-0.0777;-0.0089;-0.0112
0001017641;6.5553;-15.9143;1.6759;-0.0805;-0.0100;-0.0172
0001017649;6.3015;-16.1513;1.6233;-0.0822;-0.0031;-0.0132
0001017657;6.6391;-15.9789;1.6041;-0.0831;-0.0045;-0.0149
0001017665;6.3853;-16.1249;1.5754;-0.0861;-0.0003;-0.0120
0001017673;6.5673;-16.1154;1.5490;-0.0815;0.0004;-0.0116
0001017681;6.3925;-16.2973;1.5490;-0.0827;0.0016;-0.0100
0001017768;6.3375;-16.0435;1.4605;-0.0570;-0.0278;0.0108
0001017775;6.3638;-16.0531;1.4820;-0.0667;-0.0282;0.0147
0001017783;6.5218;-16.0124;1.5323;-0.0690;-0.0334;0.0188
0001017791;6.4189;-15.9813;1.4940;-0.0640;-0.0405;0.0204
0001017799;6.3303;-16.2016;1.5562;-0.0742;-0.0408;0.0334
0001017807;6.3111;-16.1202;1.5299;-0.0758;-0.0500;0.0376
0001017815;6.3135;-16.0435;1.5778;-0.0735;-0.0581;0.0398
0001017823;6.2872;-16.0435;1.5658;-0.0871;-0.0644;0.0458
0001017831;6.4308;-15.9933;1.5634;-0.0803;-0.0731;0.0437
0001017839;6.1339;-16.0507;1.5778;-0.0849;-0.0855;0.0505
0001017847;6.3518;-15.9214;1.6568;-0.0918;-0.0870;0.0518
0001017855;6.5362;-15.7874;1.6257;-0.0941;-0.0937;0.0558
0001017863;6.5122;-15.7179;1.6400;-0.1073;-0.0853;0.0545
0001017871;6.5841;-15.8448;1.5993;-0.1164;-0.0842;0.0550
0001017879;6.4979;-15.8807;1.6640;-0.1266;-0.0766;0.0624
0001017887;6.5601;-15.8305;1.6281;-0.1404;-0.0718;0.0652
0001017895;6.4979;-15.9310;1.6783;-0.1438;-0.0654;0.0645
0001017903;6.4524;-15.9190;1.6927;-0.1451;-0.0618;0.0626
0001017911;6.4931;-15.9406;1.6328;-0.1472;-0.0552;0.0646
0001017919;6.6798;-15.9789;1.5658;-0.1564;-0.0454;0.0737
0001017927;6.6894;-16.0651;1.5802;-0.1643;-0.0404;0.0739
0001017935;6.5817;-16.2207;1.5586;-0.1564;-0.0366;0.0678
0001017943;6.3805;-16.3213;1.5131;-0.1510;-0.0388;0.0675
0001017951;6.4667;-16.1034;1.4964;-0.1588;-0.0280;0.0725
0001017959;6.3422;-16.0483;1.5610;-0.1604;-0.0274;0.0698
0001017967;6.2584;-16.2375;1.4844;-0.1569;-0.0364;0.0588
0001017975;6.1076;-16.2327;1.4222;-0.1593;-0.0228;0.0598
0001017983;6.2537;-16.0507;1.3623;-0.1660;-0.0211;0.0613
0001017991;6.2130;-15.8927;1.3001;-0.1676;-0.0193;0.0553
0001017999;6.1363;-15.9813;1.3120;-0.1679;-0.0129;0.0544
0001018007;6.2728;-16.0747;1.2450;-0.1755;-0.0068;0.0578
0001018015;6.3015;-16.1226;1.1013;-0.1851;0.0012;0.0557
0001018023;6.2632;-16.1202;1.1085;-0.1879;0.0053;0.0493
0001018031;6.1196;-16.1609;1.0702;-0.1872;0.0096;0.0490
0001018039;6.1459;-16.0890;1.0846;-0.1916;0.0028;0.0488
0001018047;5.9592;-16.0723;1.1037;-0.1904;-0.0048;0.0404
0001018055;6.0956;-16.1393;1.0199;-0.1956;-0.0087;0.0449
0001018063;6.0262;-16.0914;1.0534;-0.2029;-0.0124;0.0421
0001018071;5.9017;-16.0723;1.1013;-0.2148;-0.0188;0.0462
0001018079;6.1866;-16.0747;1.0918;-0.2164;-0.0308;0.0436
0001018087;6.1962;-16.0364;1.0151;-0.2289;-0.0318;0.0481
0001018095;6.0573;-16.1728;1.0774;-0.2362;-0.0322;0.0432
0001018103;6.0047;-16.1704;1.0654;-0.2321;-0.0386;0.0406
0001018111;6.2728;-16.0076;1.2019;-0.2382;-0.0378;0.0428
0001018119;6.0861;-15.9334;1.2378;-0.2403;-0.0481;0.0370
0001018127;6.1124;-16.1178;1.3168;-0.2361;-0.0564;0.0340
0001018135;6.0430;-16.0412;1.3384;-0.2402;-0.0554;0.0398
0001018143;6.1842;-16.2231;1.2498;-0.2320;-0.0673;0.0305
0001018151;6.2560;-16.1202;1.2091;-0.2280;-0.0661;0.0377
0001018159;6.0956;-16.2494;1.3240;-0.2268;-0.0725;0.0422
0001018167;6.0525;-16.3117;1.3001;-0.2209;-0.0743;0.0484
0001018175;6.3303;-16.1393;1.2857;-0.2229;-0.0678;0.0548
0001018183;6.3015;-16.2542;1.2115;-0.2181;-0.0659;0.0454
0001018191;6.1339;-16.3931;1.3503;-0.2090;-0.0677;0.0440
0001018199;6.3805;-16.2327;1.2402;-0.1982;-0.0512;0.0465
0001018207;6.1196;-16.5966;1.2282;-0.1748;-0.0482;0.0378
0001018215;6.1723;-16.4410;1.1995;-0.1518;-0.0444;0.0413
0001018223;6.1555;-16.4697;1.1181;-0.1331;-0.0489;0.0404
0001018231;6.1076;-16.5128;1.1899;-0.1263;-0.0484;0.0486
0001018239;5.9041;-16.6636;1.1468;-0.1041;-0.0561;0.0437
0001018247;6.0645;-16.5080;1.1923;-0.0959;-0.0604;0.0434
0001018255;5.9927;-16.4984;1.2354;-0.0879;-0.0602;0.0381
0001018263;6.0525;-16.4697;1.0918;-0.0754;-0.0640;0.0273
0001018271;5.9687;-16.4913;0.8691;-0.0586;-0.0633;0.0133
0001018279;6.0861;-16.5104;0.7973;-0.0381;-0.0655;0.0105
0001018287;5.9065;-16.4194;0.8811;-0.0297;-0.0590;0.0096
0001018295;6.0142;-16.3213;0.8859;-0.0246;-0.0652;0.0083
0001018303;5.9328;-16.3500;0.8260;-0.0220;-0.0745;0.0001
0001018311;6.0549;-16.3404;0.7326;-0.0233;-0.0789;-0.0101
0001018319;5.8921;-16.4769;0.8140;-0.0248;-0.0825;-0.0083
0001018327;5.9592;-16.3548;0.7398;-0.0161;-0.0855;-0.0151
0001018419;6.8211;-16.0866;0.4573;0.0278;0.0318;-0.0845
0001018426;6.8402;-16.2471;0.4214;0.0242;0.0669;-0.0811
0001018434;6.9935;-16.2423;0.4142;0.0163;0.0967;-0.0671
0001018442;6.8738;-16.3739;0.6345;0.0157;0.1266;-0.0596
0001018450;7.1180;-16.1297;0.5243;0.0290;0.1471;-0.0574
0001018458;6.6343;-16.4194;0.4741;0.0290;0.1748;-0.0590
0001018466;6.5003;-16.5463;0.4597;0.0445;0.1761;-0.0686
0001018474;6.3710;-16.4099;0.4932;0.0560;0.1784;-0.0782
0001018482;6.1004;-16.4386;0.6225;0.0749;0.1725;-0.0873
0001018490;5.8754;-16.3356;0.7302;0.0866;0.1603;-0.0946
0001018498;5.6096;-16.5056;0.8906;0.0950;0.1573;-0.0903
0001018506;5.8610;-16.5008;0.9864;0.0991;0.1672;-0.0929
0001018514;6.0789;-16.4051;0.9720;0.1212;0.1779;-0.0930
0001018522;6.2800;-16.4194;1.0511;0.1342;0.2025;-0.0954
0001018530;6.3662;-16.6660;1.0582;0.1560;0.2102;-0.1077
0001018538;6.5146;-16.8241;1.1085;0.1813;0.2236;-0.1107
0001018546;6.7588;-16.7115;1.0846;0.1925;0.2491;-0.1111
0001018554;6.8354;-16.8408;1.1013;0.2049;0.2742;-0.1107
0001018562;7.0174;-16.6205;1.1516;0.2360;0.2999;-0.1108
0001018570;6.9576;-16.8169;1.3336;0.2711;0.3212;-0.1154
0001018578;6.7900;-17.0132;1.2163;0.3127;0.3457;-0.1179
0001018586;6.7349;-17.1114;1.2139;0.3697;0.3689;-0.1154
0001018594;6.4452;-17.2790;1.1779;0.4299;0.3736;-0.1272
0001018602;6.2441;-17.3077;1.2833;0.4946;0.3492;-0.1404
0001018610;5.7150;-17.5351;1.3479;0.5610;0.3071;-0.1551
0001018618;5.3558;-17.5280;1.3743;0.6138;0.2598;-0.1617
0001018626;5.2840;-17.3915;1.2953;0.6536;0.2080;-0.1672
0001018634;5.0111;-17.3484;1.1588;0.7103;0.1635;-0.1836
0001018642;4.7908;-17.3484;1.1492;0.7593;0.1234;-0.1923
0001018650;4.7884;-17.3364;1.0415;0.8108;0.0706;-0.2129
0001018658;4.8411;-17.4992;0.9122;0.8637;0.0353;-0.2196
0001018666;5.2313;-17.3723;0.8811;0.9070;0.0151;-0.2077
0001018674;5.3199;-17.4489;0.9697;0.9637;-0.0113;-0.1949
0001018682;5.3726;-17.5567;0.9720;1.0261;-0.0389;-0.1851
0001018690;5.5019;-17.3891;0.9361;1.0885;-0.0634;-0.1764
0001018698;5.4875;-17.2766;0.8691;1.1425;-0.0879;-0.1840
0001018706;5.4540;-16.7331;0.9649;1.1750;-0.1396;-0.2041
0001018714;5.3534;-16.4099;0.8236;1.1799;-0.1812;-0.2216
0001018722;5.2720;-16.3069;0.7877;1.1960;-0.2154;-0.2358
0001018730;5.2194;-16.0747;0.8859;1.1839;-0.2482;-0.2382
0001018738;4.8818;-16.2758;1.0008;1.1686;-0.2968;-0.2302
0001018746;5.1523;-16.0483;1.1253;1.1571;-0.3517;-0.2329
0001018754;4.7118;-16.4649;1.1181;1.1703;-0.4142;-0.2265
0001018762;5.0087;-16.4290;1.1325;1.1778;-0.4610;-0.2162
0001018770;5.0422;-16.5942;1.4724;1.1823;-0.4956;-0.2052
0001018778;4.7645;-17.0276;1.7478;1.2048;-0.5417;-0.2038
0001018786;4.7309;-17.3460;1.8387;1.2448;-0.5730;-0.2030
0001018794;4.9512;-17.2622;1.8603;1.3214;-0.6235;-0.2182
0001018802;5.2744;-17.1545;1.7980;1.3807;-0.6784;-0.2266
0001018810;5.2864;-16.9893;1.7334;1.4180;-0.7497;-0.2232
0001018818;5.1930;-16.8983;1.8818;1.4441;-0.8246;-0.2168
0001018826;5.4037;-16.7474;2.2505;1.4645;-0.8604;-0.1993
0001018834;5.5737;-16.6158;2.6863;1.4790;-0.8929;-0.1748
0001018842;5.8347;-16.4769;3.2274;1.5030;-0.9130;-0.1645
0001018850;6.3327;-15.8329;3.5650;1.4993;-0.8845;-0.1724
0001018858;6.8785;-15.2199;3.6871;1.4737;-0.8677;-0.1956
0001018866;7.2664;-14.7890;3.6703;1.4065;-0.8523;-0.2101
0001018874;7.6614;-14.4706;3.7182;1.3186;-0.8427;-0.2130
0001018882;8.5641;-13.7379;4.1659;1.2171;-0.8080;-0.1887
0001018890;8.4946;-13.8624;4.5155;1.1030;-0.7613;-0.1652
0001018898;8.7484;-13.8145;4.7956;0.9962;-0.6944;-0.1158
0001018906;8.7149;-14.2168;4.9704;0.9212;-0.6374;-0.0806
0001018914;8.9495;-14.4753;5.3079;0.8600;-0.5798;-0.0406
0001018922;8.8370;-14.8824;5.5234;0.8092;-0.5279;-0.0033
0001018930;8.5329;-15.4833;5.8299;0.7985;-0.4906;0.0274
0001018938;8.1475;-16.1010;5.9065;0.7907;-0.4473;0.0550
0001018946;8.0062;-16.4194;6.1794;0.8204;-0.4298;0.0665
0001018954;7.9440;-16.7570;6.3973;0.8560;-0.4174;0.0746
0001018962;7.8362;-16.7522;6.6224;0.8825;-0.4018;0.0953
0001018970;8.0589;-16.6373;6.6726;0.9132;-0.3910;0.1047
0001018978;7.9966;-16.5870;6.7014;0.9459;-0.3805;0.1171
0001019118;6.7684;-14.9638;6.7660;1.4813;-0.5093;0.2867
0001019127;7.2568;-14.8464;6.6774;1.5098;-0.5324;0.3321
0001019136;7.1635;-14.9638;6.7397;1.5557;-0.5514;0.3611
0001019145;7.4484;-15.0404;6.6702;1.5863;-0.5283;0.4048
0001019154;7.5082;-15.0859;6.6750;1.6442;-0.5061;0.4467
0001019163;7.5681;-15.0811;6.6439;1.7043;-0.4659;0.4955
0001019172;7.5824;-14.8369;6.5410;1.7681;-0.4370;0.5193
0001019181;7.7381;-14.4849;6.1962;1.7617;-0.3898;0.5478
0001019190;8.1738;-13.9845;6.2177;1.7909;-0.3589;0.5645
0001019199;8.3175;-13.5177;5.9927;1.7894;-0.3170;0.5828
0001019208;8.3749;-12.7300;5.8897;1.7797;-0.2851;0.5938
0001019217;8.1523;-12.4044;5.7509;1.7435;-0.2345;0.5887
0001019226;8.1092;-12.0021;5.7604;1.7411;-0.2100;0.5842
0001019235;7.5513;-11.7699;5.7581;1.6671;-0.1913;0.5721
0001019244;7.4388;-11.3581;5.6479;1.6040;-0.1905;0.5407
0001019253;7.4124;-11.2216;5.5905;1.5236;-0.1825;0.5247
0001019262;7.5705;-11.1546;5.5474;1.4508;-0.1743;0.5249
0001019271;8.0852;-11.2623;5.5641;1.3672;-0.1423;0.5458
0001019280;8.4779;-11.2791;5.6192;1.3049;-0.1083;0.5792
0001019289;8.5138;-11.3844;5.6048;1.2300;-0.0659;0.6269
0001019298;8.5473;-11.2120;5.6431;1.1764;-0.0329;0.6615
0001019307;7.6519;-11.2097;5.6336;1.1335;-0.0376;0.6869
0001019316;7.1922;-10.8290;5.7006;1.0878;-0.0564;0.6936
0001019325;6.8474;-10.6470;5.6072;1.0276;-0.0745;0.6843
0001019334;6.5410;-10.4267;5.5617;0.9629;-0.1070;0.6718
0001019343;6.8905;-10.1299;5.6407;0.9034;-0.1312;0.6598
0001019352;7.1587;-9.9719;5.6048;0.8359;-0.1362;0.6646
0001019361;7.4005;-9.7348;5.8562;0.7426;-0.1391;0.6785
0001019370;7.6064;-9.7516;6.2417;0.6515;-0.1278;0.6749
0001019379;7.7764;-9.8785;6.5290;0.5678;-0.0954;0.6776
0001019388;7.6878;-10.1035;6.8905;0.4988;-0.1057;0.6727
0001019397;7.5896;-10.4866;7.0270;0.4325;-0.0962;0.6610
0001019406;7.6806;-10.6853;7.3550;0.3874;-0.1069;0.6470
0001019415;7.6998;-11.2288;7.5250;0.3516;-0.1039;0.6336
0001019424;7.8793;-11.4658;7.9344;0.3279;-0.0698;0.6223
0001019433;8.1163;-11.9135;8.3797;0.3254;-0.0280;0.6097
0001019442;8.1116;-12.1218;9.0237;0.3505;0.0004;0.6079
0001019451;8.5186;-12.3349;9.1626;0.3706;0.0657;0.6017
0001019460;8.4276;-12.3948;9.4212;0.4044;0.1069;0.5903
0001019469;8.1666;-12.6007;9.4763;0.4347;0.1596;0.5700
0001019478;8.1858;-12.4714;9.5074;0.4836;0.2018;0.5289
0001019487;7.7979;-12.4714;9.6319;0.5368;0.2433;0.4764
0001019496;7.4603;-12.5073;10.1299;0.5951;0.2787;0.4186
0001019505;7.3957;-12.6629;10.1754;0.6732;0.3044;0.3627
0001019514;7.6255;-12.4642;10.1825;0.7468;0.3393;0.3231
0001019523;7.5824;-12.2799;10.1490;0.8218;0.3683;0.3176
0001019532;7.2089;-11.9183;9.9862;0.8752;0.4024;0.3308
0001019541;6.7708;-11.6286;9.9886;0.9212;0.4162;0.3517
0001019550;6.2130;-11.2480;9.9503;0.9561;0.4170;0.3776
0001019559;5.6599;-11.0061;10.1586;0.9859;0.3992;0.3857
0001019568;5.3223;-10.6159;10.0341;0.9927;0.3696;0.3721
0001019577;5.1475;-10.1394;9.8497;0.9942;0.3255;0.3395
0001019586;5.1092;-9.6630;9.5289;0.9735;0.2743;0.3052
0001019595;4.8219;-9.5840;9.0908;0.9438;0.2292;0.2894
0001019604;5.0087;-9.2823;8.9304;0.8968;0.2029;0.2923
0001019613;5.2170;-9.2081;8.8729;0.8611;0.1868;0.2968
0001019622;5.4372;-9.0190;8.7556;0.8407;0.1801;0.3047
0001019631;5.4133;-8.8992;8.7724;0.8204;0.1703;0.2990
0001019640;5.5426;-8.6359;8.5617;0.7763;0.1563;0.2782
0001019649;5.5809;-8.3821;8.2959;0.7061;0.1447;0.2714
0001019658;5.2553;-8.1738;8.3127;0.6340;0.1274;0.2573
0001019667;5.2864;-8.0230;8.6503;0.5561;0.1251;0.2539
0001019676;5.0039;-8.0948;8.6790;0.4900;0.1126;0.2447
0001019685;4.5753;-8.2217;8.8370;0.4226;0.0889;0.2368
0001019694;4.8339;-7.9679;8.9208;0.3507;0.0537;0.2074
0001019703;4.6471;-7.9775;8.9711;0.2723;0.0047;0.1733
0001019712;4.6448;-8.2576;8.7604;0.1869;-0.0049;0.1557
0001019721;4.8746;-8.1618;8.8801;0.1025;0.0013;0.1545
0001019730;5.4420;-8.2887;9.2105;0.0386;0.0141;0.1655
0001019739;6.0932;-8.4348;9.2440;0.0083;0.0300;0.1839
0001019748;6.1651;-8.5377;9.6079;-0.0191;0.0520;0.2105
0001019757;6.0501;-8.6431;9.6822;-0.0560;0.0549;0.2013
0001019766;5.8538;-8.9663;9.8210;-0.0919;0.0545;0.1923
0001019851;5.7581;-8.8657;9.5193;-0.1824;-0.0029;0.1194
0001019860;5.5689;-9.0453;9.2847;-0.2220;-0.0025;0.1342
0001019869;5.5641;-9.4092;9.2296;-0.2441;-0.0115;0.1260
0001019878;5.8442;-9.4068;9.3111;-0.2666;-0.0236;0.1055
0001019887;6.1363;-9.4978;9.4164;-0.2763;-0.0593;0.0560
0001019896;6.2656;-9.5289;9.2943;-0.2883;-0.0801;-0.0003
0001019905;6.3734;-9.5768;9.1147;-0.3023;-0.0967;-0.0573
0001019914;6.5003;-9.4786;9.0908;-0.3118;-0.0953;-0.1108
0001019923;6.6439;-9.3925;9.2871;-0.3308;-0.0773;-0.1368
0001019932;6.5457;-9.3901;9.2153;-0.3397;-0.0582;-0.1476
0001019941;6.4548;-9.4739;9.3613;-0.3537;-0.0405;-0.1472
0001019950;6.2537;-9.4044;9.3637;-0.3757;-0.0322;-0.1350
0001019959;5.8610;-9.5313;9.3039;-0.3996;-0.0538;-0.1430
0001019968;5.4444;-9.7683;9.1650;-0.4417;-0.0809;-0.1472
0001019977;5.6623;-9.6295;9.0309;-0.4868;-0.1147;-0.1490
0001019986;5.4899;-9.7492;9.0214;-0.5195;-0.1446;-0.1482
0001019995;5.9065;-9.6774;9.0453;-0.5629;-0.1515;-0.1295
0001020004;6.0765;-9.5960;9.1411;-0.5782;-0.1604;-0.1148
0001020013;6.1651;-9.6750;9.3996;-0.5986;-0.1434;-0.0787
0001020022;6.4117;-9.4691;9.4379;-0.6210;-0.1274;-0.0404
0001020031;6.6918;-9.4643;9.2991;-0.6416;-0.1090;-0.0052
0001020040;6.7564;-9.5553;9.2703;-0.6953;-0.0750;0.0268
0001020049;6.5817;-9.7420;9.0237;-0.7365;-0.0548;0.0534
0001020058;6.4045;-10.0197;8.8825;-0.7806;-0.0324;0.0666
0001020067;6.3087;-10.2520;8.7173;-0.8203;-0.0254;0.0513
0001020076;6.4835;-10.1921;8.3725;-0.8543;-0.0032;0.0348
0001020085;6.5960;-10.2208;8.1427;-0.8873;0.0155;-0.0033
0001020094;6.5050;-10.1682;8.0852;-0.9110;0.0476;-0.0348
0001020103;6.3351;-10.1825;8.1187;-0.9196;0.0632;-0.0782
0001020112;6.2584;-10.0604;8.2959;-0.9389;0.0889;-0.0999
0001020121;5.8610;-10.1825;8.2672;-0.9683;0.1030;-0.1238
0001020130;5.9137;-10.0173;8.1594;-1.0062;0.0995;-0.1387
0001020139;5.6695;-10.3214;7.8147;-1.0444;0.0985;-0.1512
0001020148;5.7102;-10.3932;7.3646;-1.0977;0.0889;-0.1533
0001020157;5.7054;-10.3142;7.1970;-1.1505;0.0853;-0.1527
0001020166;5.5929;-10.5776;7.1419;-1.1838;0.0793;-0.1551
0001020175;5.4923;-10.8864;7.3143;-1.2072;0.0710;-0.1520
0001020184;5.5522;-11.0971;7.4460;-1.2276;0.0648;-0.1435
0001020193;5.5689;-11.1618;7.4436;-1.2426;0.0390;-0.1407
0001020202;5.4372;-11.2791;7.4388;-1.2397;0.0149;-0.1404
0001020211;5.4396;-11.1737;7.4077;-1.2557;0.0048;-0.1436
0001020220;5.2385;-11.3389;7.3717;-1.2774;-0.0135;-0.1443
0001020229;5.1499;-11.3844;7.2113;-1.2973;-0.0360;-0.1490
0001020238;5.1787;-11.5137;7.4771;-1.3145;-0.0565;-0.1408
0001020247;5.2625;-11.8226;7.4771;-1.3328;-0.0955;-0.1549
0001020256;5.3678;-12.0955;7.4029;-1.3338;-0.1081;-0.1577
0001020265;5.4061;-12.2727;7.6519;-1.3318;-0.1288;-0.1671
0001020274;5.5450;-12.5648;7.6543;-1.3070;-0.1246;-0.1503
0001020283;5.2696;-12.8664;7.4268;-1.2818;-0.1160;-0.1348
0001020292;5.6312;-12.8569;7.6112;-1.2549;-0.1132;-0.1166
0001020301;5.5234;-12.8617;7.4340;-1.2083;-0.1154;-0.1103
0001020310;5.3247;-12.7611;7.3071;-1.1692;-0.1456;-0.1246
0001020319;5.1667;-12.4738;7.2520;-1.1493;-0.1867;-0.1447
0001020328;4.9033;-12.5001;7.0749;-1.1269;-0.2128;-0.1398
0001020337;5.0278;-12.2942;6.9839;-1.0893;-0.2571;-0.1444
0001020346;4.8890;-12.2990;6.7900;-1.0479;-0.2730;-0.1130
0001020355;4.7525;-12.1817;6.6870;-1.0276;-0.2932;-0.0878
0001020364;4.4652;-12.2080;6.4859;-0.9884;-0.3159;-0.0460
0001020373;4.5753;-12.1913;6.6726;-0.9617;-0.3495;-0.0035
0001020382;4.7166;-12.2104;6.7660;-0.9438;-0.3961;0.0372
0001020391;4.8985;-12.1410;6.7349;-0.9192;-0.4664;0.0733
0001020400;5.0973;-12.1937;6.4979;-0.8928;-0.5421;0.1014
0001020409;5.0087;-12.5624;6.4979;-0.8579;-0.6123;0.1308
0001020418;5.3917;-12.5336;6.5505;-0.8368;-0.6518;0.1863
0001020427;5.1691;-12.7779;6.6224;-0.8140;-0.6708;0.2433
0001020436;5.3798;-12.9191;6.3901;-0.7833;-0.6949;0.3015
0001020445;5.4277;-13.0316;6.4021;-0.7596;-0.6961;0.3604
0001020454;5.6144;-12.9742;6.5505;-0.7352;-0.7188;0.3858
0001020463;5.8945;-12.9215;6.3566;-0.7284;-0.7374;0.3928
0001020472;6.2632;-12.9311;6.1220;-0.7277;-0.7361;0.3864
0001020481;6.4452;-13.0005;6.1339;-0.7205;-0.7405;0.3637
0001020567;7.8817;-13.8792;6.1339;-0.5288;-0.4345;-0.0779
0001020576;7.6399;-13.8600;6.0430;-0.4782;-0.4065;-0.0779
0001020585;7.2784;-13.6278;5.6695;-0.4541;-0.3878;-0.0686
0001020594;7.2736;-13.0101;5.3798;-0.4391;-0.3632;-0.0348
0001020603;7.1443;-12.7395;5.3917;-0.4457;-0.3436;-0.0059
0001020612;7.3239;-12.3421;5.3774;-0.4750;-0.3242;0.0334
0001020621;7.2832;-12.2224;5.7197;-0.5137;-0.3074;0.0490
0001020630;7.7285;-12.2272;5.6982;-0.5352;-0.3067;0.0345
0001020639;7.9368;-12.3780;5.7317;-0.5528;-0.2956;0.0262
0001020648;8.1906;-12.5959;5.8155;-0.5612;-0.2805;0.0095
0001020657;8.4851;-12.6198;5.5641;-0.5748;-0.2555;0.0049
0001020666;8.3629;-12.7659;5.3846;-0.5842;-0.2116;0.0051
0001020675;8.3222;-12.4642;5.5115;-0.5905;-0.1652;0.0193
0001020684;8.2744;-12.5169;5.6886;-0.6182;-0.1075;0.0145
0001020693;7.9655;-12.6605;6.0837;-0.6439;-0.0377;0.0043
0001020702;8.0182;-12.9191;6.5577;-0.6274;0.0096;-0.0229
0001020711;8.0278;-13.4626;6.2489;-0.6138;0.0573;-0.0506
0001020720;7.7572;-13.7714;5.9400;-0.6282;0.0934;-0.0750
0001020729;7.7165;-13.7667;5.7988;-0.6503;0.1283;-0.0983
0001020738;7.4077;-13.9247;5.9352;-0.6708;0.1545;-0.1223
0001020747;7.1754;-14.1785;6.1962;-0.6760;0.1540;-0.1640
0001020756;6.9025;-14.4107;6.5362;-0.6523;0.1362;-0.1907
0001020765;6.3159;-14.8728;6.6319;-0.6045;0.0751;-0.2288
0001020774;5.8059;-14.9255;5.9592;-0.5604;0.0069;-0.2399
0001020783;5.3223;-14.6573;5.7293;-0.5255;-0.0616;-0.2288
0001020792;4.9656;-14.0875;5.5881;-0.5128;-0.1182;-0.1772
0001020801;4.8985;-13.6805;5.3822;-0.5335;-0.1663;-0.1307
0001020810;5.0374;-13.6733;5.2720;-0.5722;-0.1956;-0.0713
0001020819;5.2672;-13.9534;5.3175;-0.5782;-0.2381;-0.0294
0001020828;5.8179;-14.1354;5.3367;-0.5600;-0.2817;-0.0037
0001020837;6.2991;-14.4849;5.4061;-0.5319;-0.3104;0.0025
0001020846;6.4835;-14.7291;5.4133;-0.5008;-0.3199;0.0107
0001020855;6.7421;-14.6836;5.2337;-0.4562;-0.3104;0.0229
0001020864;7.1946;-14.6094;4.9632;-0.4120;-0.2971;0.0226
0001020873;7.2233;-14.4299;4.8219;-0.3913;-0.2429;0.0310
0001020882;7.3957;-14.3293;4.3838;-0.3861;-0.1869;0.0211
0001020891;7.2329;-14.1856;4.0965;-0.3862;-0.1178;0.0028
0001020900;6.9767;-14.4801;4.3622;-0.3909;-0.0502;-0.0197
0001020909;6.8115;-14.7004;4.6424;-0.3894;0.0088;-0.0719
0001020918;6.6152;-15.0883;4.6256;-0.3778;0.0613;-0.1156
0001020927;6.6846;-15.2894;4.5993;-0.3375;0.1002;-0.1688
0001020936;6.7708;-15.4019;4.7621;-0.3142;0.1252;-0.2284
0001020945;6.7900;-15.6605;4.6950;-0.2886;0.1435;-0.2759
0001020954;6.9576;-15.6293;4.6448;-0.2626;0.1776;-0.2874
0001020963;6.9408;-15.3468;4.6783;-0.2559;0.2138;-0.2936
0001020972;6.8570;-15.1266;4.3144;-0.2778;0.2547;-0.2874
0001020981;6.8618;-14.9757;4.0773;-0.2838;0.2982;-0.3024
0001020990;6.8043;-14.7196;3.8762;-0.2883;0.3533;-0.3072
0001020999;6.6008;-14.7579;3.8283;-0.3084;0.3937;-0.3015
0001021008;6.4428;-14.6238;3.7852;-0.3428;0.4335;-0.3068
0001021017;6.2560;-14.7076;3.7517;-0.4113;0.4664;-0.3159
0001021026;5.8826;-14.9231;3.8307;-0.4541;0.4938;-0.3036
0001021035;5.4875;-15.2798;3.6440;-0.4730;0.5311;-0.2698
0001021044;5.2792;-15.5647;3.6152;-0.4643;0.5785;-0.2483
0001021053;5.1667;-15.9214;3.5195;-0.4387;0.6326;-0.2353
0001021062;5.4660;-16.2255;3.6655;-0.3786;0.6443;-0.2229
0001021071;5.3893;-16.4410;3.6583;-0.3247;0.6499;-0.2020
0001021080;5.5474;-16.4506;3.7397;-0.2617;0.6343;-0.1768
0001021089;5.4588;-16.1968;3.8331;-0.2284;0.6191;-0.1315
0001021098;5.2433;-16.0364;3.6440;-0.2124;0.5979;-0.0986
0001021107;4.9560;-15.9406;3.6559;-0.1957;0.5592;-0.0581
0001021116;5.1978;-15.4594;3.6248;-0.2032;0.5132;-0.0317
0001021125;4.9536;-15.3516;3.6799;-0.2328;0.4723;-0.0003
0001021134;5.0278;-15.2104;3.5075;-0.2397;0.4267;0.0052
0001021143;5.1906;-15.0643;3.3782;-0.2494;0.3890;0.0021
0001021152;5.3486;-15.0930;3.2465;-0.2517;0.3459;-0.0033
0001021161;5.3534;-15.1409;3.2106;-0.2605;0.3218;-0.0222
0001021170;5.6144;-15.0571;3.1819;-0.2531;0.2785;-0.0486
0001021179;5.5881;-15.0643;3.2106;-0.2610;0.2482;-0.0597
0001021188;5.7892;-15.2104;3.0598;-0.2769;0.2248;-0.0745
0001021274;6.0525;-15.7826;3.3136;-0.2017;0.1139;-0.4353
0001021283;5.7916;-15.6916;3.2106;-0.1837;0.0827;-0.4499
0001021292;5.7245;-15.6054;3.2896;-0.1709;0.0516;-0.4562
0001021301;5.7197;-15.4378;3.3232;-0.1747;0.0256;-0.4443
0001021310;5.4899;-15.4234;3.2609;-0.1699;-0.0007;-0.4331
0001021319;5.5929;-15.2966;3.4979;-0.1843;0.0028;-0.4085
0001021328;5.4827;-15.4211;3.6703;-0.2006;0.0011;-0.3921
0001021337;5.5952;-15.5192;3.7517;-0.2166;0.0236;-0.3647
0001021346;5.6719;-15.4354;3.7206;-0.2285;0.0377;-0.3579
0001021355;5.8155;-15.6246;3.6679;-0.2337;0.0534;-0.3556
0001021364;5.9568;-15.5360;3.6488;-0.2553;0.0802;-0.3433
0001021373;5.9855;-15.5934;3.4046;-0.2575;0.0973;-0.3467
0001021382;6.1459;-15.4546;3.2106;-0.2631;0.1107;-0.3355
0001021391;5.7533;-15.5408;3.2346;-0.2713;0.1339;-0.3155
0001021400;5.7628;-15.3109;2.9664;-0.2805;0.1366;-0.3132
0001021409;5.6647;-15.1936;2.8228;-0.3155;0.1476;-0.3007
0001021418;5.5498;-15.2247;2.7533;-0.3299;0.1418;-0.3104
0001021427;5.2433;-15.2104;2.6911;-0.3451;0.1436;-0.3014
0001021436;5.0422;-15.3157;3.0047;-0.3548;0.1471;-0.2955
0001021445;4.8004;-15.5025;3.3998;-0.3508;0.1506;-0.3040
0001021454;4.6280;-16.1944;3.7445;-0.3219;0.1430;-0.3317
0001021463;5.1356;-16.2662;4.2114;-0.2759;0.1464;-0.3571
0001021472;5.8155;-16.5463;4.3551;-0.2188;0.1733;-0.3624
0001021481;6.7588;-16.7115;4.5155;-0.1791;0.2358;-0.3391
0001021490;7.4891;-16.6612;4.6543;-0.1498;0.3195;-0.3094
0001021499;8.1882;-16.5463;4.7046;-0.1264;0.4097;-0.2571
0001021508;8.5353;-16.5559;4.5466;-0.1234;0.4936;-0.2202
0001021517;8.9519;-16.5200;3.9744;-0.1440;0.5419;-0.1631
0001021526;9.0501;-16.6277;3.3471;-0.1607;0.5834;-0.1034
0001021535;8.9495;-16.5631;3.2178;-0.1480;0.6229;-0.0064
0001021544;8.0421;-16.4697;3.3279;-0.1106;0.6660;0.0909
0001021553;7.6279;-16.0914;3.4213;-0.0578;0.6904;0.1659
0001021562;6.8235;-16.0052;3.4907;0.0165;0.6908;0.2017
0001021571;6.1818;-15.7419;3.1843;0.1123;0.6667;0.2008
0001021580;5.5929;-15.4929;3.0933;0.2010;0.6358;0.1708
0001021589;5.2098;-14.8991;2.6121;0.2890;0.5756;0.0983
0001021598;5.0350;-14.4993;2.3296;0.3659;0.4732;-0.0031
0001021607;5.0542;-14.1354;2.3511;0.3536;0.3748;-0.0854
0001021616;5.4109;-14.0995;2.5881;0.2868;0.2773;-0.1258
0001021625;5.8155;-14.2982;2.9137;0.2108;0.2101;-0.1252
0001021634;6.6846;-14.3772;3.1388;0.1487;0.1479;-0.1171
0001021643;7.7979;-14.7626;3.1388;0.0933;0.1216;-0.0823
0001021652;8.4779;-14.8057;3.3232;0.0445;0.1202;-0.0322
0001021661;8.7317;-15.4689;3.5386;-0.0055;0.1434;0.0437
0001021670;9.2320;-15.6988;3.7110;-0.0593;0.1896;0.1057
0001021679;9.3494;-15.9167;3.5817;-0.0771;0.2286;0.1479
0001021688;8.9615;-16.2087;3.5650;-0.0842;0.2818;0.1649
0001021697;8.6072;-15.9310;3.5219;-0.0542;0.3054;0.1628
0001021706;7.8721;-15.8233;3.3208;-0.0101;0.3106;0.1495
0001021715;7.3933;-15.3157;3.0742;0.0103;0.3155;0.1290
0001021724;6.8761;-15.0691;2.8323;0.0004;0.2974;0.0982
0001021733;6.5362;-14.7507;2.8467;-0.0361;0.2709;0.0697
0001021742;6.5074;-15.1697;2.7677;-0.0845;0.2534;0.0357
0001021751;7.0270;-15.3612;2.8611;-0.1112;0.2218;0.0060
0001021760;7.4579;-15.6677;2.9904;-0.1252;0.1821;-0.0200
0001021769;8.0086;-16.0842;3.1891;-0.1475;0.1633;-0.0222
0001021778;8.2696;-16.4960;3.3710;-0.1368;0.1442;-0.0310
0001021787;8.4180;-16.5703;3.6464;-0.1150;0.1308;-0.0248
0001021796;8.1259;-16.8600;3.7350;-0.0749;0.1244;-0.0168
0001021805;8.0349;-16.5751;3.6033;-0.0446;0.1422;-0.0129
0001021814;7.9703;-16.5152;3.7685;0.0041;0.1507;-0.0328
0001021823;7.9871;-16.0555;3.6272;0.0601;0.1446;-0.0757
0001021832;7.5298;-15.8376;3.5841;0.0943;0.1300;-0.1302
0001021841;7.4196;-15.5312;3.6320;0.1086;0.1144;-0.1735
0001021850;7.4651;-15.2702;3.6248;0.1111;0.0858;-0.2136
0001021859;7.3454;-15.2798;3.6536;0.1120;0.0529;-0.2421
0001021868;7.3310;-15.3277;3.6200;0.0998;0.0277;-0.2454
0001021877;7.3119;-15.3923;3.6823;0.0929;0.0104;-0.2321
0001021886;7.5274;-15.4067;3.7110;0.0847;-0.0101;-0.2142
0001021895;7.4723;-15.5695;3.7014;0.0917;-0.0101;-0.1843
0001021904;7.5753;-15.5096;3.7421;0.1077;-0.0224;-0.1671
0001021990;7.5513;-15.4522;3.8642;0.1659;-0.0613;-0.0602
0001021999;7.6136;-15.4905;3.9002;0.1549;-0.0566;-0.0433
0001022008;7.6303;-15.3229;3.8978;0.1416;-0.0512;-0.0473
0001022017;7.6854;-15.1697;3.8427;0.1276;-0.0444;-0.0609
0001022026;7.6567;-15.2175;3.7757;0.1086;-0.0413;-0.0785
0001022035;7.8266;-15.2343;3.6512;0.0923;-0.0349;-0.0919
0001022044;7.8362;-15.1122;3.6057;0.0838;-0.0358;-0.1011
0001022053;7.7357;-15.1481;3.4812;0.0620;-0.0205;-0.0899
0001022062;7.6064;-15.3157;3.4692;0.0453;-0.0124;-0.0766
0001022071;7.8697;-14.9733;3.3878;0.0328;0.0001;-0.0541
0001022080;7.8769;-15.0332;3.3615;0.0103;0.0289;-0.0306
0001022089;7.8817;-15.0954;3.3974;0.0009;0.0532;-0.0177
0001022098;7.8482;-15.1649;3.3974;-0.0060;0.0861;0.0101
0001022107;7.9009;-15.1314;3.2513;-0.0185;0.1152;0.0200
0001022116;7.9464;-15.1290;3.2920;-0.0220;0.1395;0.0192
0001022125;8.1451;-14.9853;3.1268;-0.0473;0.1781;0.0285
0001022134;8.0996;-15.1433;2.8395;-0.0706;0.2225;0.0241
0001022143;8.1451;-15.1840;2.9473;-0.0953;0.2621;0.0217
0001022152;7.7955;-15.2798;2.8515;-0.1180;0.3015;0.0241
0001022161;7.9248;-15.5192;2.8108;-0.1271;0.3256;0.0137
0001022170;7.9607;-15.5360;2.8323;-0.1399;0.3519;0.0105
0001022179;7.8195;-15.5192;2.9353;-0.1371;0.3557;0.0012
0001022188;7.4579;-15.5049;3.0861;-0.1382;0.3583;0.0076
0001022197;7.1706;-15.6078;3.1460;-0.1382;0.3412;0.0129
0001022206;6.9671;-15.4809;3.2537;-0.1438;0.3092;0.0297
0001022215;6.4308;-15.7778;3.3878;-0.1603;0.2709;0.0520
0001022224;6.1890;-15.6964;3.6296;-0.1608;0.2158;0.0550
0001022233;6.0597;-15.8065;3.8283;-0.1611;0.1458;0.0644
0001022242;6.1028;-15.8999;3.9840;-0.1587;0.0564;0.0572
0001022251;5.6647;-16.1609;4.1587;-0.1520;-0.0310;0.0473
0001022260;5.5498;-16.3572;4.2665;-0.1533;-0.1122;0.0330
0001022269;5.4133;-16.4793;4.3000;-0.1471;-0.1849;0.0112
0001022278;5.4803;-16.5727;4.3934;-0.1274;-0.2558;-0.0280
0001022287;5.7317;-16.4960;4.2665;-0.1155;-0.3062;-0.0686
0001022296;6.2632;-16.2375;3.9337;-0.0937;-0.3451;-0.1222
0001022305;6.4811;-16.0052;3.7685;-0.0641;-0.3695;-0.1617
0001022314;6.9456;-15.8664;3.7230;-0.0422;-0.3702;-0.1863
0001022323;7.4484;-15.6461;3.5410;-0.0109;-0.3664;-0.2090
0001022332;7.7117;-15.5408;3.4477;0.0318;-0.3457;-0.2094
0001022341;8.1594;-15.3923;3.4117;0.0695;-0.3111;-0.1978
0001022350;8.3558;-15.3468;3.5099;0.1156;-0.2749;-0.1832
0001022359;8.3629;-15.2989;3.5985;0.1390;-0.2225;-0.1512
0001022368;8.5760;-15.0308;3.5291;0.1571;-0.1797;-0.1140
0001022377;7.8745;-15.2918;3.6152;0.1856;-0.1454;-0.0861
0001022386;7.4867;-15.1026;3.6943;0.2037;-0.1090;-0.0564
0001022395;7.0749;-15.0547;3.8379;0.2264;-0.0958;-0.0394
0001022404;6.6607;-14.9231;4.0390;0.2190;-0.0751;-0.0032
0001022413;6.4093;-14.8201;3.9241;0.2049;-0.0751;0.0159
0001022422;6.2130;-14.6836;3.9002;0.1701;-0.0717;0.0394
0001022431;6.2273;-14.6214;3.9744;0.1242;-0.0711;0.0524
0001022440;6.3686;-14.5280;3.9816;0.0741;-0.0770;0.0610
0001022449;6.3111;-14.6693;3.9433;0.0302;-0.0834;0.0787
0001022458;6.4763;-14.7124;3.8379;0.0012;-0.0867;0.0835
0001022467;6.8354;-14.8608;3.9935;-0.0376;-0.0745;0.0985
0001022476;6.6942;-15.1912;3.9672;-0.0524;-0.0682;0.0986
0001022485;6.8833;-15.3133;3.9169;-0.0569;-0.0645;0.0855
0001022494;7.0174;-15.3085;3.6943;-0.0558;-0.0540;0.0821
0001022503;7.0437;-15.5408;3.6703;-0.0606;-0.0302;0.0782
0001022512;7.0342;-15.4402;3.6488;-0.0526;-0.0143;0.0703
0001022521;6.8833;-15.4546;3.5985;-0.0464;0.0133;0.0674
0001022530;6.7181;-15.5719;3.5913;-0.0489;0.0342;0.0606
0001022539;6.7540;-15.4881;3.4357;-0.0513;0.0544;0.0618
0001022548;6.7349;-15.2918;3.3782;-0.0384;0.0630;0.0500
0001022557;6.4380;-15.5336;3.3567;-0.0292;0.0649;0.0450
0001022566;6.1914;-15.7251;3.3758;-0.0218;0.0616;0.0373
0001022575;5.9568;-15.9861;3.4405;-0.0033;0.0437;0.0296
0001022584;6.0166;-15.6677;3.4788;0.0137;0.0164;0.0274
0001022593;6.1148;-15.7179;3.5410;0.0310;-0.0017;0.0341
0001022602;5.9089;-15.6724;3.5123;0.0461;-0.0310;0.0410
0001022611;6.1100;-15.5719;3.5530;0.0540;-0.0522;0.0530
0001022620;6.3231;-15.5025;3.5602;0.0665;-0.0707;0.0605
0001022705;6.3398;-15.6964;4.0318;0.0745;-0.1823;0.0132
0001022714;6.5290;-15.5958;3.9409;0.0717;-0.1763;-0.0021
0001022723;6.6511;-15.5479;3.6607;0.0789;-0.1919;-0.0175
0001022732;6.8953;-15.5240;3.6895;0.0750;-0.1845;-0.0208
0001022741;6.7636;-15.5456;3.6440;0.0727;-0.1844;-0.0316
0001022750;6.9767;-15.3420;3.5314;0.0613;-0.1595;-0.0310
0001022759;6.8498;-15.5408;3.4860;0.0580;-0.1460;-0.0302
0001022768;7.1323;-15.5001;3.3543;0.0556;-0.1282;-0.0306
0001022777;6.7445;-15.5527;3.3782;0.0657;-0.1218;-0.0304
0001022786;6.6774;-15.5096;3.4788;0.0584;-0.1055;-0.0213
0001022795;6.6774;-15.4163;3.4165;0.0628;-0.1037;-0.0143
0001022804;6.4189;-15.5096;3.4333;0.0806;-0.1030;-0.0041
0001022813;6.2872;-15.5192;3.4860;0.0838;-0.1160;0.0092
0001022822;6.2177;-15.5408;3.4955;0.0693;-0.1263;0.0217
0001022831;6.0573;-15.6940;3.5482;0.0833;-0.1466;0.0224
0001022840;5.9927;-15.5001;3.6392;0.0899;-0.1661;0.0277
0001022849;6.1890;-15.4258;3.6320;0.0905;-0.1736;0.0384
0001022858;6.3111;-15.3277;3.6512;0.0933;-0.1799;0.0390
0001022867;6.2489;-15.3157;3.7350;0.0825;-0.1988;0.0496
0001022876;6.4955;-15.1026;3.6895;0.0779;-0.2181;0.0437
0001022885;6.3207;-15.0859;3.7685;0.0597;-0.2196;0.0578
0001022894;6.3782;-15.0500;3.9025;0.0448;-0.2337;0.0605
0001022903;6.5050;-15.0284;3.9313;0.0238;-0.2338;0.0649
0001022912;6.6894;-14.8991;3.9863;-0.0071;-0.2197;0.0735
0001022921;6.8570;-14.9111;4.0869;-0.0349;-0.2030;0.0826
0001022930;6.8833;-15.1314;4.0462;-0.0612;-0.1861;0.0957
0001022939;7.1036;-15.1457;4.1372;-0.0763;-0.1656;0.0937
0001022948;7.3430;-15.1314;4.0247;-0.0866;-0.1464;0.0782
0001022957;7.3526;-15.1840;3.9313;-0.0977;-0.1288;0.0678
0001022966;7.2065;-15.3444;3.8810;-0.0933;-0.1235;0.0422
0001022975;7.1658;-15.5695;3.9385;-0.0938;-0.1015;0.0322
0001022984;7.1012;-15.6270;3.8690;-0.0770;-0.0845;0.0155
0001022993;6.8666;-15.8544;4.0007;-0.0549;-0.0669;0.0005
0001023002;6.6535;-15.9047;3.9265;-0.0333;-0.0526;-0.0121
0001023011;6.6272;-15.7275;3.9696;-0.0127;-0.0434;-0.0289
0001023020;6.8067;-15.5192;3.9935;0.0056;-0.0286;-0.0366
0001023029;6.6918;-15.3995;3.8116;0.0217;-0.0211;-0.0410
0001023038;6.7181;-15.4713;3.8523;0.0352;-0.0115;-0.0453
0001023047;6.6942;-15.3013;3.7852;0.0365;-0.0048;-0.0426
0001023056;6.7062;-15.2175;3.8499;0.0361;0.0020;-0.0449
0001023065;6.8474;-15.1290;3.8235;0.0293;0.0048;-0.0437
0001023074;6.8594;-15.1984;3.8379;0.0109;0.0196;-0.0337
0001023083;6.8809;-15.1673;3.8523;0.0093;0.0168;-0.0318
0001023092;6.7876;-15.2319;3.8283;0.0019;0.0222;-0.0296
0001023101;6.7277;-15.3205;3.8714;-0.0111;0.0265;-0.0286
0001023110;6.6152;-15.4570;3.8786;-0.0112;0.0324;-0.0215
0001023119;6.4739;-15.5025;3.9049;-0.0016;0.0254;-0.0250
0001023128;6.5146;-15.5072;3.9193;0.0003;0.0269;-0.0280
0001023137;6.5601;-15.4354;4.0606;0.0041;0.0135;-0.0350
0001023146;6.6295;-15.5408;3.8618;0.0075;0.0081;-0.0365
0001023155;6.6343;-15.4139;3.8834;0.0141;0.0107;-0.0368
0001023164;6.8785;-15.5049;3.9121;0.0286;0.0205;-0.0474
0001023173;6.9599;-15.4641;3.9528;0.0278;0.0281;-0.0413
0001023182;7.0916;-15.4929;3.8834;0.0328;0.0464;-0.0456
0001023191;6.9456;-15.4019;3.9696;0.0352;0.0576;-0.0457
0001023200;7.0964;-15.4378;3.9504;0.0392;0.0590;-0.0590
0001023209;6.9863;-15.3037;3.9289;0.0377;0.0817;-0.0508
0001023218;6.7971;-15.3349;3.7948;0.0397;0.0866;-0.0610
0001023227;6.7660;-15.3109;3.8930;0.0344;0.0962;-0.0556
0001023236;6.7516;-15.4881;3.8906;0.0262;0.1001;-0.0616
0001023245;6.7301;-15.3301;3.9409;0.0334;0.0981;-0.0621
0001023254;6.4979;-15.3540;3.8810;0.0281;0.0938;-0.0666
0001023263;6.5721;-15.3492;3.8762;0.0204;0.0883;-0.0585
0001023272;6.4667;-15.2989;3.8140;0.0119;0.0853;-0.0566
0001023281;6.5290;-15.2726;3.8954;0.0095;0.0794;-0.0596
0001023290;6.5888;-15.1792;3.9193;-0.0032;0.0717;-0.0478
0001023299;6.4596;-15.3013;3.9241;-0.0111;0.0686;-0.0502
0001023308;6.5625;-15.3109;3.8786;-0.0088;0.0545;-0.0593
0001023317;6.5960;-15.2511;3.8786;-0.0201;0.0564;-0.0488
0001023326;6.7852;-15.2463;3.8595;-0.0204;0.0501;-0.0526
0001023335;6.6104;-15.3756;3.8211;-0.0225;0.0490;-0.0470
0001023344;6.8019;-15.2032;3.9409;-0.0238;0.0477;-0.0458
0001023490;6.7205;-15.2894;3.8906;0.0064;0.0119;-0.0377
0001023499;6.7301;-15.2726;3.9744;0.0033;0.0127;-0.0345
0001023508;6.8738;-15.0907;3.9528;-0.0033;0.0157;-0.0365
0001023517;6.7995;-15.2391;3.9600;-0.0123;0.0173;-0.0338
0001023526;6.7876;-15.1146;3.9840;-0.0155;0.0113;-0.0414
0001023535;6.8690;-15.0595;3.9696;-0.0294;0.0149;-0.0384
0001023544;6.9049;-15.0739;4.0175;-0.0354;0.0136;-0.0405
0001023553;6.7445;-15.1864;3.9648;-0.0396;0.0148;-0.0404
0001023562;6.9552;-15.0571;3.8930;-0.0500;0.0109;-0.0396
0001023571;6.5529;-15.4402;3.9672;-0.0488;0.0044;-0.0412
0001023580;6.7564;-15.1792;3.8666;-0.0545;0.0068;-0.0362
0001023589;6.6679;-15.4354;4.0701;-0.0492;-0.0023;-0.0376
0001023598;6.7708;-15.3109;3.9097;-0.0489;0.0032;-0.0389
0001023607;6.6415;-15.3277;3.8954;-0.0416;-0.0105;-0.0373
0001023616;6.6966;-15.5479;3.9145;-0.0430;-0.0085;-0.0288
0001023625;6.7445;-15.3205;3.9145;-0.0349;-0.0104;-0.0304
0001023634;6.7349;-15.3133;3.9193;-0.0369;-0.0161;-0.0260
0001023643;6.5050;-15.4905;3.9672;-0.0317;-0.0164;-0.0286
0001023652;6.6463;-15.5575;3.7924;-0.0245;-0.0226;-0.0207
0001023661;6.7900;-15.3085;3.9193;-0.0220;-0.0260;-0.0242
0001023670;6.8019;-15.2774;3.9121;-0.0147;-0.0369;-0.0270
0001023679;6.6798;-15.2247;3.9289;-0.0199;-0.0297;-0.0143
0001023688;6.6319;-15.3947;4.0438;-0.0151;-0.0353;-0.0205
0001023697;6.7876;-15.1864;3.9720;-0.0209;-0.0344;-0.0171
0001023706;6.8714;-15.1792;3.9121;-0.0233;-0.0392;-0.0188
0001023715;6.6487;-15.3133;3.9911;-0.0288;-0.0374;-0.0222
0001023724;6.8522;-15.2942;4.0103;-0.0203;-0.0394;-0.0216
0001023733;6.8977;-15.2487;4.0103;-0.0261;-0.0348;-0.0222
0001023742;6.9049;-15.1721;3.9337;-0.0317;-0.0341;-0.0187
0001023751;6.9719;-15.2056;4.0007;-0.0337;-0.0352;-0.0229
0001023760;6.7971;-15.3373;3.9696;-0.0248;-0.0396;-0.0236
0001023769;6.7181;-15.3995;3.9576;-0.0306;-0.0306;-0.0201
0001023778;6.8474;-15.2966;3.9792;-0.0296;-0.0376;-0.0269
0001023787;6.6559;-15.4115;3.9480;-0.0281;-0.0360;-0.0181
0001023796;6.9025;-15.2056;3.9600;-0.0201;-0.0410;-0.0221
0001023805;6.7038;-15.3995;3.9337;-0.0288;-0.0372;-0.0153
0001023814;6.7828;-15.3851;3.9097;-0.0301;-0.0369;-0.0140
0001023823;6.8307;-15.4474;3.8978;-0.0301;-0.0358;-0.0116
0001023832;6.8714;-15.2535;3.9361;-0.0320;-0.0350;-0.0143
0001023841;6.6032;-15.3732;3.9121;-0.0268;-0.0406;-0.0149
0001023850;6.6774;-15.2846;3.9145;-0.0241;-0.0476;-0.0195
0001023859;6.6942;-15.3133;3.9433;-0.0294;-0.0466;-0.0109
0001023868;6.9168;-15.2582;3.9289;-0.0340;-0.0449;-0.0191
0001023877;6.7205;-15.2942;4.0247;-0.0341;-0.0446;-0.0167
0001023886;6.8283;-15.2798;4.0318;-0.0356;-0.0502;-0.0128
0001023895;6.6559;-15.4258;3.9265;-0.0348;-0.0558;-0.0176
0001023904;6.9264;-15.2175;3.8666;-0.0360;-0.0550;-0.0136
0001023913;6.7876;-15.3109;3.9049;-0.0368;-0.0601;-0.0211
0001023922;6.8259;-15.4450;3.9720;-0.0381;-0.0542;-0.0141
0001023931;6.9504;-15.2606;3.9863;-0.0342;-0.0554;-0.0185
0001023940;6.9001;-15.3373;3.9385;-0.0382;-0.0538;-0.0135
0001023949;6.9264;-15.3468;3.9409;-0.0313;-0.0553;-0.0173
0001023958;6.8666;-15.4426;3.9097;-0.0314;-0.0512;-0.0140
0001023967;6.8283;-15.3684;3.9121;-0.0230;-0.0540;-0.0141
0001023976;6.7301;-15.3947;3.9672;-0.0173;-0.0598;-0.0125
0001023985;6.8474;-15.3732;3.9217;-0.0222;-0.0504;-0.0071
0001023994;6.7708;-15.3301;3.9313;-0.0228;-0.0576;-0.0044
0001024003;6.8666;-15.3109;3.9073;-0.0196;-0.0628;-0.0091
0001024012;6.6679;-15.3875;3.9528;-0.0266;-0.0580;-0.0036
0001024021;6.6272;-15.3157;3.9121;-0.0240;-0.0727;-0.0053
0001024030;6.8666;-15.3349;3.9313;-0.0316;-0.0661;0.0024
0001024039;6.6894;-15.3229;3.9337;-0.0305;-0.0687;0.0012
0001024048;6.8115;-15.2295;3.8810;-0.0372;-0.0709;0.0017
0001024057;6.8929;-15.2391;3.8882;-0.0286;-0.0754;-0.0011
0001024066;6.8043;-15.2774;3.8714;-0.0392;-0.0710;0.0056
0001024075;6.8546;-15.1505;3.9121;-0.0389;-0.0701;-0.0071
0001024084;6.8354;-15.3061;3.9456;-0.0448;-0.0681;-0.0011
0001024093;6.8833;-15.2582;3.8618;-0.0440;-0.0669;-0.0025
0001024102;6.8690;-15.3660;3.8164;-0.0532;-0.0646;0.0077
0001024190;6.8738;-15.4091;3.8283;-0.0197;-0.0636;-0.0144
0001024197;7.0198;-15.3516;3.8092;-0.0207;-0.0604;-0.0096
0001024205;6.7876;-15.3875;3.8786;-0.0172;-0.0580;-0.0148
0001024213;6.7564;-15.5168;3.8499;-0.0163;-0.0594;-0.0161
0001024221;6.9336;-15.3373;3.8714;-0.0203;-0.0501;-0.0084
0001024229;6.9384;-15.3253;3.8451;-0.0234;-0.0498;-0.0069
0001024237;6.8809;-15.2032;3.8618;-0.0172;-0.0552;-0.0125
0001024245;6.7301;-15.5168;3.8571;-0.0222;-0.0461;-0.0044
0001024253;6.8115;-15.3109;3.8834;-0.0230;-0.0393;-0.0077
0001024261;6.8953;-15.3157;3.7804;-0.0195;-0.0434;-0.0124
0001024269;6.7373;-15.4689;3.8403;-0.0163;-0.0438;-0.0143
0001024277;6.8474;-15.3827;3.8499;-0.0164;-0.0362;-0.0105
0001024285;6.6990;-15.5479;3.8331;-0.0196;-0.0408;-0.0133
0001024293;6.6942;-15.4546;3.8116;-0.0148;-0.0448;-0.0197
0001024301;6.6846;-15.4546;3.7613;-0.0211;-0.0397;-0.0092
0001024309;6.8307;-15.4067;3.8235;-0.0238;-0.0394;-0.0063
0001024317;6.7253;-15.3588;3.7709;-0.0278;-0.0436;-0.0101
0001024325;6.7493;-15.4354;3.8164;-0.0238;-0.0486;-0.0071
0001024333;6.8043;-15.2391;3.7421;-0.0340;-0.0477;-0.0028
0001024341;6.7397;-15.3373;3.8379;-0.0358;-0.0522;-0.0036
0001024349;6.6008;-15.3061;3.7924;-0.0380;-0.0537;0.0020
0001024357;6.6463;-15.2726;3.8595;-0.0394;-0.0584;-0.0008
0001024365;6.6607;-15.5025;3.8140;-0.0380;-0.0665;-0.0084
0001024373;6.6942;-15.4234;3.8499;-0.0402;-0.0679;-0.0040
0001024381;6.7516;-15.4043;3.7876;-0.0466;-0.0629;-0.0019
