time;acc_x;acc_y;acc_z;gyro_x;gyro_y;gyro_z
0001295096;-3.8475;-5.3702;-1.3838;-0.0389;-0.0127;-0.0009
0001295104;-3.7326;-5.2577;-1.3743;-0.0413;-0.0188;-0.0029
0001295111;-3.8020;-5.2960;-1.3408;-0.0489;-0.0292;-0.0064
0001295119;-3.8211;-5.2170;-1.3958;-0.0578;-0.0410;-0.0020
0001295128;-3.7302;-5.3247;-1.3479;-0.0569;-0.0582;-0.0057
0001295136;-3.6200;-5.3630;-1.4102;-0.0614;-0.0669;-0.0001
0001295149;-3.5410;-5.3941;-1.3791;-0.0540;-0.0691;0.0047
0001295156;-3.5291;-5.5330;-1.5012;-0.0478;-0.0609;0.0045
0001295168;-3.5171;-5.6264;-1.5179;-0.0433;-0.0365;0.0164
0001295175;-3.2561;-5.3151;-1.5347;-0.0385;-0.0274;0.0159
0001295188;-3.4907;-5.2265;-1.5945;-0.0441;-0.0179;0.0176
0001295195;-3.7828;-5.3008;-1.6496;-0.0422;-0.0301;0.0124
0001295203;-3.7757;-5.3391;-1.7047;-0.0516;-0.0402;0.0200
0001295215;-3.7254;-5.3295;-1.6089;-0.0594;-0.0679;0.0224
0001295222;-3.8882;-5.5665;-1.7142;-0.0581;-0.0821;0.0294
0001295235;-3.6176;-5.4827;-1.6735;-0.0565;-0.0849;0.0350
0001295242;-3.5410;-5.5474;-1.6735;-0.0529;-0.0782;0.0352
0001295311;-3.5698;-5.3486;-1.6568;-0.0092;0.0053;-0.0099
0001295318;-3.6607;-5.3630;-1.5969;-0.0103;0.0000;-0.0085
0001295331;-3.6655;-5.3486;-1.6113;-0.0044;-0.0077;-0.0080
0001295338;-3.6536;-5.3439;-1.6496;0.0001;-0.0117;-0.0076
0001295350;-3.7038;-5.3439;-1.6137;-0.0037;-0.0175;0.0007
0001295357;-3.5362;-5.1547;-1.6328;-0.0019;-0.0248;0.0029
0001295370;-3.7421;-5.1954;-1.5323;-0.0051;-0.0426;0.0027
0001295377;-3.7781;-5.2529;-1.4868;-0.0100;-0.0394;0.0111
0001295385;-3.6847;-5.2960;-1.4724;-0.0133;-0.0432;0.0104
0001295397;-3.6152;-5.1858;-1.5083;-0.0077;-0.0464;0.0100
0001295404;-3.5075;-5.1667;-1.4844;0.0012;-0.0542;0.0041
0001295417;-3.7254;-5.3199;-1.5155;-0.0003;-0.0482;0.0073
0001295424;-3.4524;-5.1547;-1.5490;-0.0027;-0.0445;0.0009
0001295436;-3.5243;-5.1619;-1.5490;-0.0063;-0.0514;-0.0012
0001295443;-3.4692;-5.2122;-1.5993;-0.0104;-0.0529;-0.0113
0001295456;-3.5027;-5.0829;-1.5682;-0.0188;-0.0449;-0.0120
0001295463;-3.5243;-5.3175;-1.6281;-0.0163;-0.0441;-0.0159
0001295475;-3.5027;-5.2098;-1.6137;-0.0233;-0.0368;-0.0093
0001295482;-3.5769;-5.3199;-1.6065;-0.0242;-0.0386;-0.0129
0001295495;-3.6009;-5.3439;-1.6041;-0.0269;-0.0344;-0.0111
0001295502;-3.6727;-5.4300;-1.6161;-0.0217;-0.0386;-0.0129
0001295510;-3.6919;-5.4612;-1.5969;-0.0188;-0.0384;-0.0172
0001295577;-3.5793;-5.2241;-1.6496;-0.0204;-0.0329;-0.0140
0001295584;-3.5434;-5.2720;-1.5490;-0.0229;-0.0401;-0.0115
0001295597;-3.4716;-5.2218;-1.5778;-0.0276;-0.0418;-0.0113
0001295604;-3.4093;-5.1164;-1.6041;-0.0276;-0.0425;-0.0133
0001295616;-3.6464;-5.2744;-1.5323;-0.0336;-0.0405;-0.0144
0001295623;-3.6392;-5.3415;-1.7047;-0.0356;-0.0373;-0.0079
0001295636;-3.7948;-5.4181;-1.6113;-0.0309;-0.0406;-0.0009
0001295643;-3.6799;-5.2098;-1.6759;-0.0388;-0.0405;0.0048
0001295655;-3.7828;-5.5186;-1.7478;-0.0332;-0.0481;0.0073
0001295662;-3.7302;-5.4109;-1.6592;-0.0348;-0.0368;0.0089
0001295675;-3.6488;-5.3534;-1.6783;-0.0282;-0.0354;0.0087
0001295682;-3.5482;-5.3917;-1.6975;-0.0242;-0.0416;0.0019
0001295694;-3.6081;-5.4372;-1.5467;-0.0218;-0.0342;0.0059
0001295701;-3.5099;-5.3415;-1.5969;-0.0185;-0.0406;0.0020
0001295709;-3.3399;-5.2888;-1.5036;-0.0161;-0.0369;0.0032
0001295722;-3.5099;-5.3774;-1.6113;-0.0193;-0.0300;0.0096
0001295729;-3.6033;-5.2888;-1.5155;-0.0111;-0.0309;0.0105
0001295741;-3.3734;-5.3032;-1.5443;-0.0157;-0.0248;0.0133
0001295748;-3.5195;-5.4612;-1.5538;-0.0160;-0.0252;0.0145
0001295761;-3.7014;-5.4133;-1.5802;-0.0163;-0.0168;0.0180
0001295768;-3.7757;-5.4540;-1.5347;-0.0181;-0.0157;0.0172
0001295837;-3.5267;-5.2433;-1.4653;-0.0270;-0.0254;0.0148
0001295844;-3.6057;-5.2241;-1.5227;-0.0249;-0.0340;0.0109
0001295857;-3.6296;-5.2601;-1.4269;-0.0238;-0.0357;0.0065
0001295864;-3.6057;-5.1308;-1.5514;-0.0276;-0.0353;0.0101
0001295876;-3.4524;-5.2505;-1.5778;-0.0211;-0.0424;0.0041
0001295883;-3.4165;-5.1691;-1.4820;-0.0229;-0.0426;0.0045
0001295891;-3.5769;-5.2529;-1.6137;-0.0176;-0.0417;0.0015
0001295904;-3.6320;-5.3056;-1.5897;-0.0183;-0.0292;0.0029
0001295911;-3.6847;-5.3606;-1.5586;-0.0209;-0.0220;0.0043
0001295923;-3.4716;-5.1427;-1.5897;-0.0147;-0.0270;0.0031
0001295930;-3.5291;-5.1978;-1.5945;-0.0177;-0.0268;0.0069
0001295943;-3.5099;-5.2553;-1.6185;-0.0137;-0.0380;-0.0013
0001295950;-3.5338;-5.2744;-1.6688;-0.0108;-0.0370;-0.0053
0001295962;-3.4907;-5.2098;-1.6712;-0.0155;-0.0326;-0.0024
0001295969;-3.4500;-5.2529;-1.6257;-0.0161;-0.0266;-0.0033
0001295982;-3.5961;-5.1954;-1.5778;-0.0128;-0.0172;-0.0060
0001295989;-3.4620;-5.1834;-1.7837;-0.0073;-0.0218;-0.0164
0001296001;-3.6248;-5.1188;-1.6281;-0.0075;-0.0175;-0.0113
0001296008;-3.8738;-5.3247;-1.6999;-0.0023;-0.0241;-0.0176
0001296021;-3.7373;-5.2768;-1.6735;-0.0071;-0.0250;-0.0084
0001296028;-3.7948;-5.2361;-1.6688;-0.0065;-0.0282;-0.0035
0001296036;-3.6176;-5.1140;-1.6520;-0.0032;-0.0364;-0.0068
0001296105;-3.6847;-5.3319;-1.5227;-0.0141;-0.0514;0.0011
0001296112;-3.6775;-5.2361;-1.5754;-0.0105;-0.0501;0.0049
0001296125;-3.7062;-5.3989;-1.5490;0.0004;-0.0485;0.0133
0001296132;-3.7637;-5.3702;-1.5778;0.0025;-0.0526;0.0187
0001296144;-3.6655;-5.4444;-1.6185;0.0080;-0.0504;0.0192
0001296151;-3.5195;-5.2936;-1.5371;0.0132;-0.0428;0.0173
0001296164;-3.5458;-5.1906;-1.6448;0.0105;-0.0349;0.0067
0001296171;-3.6751;-5.3295;-1.5874;0.0053;-0.0313;0.0017
0001296183;-3.5745;-5.1763;-1.6089;0.0037;-0.0381;-0.0009
0001296190;-3.6823;-5.1978;-1.4676;0.0023;-0.0470;-0.0027
0001296198;-3.4189;-5.1954;-1.5347;-0.0020;-0.0514;-0.0007
0001296211;-3.6033;-5.3103;-1.5778;-0.0048;-0.0526;0.0048
0001296218;-3.5650;-5.2720;-1.6041;-0.0028;-0.0505;0.0004
0001296230;-3.4189;-5.2529;-1.5562;-0.0041;-0.0364;0.0092
0001296237;-3.5099;-5.3103;-1.6185;0.0012;-0.0325;0.0037
0001296250;-3.6344;-5.2074;-1.6352;0.0000;-0.0238;-0.0012
0001296257;-3.6105;-5.1882;-1.5107;-0.0036;-0.0213;-0.0047
0001296269;-3.6607;-5.1667;-1.5706;-0.0049;-0.0286;-0.0016
0001296276;-3.7709;-5.0949;-1.6137;-0.0068;-0.0362;-0.0013
0001296289;-3.6129;-5.1858;-1.5467;-0.0092;-0.0512;-0.0047
0001296296;-3.5817;-4.9991;-1.6161;-0.0145;-0.0513;0.0045
0001296365;-3.5698;-5.0757;-1.5227;-0.0080;-0.0513;0.0049
0001296372;-3.5171;-5.1811;-1.5443;-0.0092;-0.0468;0.0007
0001296380;-3.5554;-5.0446;-1.4916;-0.0119;-0.0514;-0.0052
0001296393;-3.6344;-5.2074;-1.4653;-0.0163;-0.0514;-0.0007
0001296400;-3.4524;-5.1332;-1.5969;-0.0167;-0.0520;-0.0068
0001296412;-3.7230;-5.3798;-1.5155;-0.0191;-0.0474;-0.0015
0001296419;-3.7373;-5.1547;-1.5371;-0.0132;-0.0536;-0.0103
0001296432;-3.2417;-5.0159;-1.5874;-0.0076;-0.0538;-0.0083
0001296439;-3.6679;-5.2218;-1.6712;-0.0100;-0.0476;-0.0111
0001296452;-3.4596;-5.0589;-1.6759;-0.0123;-0.0402;-0.0112
0001296459;-3.6344;-5.3726;-1.5107;-0.0176;-0.0366;-0.0060
0001296471;-3.5219;-5.1691;-1.6305;-0.0121;-0.0369;-0.0103
0001296478;-3.4644;-5.1451;-1.5251;-0.0149;-0.0381;-0.0096
0001296491;-3.4764;-5.1523;-1.5921;-0.0125;-0.0426;-0.0152
0001296498;-3.6943;-5.1930;-1.5395;-0.0091;-0.0453;-0.0203
0001296510;-3.7254;-5.0805;-1.5778;-0.0155;-0.0450;-0.0197
0001296517;-3.5626;-4.9775;-1.6185;-0.0172;-0.0529;-0.0242
0001296530;-3.6033;-5.1499;-1.5969;-0.0256;-0.0500;-0.0123
0001296537;-3.5817;-5.2337;-1.5467;-0.0321;-0.0488;-0.0076
0001296545;-3.4668;-5.2888;-1.5802;-0.0289;-0.0421;-0.0033
0001296558;-3.5195;-5.4229;-1.5634;-0.0290;-0.0236;0.0089
0001296565;-3.3399;-5.2194;-1.5897;-0.0264;-0.0208;0.0095
0001296634;-3.5003;-5.2098;-1.4293;0.0119;-0.0152;0.0020
0001296642;-3.5243;-5.2313;-1.5203;0.0107;-0.0120;0.0024
0001296653;-3.7445;-5.2768;-1.5610;0.0175;-0.0171;0.0007
0001296660;-3.7014;-5.2648;-1.4844;0.0112;-0.0191;-0.0035
0001296673;-3.6057;-5.1380;-1.5754;0.0075;-0.0197;-0.0108
0001296680;-3.7230;-5.1906;-1.5060;-0.0017;-0.0156;-0.0140
0001296692;-3.7876;-5.2361;-1.5227;-0.0048;-0.0191;-0.0133
0001296699;-3.8379;-5.2433;-1.5323;-0.0063;-0.0199;-0.0175
0001296712;-3.6105;-5.1882;-1.5514;-0.0079;-0.0256;-0.0052
0001296719;-3.4931;-5.0302;-1.4653;-0.0075;-0.0222;-0.0052
0001296727;-3.3519;-4.9799;-1.5012;-0.0068;-0.0193;-0.0045
0001296739;-3.3279;-4.9895;-1.5562;-0.0088;-0.0128;-0.0063
0001296746;-3.3926;-5.0087;-1.5060;-0.0093;-0.0015;-0.0056
0001296759;-3.3208;-4.9488;-1.6233;-0.0121;0.0087;-0.0152
0001296766;-3.5961;-5.0206;-1.5993;-0.0197;0.0164;-0.0112
0001296778;-3.4644;-5.1523;-1.5586;-0.0169;0.0113;-0.0217
0001296785;-3.7182;-5.1308;-1.5754;-0.0272;0.0167;-0.0167
0001296798;-3.6512;-5.1212;-1.5419;-0.0215;0.0088;-0.0132
0001296805;-3.6895;-5.1499;-1.4988;-0.0222;0.0083;-0.0079
0001296818;-3.5291;-5.1212;-1.5131;-0.0211;-0.0024;-0.0111
0001296825;-3.6272;-5.2170;-1.5467;-0.0213;0.0015;-0.0063
0001296894;-3.7493;-5.2984;-1.6089;-0.0064;0.0075;-0.0061
0001296901;-3.6919;-5.2409;-1.5993;-0.0064;0.0008;-0.0093
0001296913;-3.5889;-5.2720;-1.5993;-0.0059;0.0017;-0.0071
0001296920;-3.6416;-5.0996;-1.6281;-0.0013;-0.0028;-0.0152
0001296928;-3.5578;-5.2337;-1.6640;-0.0001;-0.0053;-0.0172
0001296941;-3.6607;-5.3534;-1.6065;-0.0013;0.0005;-0.0117
0001296948;-3.5554;-5.1236;-1.6496;0.0076;-0.0057;-0.0177
0001296960;-3.4644;-5.1044;-1.7166;0.0028;0.0067;-0.0111
0001296967;-3.6679;-5.2529;-1.6352;0.0032;0.0013;-0.0104
0001296980;-3.4979;-5.1260;-1.5993;0.0087;-0.0003;-0.0085
0001296987;-3.5338;-5.1643;-1.6376;0.0077;0.0065;-0.0035
0001296999;-3.6583;-5.2170;-1.6065;0.0068;0.0071;-0.0059
0001297006;-3.5171;-5.1739;-1.6592;0.0061;0.0161;-0.0060
0001297019;-3.6224;-5.3127;-1.6400;0.0131;0.0103;-0.0238
0001297026;-3.4333;-5.0326;-1.6855;0.0095;0.0193;-0.0218
0001297034;-3.4572;-5.1667;-1.6257;0.0100;0.0192;-0.0376
0001297046;-3.6655;-5.1284;-1.6041;0.0061;0.0241;-0.0317
0001297053;-3.4189;-4.9847;-1.6664;0.0055;0.0211;-0.0386
0001297066;-3.4596;-5.1619;-1.6855;0.0021;0.0129;-0.0349
0001297073;-3.5195;-4.9273;-1.6257;-0.0041;0.0177;-0.0436
0001297086;-3.5506;-5.0877;-1.6161;-0.0103;0.0188;-0.0502
0001297093;-3.2705;-4.9321;-1.6257;-0.0139;0.0264;-0.0536
0001297162;-3.6296;-5.4037;-1.6903;0.0333;0.0827;-0.0669
0001297169;-3.5674;-5.1978;-1.7693;0.0262;0.0930;-0.0841
0001297182;-3.7565;-5.2385;-1.8076;0.0209;0.1042;-0.1071
0001297189;-3.5937;-5.1763;-1.7765;0.0236;0.1006;-0.1200
0001297197;-3.3758;-5.0326;-1.6999;0.0171;0.1014;-0.1302
0001297210;-3.2633;-5.1882;-1.7454;0.0405;0.0955;-0.1616
0001297217;-3.0574;-4.9440;-1.7071;0.0532;0.0962;-0.1848
0001297229;-3.1077;-5.3199;-1.7837;0.0604;0.1196;-0.2013
0001297236;-3.0358;-5.3223;-1.8052;0.0678;0.1435;-0.2126
0001297249;-3.1651;-5.3103;-1.6712;0.0783;0.1903;-0.2273
0001297256;-3.2920;-5.2050;-1.7837;0.0721;0.2105;-0.2334
0001297268;-3.4117;-5.0087;-1.9441;0.0534;0.2419;-0.2426
0001297275;-3.7038;-5.0518;-1.8723;0.0252;0.2413;-0.2694
0001297288;-3.6583;-4.6256;-1.9010;-0.0273;0.2419;-0.2958
0001297295;-3.7230;-4.7621;-1.8747;-0.0711;0.2360;-0.3036
0001297303;-3.5769;-4.6208;-1.8986;-0.1061;0.2260;-0.3140
0001297315;-3.1580;-4.5825;-1.8555;-0.1434;0.2238;-0.3079
0001297322;-3.3495;-4.9273;-1.7861;-0.1528;0.2350;-0.3020
0001297335;-3.4117;-5.3606;-1.7454;-0.1636;0.2610;-0.2886
0001297342;-3.2681;-5.3774;-1.7909;-0.1631;0.2878;-0.2739
0001297355;-3.2777;-5.5330;-1.7813;-0.1372;0.2886;-0.2629
0001297362;-3.4788;-5.6599;-1.8028;-0.1308;0.2895;-0.2551
0001297431;-3.4069;-5.4731;-2.0830;-0.1136;0.3460;-0.3254
0001297438;-3.7900;-5.7533;-2.0638;-0.1106;0.3416;-0.3263
0001297450;-3.7062;-5.7557;-2.0638;-0.1130;0.3236;-0.3264
0001297457;-3.7852;-5.8802;-2.0997;-0.1088;0.3038;-0.3184
0001297470;-3.5937;-5.9520;-2.1620;-0.1022;0.2902;-0.3272
0001297477;-3.4022;-5.8945;-2.2075;-0.1030;0.2928;-0.3372
0001297485;-3.4716;-5.9592;-2.3655;-0.1091;0.3067;-0.3544
0001297497;-3.2513;-5.9568;-2.3535;-0.1172;0.3293;-0.3841
0001297504;-3.4309;-5.9855;-2.4924;-0.1260;0.3464;-0.4008
0001297517;-3.4812;-5.8419;-2.4828;-0.1374;0.3588;-0.4158
0001297524;-3.4261;-5.7269;-2.4780;-0.1335;0.3625;-0.4186
0001297535;-3.6200;-6.0071;-2.4349;-0.1302;0.3644;-0.4016
0001297543;-3.5626;-5.9879;-2.4565;-0.1262;0.3685;-0.3800
0001297556;-3.5314;-6.0454;-2.5187;-0.1069;0.3628;-0.3617
0001297563;-3.3686;-6.1818;-2.6025;-0.0889;0.3609;-0.3503
0001297575;-3.3471;-6.2441;-2.7749;-0.0602;0.3651;-0.3487
0001297582;-3.3974;-6.3686;-2.8252;-0.0360;0.3700;-0.3568
0001297595;-3.3902;-6.4811;-2.8898;-0.0003;0.3742;-0.3726
0001297602;-3.4788;-6.5769;-2.8730;0.0195;0.3784;-0.3794
0001297610;-3.2585;-6.5673;-2.8299;0.0489;0.3812;-0.3942
0001297623;-3.4381;-6.5314;-3.0263;0.0917;0.3846;-0.3956
0001297630;-3.3662;-6.3734;-3.0789;0.1107;0.3849;-0.3817
0001297699;-3.7757;-6.9623;-3.6727;0.2074;0.3317;-0.3408
0001297706;-3.7781;-6.9695;-3.7733;0.2257;0.3127;-0.3465
0001297718;-3.5530;-6.9360;-3.7924;0.2534;0.2935;-0.3628
0001297725;-3.4764;-6.7900;-3.8882;0.2551;0.2874;-0.3683
0001297738;-3.3519;-6.5936;-3.9696;0.2417;0.2634;-0.3898
0001297745;-3.4357;-6.7540;-4.1013;0.2170;0.2578;-0.3864
0001297757;-3.3543;-6.6535;-4.2353;0.1705;0.2558;-0.3826
0001297764;-3.0813;-6.6942;-4.3024;0.1346;0.2526;-0.3677
0001297772;-3.2848;-6.8522;-4.3431;0.1043;0.2479;-0.3633
0001297785;-3.2082;-6.8426;-4.2545;0.0718;0.2401;-0.3524
0001297792;-3.2825;-7.1323;-4.2114;0.0558;0.2341;-0.3455
0001297805;-3.2082;-7.3071;-4.0917;0.0541;0.2065;-0.3435
0001297812;-3.0837;-7.3095;-4.1037;0.0510;0.1931;-0.3411
0001297824;-2.9377;-7.4124;-4.1228;0.0580;0.1684;-0.3447
0001297831;-3.1364;-7.5513;-4.1994;0.0605;0.1735;-0.3568
0001297844;-2.8922;-7.7788;-4.1563;0.0650;0.1980;-0.3627
0001297851;-3.0095;-7.7524;-4.0749;0.0738;0.2130;-0.3729
0001297863;-3.1077;-7.9009;-4.1156;0.0951;0.2326;-0.3760
0001297870;-3.2394;-7.9655;-4.1204;0.1115;0.2304;-0.3748
0001297878;-3.3112;-7.9918;-4.1013;0.1302;0.2290;-0.3734
0001297891;-3.1939;-7.8410;-4.1348;0.1398;0.2094;-0.3608
0001297898;-3.1316;-7.6136;-4.1707;0.1398;0.1969;-0.3519
0001297967;-3.0861;-7.5800;-4.4772;-0.0081;0.3003;-0.3397
0001297974;-3.0622;-7.4939;-4.4412;-0.0191;0.2786;-0.3569
0001297987;-3.4117;-7.5992;-4.4556;-0.0397;0.2422;-0.3616
0001297994;-3.4381;-7.6782;-4.4149;-0.0436;0.1921;-0.3804
0001298006;-3.6200;-7.5776;-4.2353;-0.0648;0.1326;-0.3745
0001298013;-3.7086;-7.5441;-4.2689;-0.0703;0.0941;-0.3754
0001298026;-3.4692;-7.5274;-4.4724;-0.0709;0.0541;-0.3645
0001298033;-3.4860;-7.6255;-4.3934;-0.0667;0.0308;-0.3593
0001298041;-3.2298;-7.6830;-4.3191;-0.0485;0.0027;-0.3567
0001298053;-3.2825;-7.7883;-4.4149;-0.0389;-0.0222;-0.3380
0001298060;-3.0287;-7.8266;-4.4963;-0.0344;-0.0444;-0.3416
0001298073;-2.9544;-7.7764;-4.5226;-0.0434;-0.0679;-0.3564
0001298080;-2.8778;-7.8697;-4.6591;-0.0492;-0.0790;-0.3838
0001298092;-2.9760;-7.7907;-4.5490;-0.0669;-0.0610;-0.4187
0001298099;-2.9090;-7.7955;-4.4556;-0.0677;-0.0561;-0.4334
0001298112;-3.2513;-7.9272;-4.2282;-0.0629;-0.0372;-0.4310
0001298119;-3.3232;-7.8578;-4.1492;-0.0526;-0.0302;-0.4049
0001298131;-3.3806;-7.8626;-4.0390;-0.0473;-0.0573;-0.3820
0001298138;-3.4381;-7.7931;-4.0223;-0.0481;-0.0831;-0.3625
0001298151;-3.3232;-7.9248;-4.1827;-0.0406;-0.1378;-0.3623
0001298158;-3.1747;-7.9248;-4.1324;-0.0442;-0.1617;-0.3793
0001298227;-3.3615;-7.9918;-4.0318;-0.1635;-0.0504;-0.3503
0001298234;-3.8762;-8.2145;-4.0294;-0.1757;-0.1144;-0.3407
0001298242;-4.0151;-8.3079;-3.9552;-0.1921;-0.1783;-0.3285
0001298255;-4.1300;-8.4563;-4.0558;-0.2070;-0.2662;-0.3199
0001298262;-4.2066;-8.4276;-4.1108;-0.2220;-0.3083;-0.3166
0001298274;-4.0677;-8.8490;-4.3167;-0.2276;-0.3540;-0.3054
0001298281;-3.6248;-8.7269;-4.2593;-0.2234;-0.3900;-0.3064
0001298294;-3.5195;-9.1985;-4.5514;-0.1928;-0.4455;-0.2987
0001298301;-3.0909;-9.3565;-4.6160;-0.1699;-0.4755;-0.2900
0001298313;-3.0430;-9.8857;-4.4652;-0.1246;-0.5369;-0.2791
0001298320;-2.7222;-10.1203;-4.4819;-0.0975;-0.5449;-0.2667
0001298333;-2.3918;-10.0197;-4.3790;-0.0545;-0.5424;-0.2577
0001298340;-2.0734;-9.8665;-4.1515;-0.0460;-0.5224;-0.2461
0001298352;-2.2362;-9.7037;-4.0773;-0.0164;-0.4863;-0.2224
0001298359;-2.2793;-9.4643;-4.0055;-0.0047;-0.4574;-0.1996
0001298372;-2.3774;-9.1004;-4.1084;0.0167;-0.4539;-0.1715
0001298379;-2.5929;-9.1075;-4.2497;0.0245;-0.4760;-0.1494
0001298391;-2.6887;-9.1267;-4.4748;0.0230;-0.5065;-0.1058
0001298398;-2.6719;-9.0573;-4.4293;0.0191;-0.5331;-0.0722
0001298406;-2.7270;-9.2416;-4.3551;0.0091;-0.5381;-0.0364
0001298419;-2.8874;-9.6031;-4.2329;0.0069;-0.5316;0.0196
0001298426;-2.4828;-9.5385;-4.3287;0.0088;-0.5209;0.0671
0001298495;-2.4469;-9.7779;-4.4580;0.1921;-0.5275;0.0781
0001298502;-2.4349;-9.2560;-4.2713;0.1769;-0.5299;0.0632
0001298515;-2.6097;-8.7580;-3.9720;0.1623;-0.4872;0.0923
0001298522;-2.5474;-8.2121;-3.8044;0.1637;-0.4421;0.1320
0001298534;-3.0287;-8.0685;-4.0103;0.1368;-0.3617;0.2077
0001298541;-3.6009;-8.3414;-4.4412;0.0985;-0.3488;0.2613
0001298554;-4.2617;-8.9399;-4.8147;-0.0052;-0.3691;0.3349
0001298561;-4.8100;-8.9639;-5.7772;-0.0927;-0.4098;0.3656
0001298569;-4.9704;-8.7939;-5.3079;-0.1216;-0.4654;0.3954
0001298581;-5.6599;-8.1307;-4.3000;-0.1359;-0.5227;0.4125
0001298588;-5.5162;-7.5537;-3.0191;-0.1480;-0.5136;0.4048
0001298601;-5.1020;-6.4907;-1.6640;-0.1268;-0.4353;0.3524
0001298608;-4.7884;-6.1794;-1.4389;-0.1319;-0.3784;0.2718
0001298621;-3.8906;-6.2345;-2.1620;-0.2745;-0.3087;0.0874
0001298628;-3.4453;-6.5194;-2.4062;-0.4038;-0.2370;-0.0104
0001298641;-3.6176;-7.9559;-2.8778;-0.5267;-0.0989;-0.0053
0001298648;-3.4836;-8.4036;-2.5498;-0.5228;-0.0269;0.0958
0001298660;-4.1803;-8.6838;-1.9130;-0.4562;0.0552;0.2614
0001298667;-4.4412;-8.5329;-1.5658;-0.4082;0.0941;0.3445
0001298680;-5.3223;-8.6263;-1.4509;-0.2840;0.0771;0.3385
0001298687;-5.7317;-9.0764;-1.4557;-0.1931;0.0449;0.2894
0001298695;-6.3853;-9.5050;-1.5227;-0.0898;-0.0137;0.2398
0001298764;-4.2306;-6.4260;-1.6233;0.1063;-0.6534;0.1600
0001298771;-3.9863;-6.9695;-1.5467;0.1236;-0.6301;0.1532
0001298784;-4.0055;-8.3366;-1.3096;0.1813;-0.5919;0.1023
0001298791;-4.3263;-9.5289;-1.2115;0.2545;-0.5552;0.0542
0001298804;-4.8937;-11.2192;-1.2905;0.4105;-0.5021;-0.0175
0001298811;-5.4731;-12.2703;-1.4485;0.5344;-0.4891;-0.0600
0001298824;-5.5617;-12.3277;-1.7430;0.7190;-0.5589;-0.1406
0001298831;-5.9209;-12.2918;-2.1165;0.7778;-0.6920;-0.2126
0001298843;-4.8483;-10.2280;-2.6528;0.8047;-0.9266;-0.3645
0001298850;-3.5745;-8.2432;-3.0454;0.7846;-1.0655;-0.4784
0001298858;-2.4373;-7.0461;-3.2322;0.7432;-1.1325;-0.5770
0001298871;-0.8284;-5.1451;-2.8802;0.5910;-1.1445;-0.6607
0001298878;-0.1197;-4.7333;-2.4397;0.4808;-1.1049;-0.6884
0001298890;1.1947;-4.9440;-2.3894;0.3403;-0.9983;-0.7067
0001298897;2.1165;-5.6336;-2.5331;0.2782;-0.8978;-0.7244
0001298910;2.8659;-7.0701;-3.1101;0.2274;-0.7498;-0.7882
0001298917;3.2082;-7.4579;-3.0358;0.2034;-0.6407;-0.8058
0001298929;3.1603;-7.6854;-2.8515;0.1300;-0.3874;-0.7671
0001298936;2.7054;-7.0749;-2.6169;0.0612;-0.1925;-0.7089
0001298949;1.3575;-6.7373;-2.2721;-0.0685;0.0035;-0.6083
0001298956;0.4501;-6.7157;-2.0997;-0.1584;0.0274;-0.5512
0001299025;-3.9911;-10.2472;-1.0295;0.3733;-0.6098;0.1576
0001299032;-3.5841;-10.1514;-0.7302;0.4315;-0.7245;0.1688
0001299040;-2.5977;-9.8067;-0.7997;0.4381;-0.7361;0.1712
0001299052;-1.5395;-9.3494;-1.4317;0.3954;-0.6662;0.1565
0001299060;-1.3695;-9.3206;-1.7526;0.3577;-0.5883;0.1532
0001299073;-1.5395;-9.2536;-1.7310;0.3300;-0.4215;0.1972
0001299080;-1.6640;-8.9064;-1.7717;0.3460;-0.3107;0.2626
0001299093;-2.6600;-8.8825;-1.5658;0.3591;-0.2188;0.3701
0001299100;-3.1460;-8.8753;-1.3479;0.3585;-0.2426;0.4170
0001299113;-3.8355;-8.8107;-1.1588;0.3307;-0.3588;0.4046
0001299120;-3.7709;-8.5569;-1.2905;0.3047;-0.4201;0.3724
0001299131;-3.7158;-8.6000;-1.0104;0.2903;-0.4501;0.2974
0001299139;-3.5291;-8.3989;-1.0223;0.2848;-0.4471;0.2566
0001299147;-4.0103;-8.8585;-1.1085;0.2741;-0.4435;0.2264
0001299160;-3.9720;-9.5409;-0.7063;0.2874;-0.4722;0.1973
0001299167;-3.9696;-9.7683;-0.4764;0.3066;-0.4756;0.1980
0001299180;-4.0175;-9.8857;-0.3807;0.3116;-0.4614;0.2280
0001299187;-4.3072;-9.7276;-0.3591;0.3218;-0.4796;0.2543
0001299200;-4.5035;-9.0932;-0.3472;0.3219;-0.5381;0.3102
0001299207;-4.7190;-8.7340;-0.3663;0.3167;-0.5778;0.3591
0001299276;-4.2449;-8.5521;0.5578;0.3339;-0.7738;0.5907
0001299283;-4.4843;-8.6646;0.5124;0.3540;-0.7915;0.6007
0001299291;-4.3239;-8.5162;0.5650;0.3812;-0.8079;0.6067
0001299304;-4.2832;-8.4060;0.6393;0.4037;-0.8423;0.6154
0001299311;-4.3311;-8.3486;0.7063;0.4052;-0.8659;0.6178
0001299324;-4.1396;-8.0565;0.8595;0.4169;-0.8665;0.6071
0001299331;-4.2449;-8.0397;1.1684;0.4041;-0.8879;0.5891
0001299344;-4.7022;-7.9248;1.3791;0.3592;-0.9170;0.5594
0001299351;-4.7214;-7.4819;1.7478;0.3476;-0.9248;0.5453
0001299364;-4.7118;-7.0581;1.9225;0.3555;-0.9233;0.5187
0001299371;-5.1164;-7.0270;1.9728;0.3483;-0.9394;0.4982
0001299379;-5.0566;-7.0749;1.7478;0.3343;-0.9619;0.4820
0001299392;-5.2529;-7.0030;2.0734;0.3392;-0.9958;0.4592
0001299399;-5.3151;-7.0054;2.1428;0.3501;-1.0312;0.4438
0001299412;-5.5665;-7.1228;2.1500;0.3651;-1.1153;0.4128
0001299419;-5.2529;-6.8139;2.0375;0.3507;-1.1623;0.3856
0001299432;-4.8554;-6.1196;2.0470;0.3047;-1.1987;0.3412
0001299439;-4.5442;-5.6790;2.1021;0.2662;-1.2027;0.2968
0001299452;-4.4341;-5.5306;2.2936;0.1960;-1.1872;0.2531
0001299459;-4.2186;-5.4109;2.3846;0.1532;-1.1754;0.2357
0001299467;-4.4341;-5.7126;2.3607;0.1171;-1.1532;0.2308
0001299480;-4.6040;-6.0789;2.5618;0.0855;-1.1606;0.2411
0001299487;-4.7333;-6.2297;2.6935;0.0722;-1.1866;0.2594
0001299556;-5.9113;-6.4021;4.3742;0.0970;-1.4356;0.4690
0001299563;-6.3279;-6.7732;4.5274;0.1139;-1.4962;0.4696
0001299576;-6.4212;-6.8690;4.9823;0.1278;-1.5984;0.4385
0001299583;-6.5410;-7.0222;5.1930;0.1208;-1.6527;0.4139
0001299595;-6.6679;-6.8929;5.2457;0.1132;-1.7479;0.3532
0001299603;-6.4572;-6.6511;5.2601;0.0946;-1.8061;0.3196
0001299611;-5.9328;-6.3925;5.1451;0.0829;-1.8979;0.2900
0001299624;-5.6072;-6.7086;5.4444;0.0773;-1.9653;0.2542
0001299631;-5.3079;-6.9216;5.4564;0.0886;-1.9957;0.2232
0001299644;-4.8914;-7.3310;5.7197;0.1162;-2.0354;0.1923
0001299651;-4.4029;-7.5753;5.5929;0.1470;-2.0595;0.1660
0001299664;-3.8618;-7.7117;5.5833;0.2146;-2.0883;0.1124
0001299671;-3.7062;-7.9296;5.5857;0.2666;-2.1104;0.0709
0001299684;-2.9521;-7.8027;5.5665;0.3385;-2.1170;0.0306
0001299691;-2.7940;-7.8506;5.5426;0.3854;-2.1166;0.0073
0001299704;-2.5426;-7.4795;5.4468;0.4422;-2.1065;-0.0217
0001299711;-2.5714;-7.3095;5.4660;0.4736;-2.1152;-0.0553
0001299719;-2.0830;-6.8953;5.4827;0.4926;-2.1332;-0.0862
0001299732;-1.8818;-6.5218;5.6527;0.4866;-2.1490;-0.1455
0001299739;-1.4581;-6.3015;5.9640;0.4663;-2.1460;-0.1793
0001299752;-0.7326;-5.9209;6.0118;0.4594;-2.1346;-0.2306
0001299759;-0.3998;-5.8012;6.0717;0.4438;-2.0797;-0.2441
0001299828;1.0630;-5.7557;6.7828;0.4062;-1.6908;-0.3508
0001299835;1.2019;-5.6814;7.0198;0.3870;-1.6297;-0.3385
0001299848;1.4557;-5.5833;7.3071;0.3516;-1.5548;-0.3301
0001299855;1.6640;-5.5713;7.3406;0.3461;-1.5055;-0.3367
0001299863;1.7789;-5.7964;7.3717;0.3373;-1.4312;-0.3423
0001299875;1.8459;-6.1603;7.5609;0.3359;-1.3422;-0.3691
0001299883;2.0470;-6.1531;7.8099;0.3256;-1.2875;-0.3990
0001299896;1.9154;-6.2991;7.9799;0.3058;-1.2019;-0.4595
0001299903;1.8244;-6.2345;7.9799;0.2971;-1.1450;-0.4874
0001299916;1.7406;-6.1459;8.0804;0.2878;-1.0752;-0.5092
0001299923;1.4964;-6.1148;8.0996;0.2927;-1.0567;-0.5203
0001299936;1.9537;-5.4803;8.0206;0.2809;-1.0583;-0.5506
0001299943;2.1069;-5.3870;7.9511;0.2654;-1.0292;-0.5728
0001299951;2.3056;-5.2146;7.6519;0.2261;-0.9951;-0.5773
0001299963;2.6312;-5.2696;7.7189;0.1422;-0.9236;-0.5967
0001299971;2.6288;-5.5186;7.8793;0.0839;-0.8468;-0.5893
0001299984;2.7174;-6.0813;8.3270;0.0321;-0.7108;-0.5757
0001299991;2.5426;-6.4667;8.4276;0.0101;-0.6328;-0.5561
0001300004;2.4493;-6.5697;8.6550;0.0161;-0.5554;-0.5233
0001300011;2.1787;-6.5170;8.4803;0.0322;-0.5307;-0.5002
0001300024;2.5498;-6.3877;8.2696;0.0833;-0.5048;-0.4908
0001300031;2.7869;-6.5410;8.4204;0.1154;-0.4679;-0.4903
0001300039;3.1508;-6.3638;8.3199;0.1436;-0.4032;-0.4863
0001300106;2.7988;-5.7820;8.7676;0.1641;-0.0330;-0.4005
0001300115;2.6839;-5.8179;8.7197;0.1458;0.0226;-0.3970
0001300128;2.8515;-5.5378;8.7077;0.1094;0.0922;-0.4226
0001300137;2.7821;-5.7509;8.7532;0.0749;0.1320;-0.4402
0001300150;2.5714;-5.8586;8.6981;0.0336;0.1757;-0.4772
0001300159;2.3990;-6.0813;8.7029;0.0113;0.2356;-0.4891
0001300172;2.1117;-6.2944;8.6622;0.0161;0.2843;-0.4824
0001300181;2.0853;-6.3351;8.5832;0.0321;0.3086;-0.4743
0001300190;1.8172;-6.5481;8.4467;0.0352;0.3348;-0.4461
0001300203;1.9800;-6.6750;8.2935;0.0425;0.3455;-0.4355
0001300212;1.9058;-6.8618;8.2552;0.0438;0.3465;-0.4387
0001300225;2.5762;-6.5984;8.0972;0.0296;0.4080;-0.4478
0001300234;2.6576;-6.5912;8.0182;0.0330;0.4526;-0.4543
0001300247;2.5953;-6.3566;7.8506;0.0238;0.5352;-0.4535
0001300256;2.2865;-6.4955;7.7021;0.0253;0.5793;-0.4481
0001300265;2.2266;-6.5386;7.5417;0.0277;0.6126;-0.4231
0001300278;1.9776;-6.7900;7.7716;0.0370;0.6391;-0.4076
0001300287;1.9609;-6.7277;7.7141;0.0388;0.6702;-0.3882
0001300300;1.9704;-6.7469;7.6543;0.0626;0.7092;-0.3716
0001300309;1.8651;-6.9168;7.4244;0.0686;0.7518;-0.3469
0001300322;1.6951;-7.2089;7.4244;0.0805;0.7989;-0.3244
0001300331;1.6879;-7.1826;7.0916;0.0958;0.8295;-0.3214
0001300400;1.3096;-5.9233;6.2728;-0.0560;1.0367;-0.3116
0001300409;1.2617;-6.0071;6.2130;-0.0953;1.0729;-0.3216
0001300418;1.2282;-6.2034;6.3375;-0.1418;1.1084;-0.3372
0001300431;1.3599;-6.4093;6.3853;-0.1764;1.1822;-0.3696
0001300440;1.0367;-6.8666;6.3279;-0.1821;1.2534;-0.3744
0001300453;0.6871;-7.4651;5.8586;-0.1475;1.3398;-0.3481
0001300462;0.2059;-7.7285;5.8658;-0.1043;1.3732;-0.3134
0001300475;-0.0527;-7.9895;5.8131;-0.0484;1.3916;-0.2741
0001300484;-0.3567;-8.1235;5.7245;0.0055;1.3879;-0.2529
0001300497;-0.6943;-8.2361;5.4636;0.0718;1.3771;-0.2224
0001300506;-0.7326;-8.2408;5.2672;0.1246;1.3628;-0.2038
0001300515;-0.9026;-8.1690;5.0566;0.1845;1.3388;-0.1912
0001300528;-0.8547;-8.1403;4.8411;0.2631;1.2959;-0.1539
0001300537;-0.7135;-7.8482;5.0111;0.3202;1.2580;-0.1259
0001300553;-0.6393;-7.7285;4.9608;0.3822;1.2263;-0.0461
0001300562;-0.5195;-7.6662;4.9440;0.3976;1.2368;-0.0152
0001300575;-0.6584;-7.4412;4.8626;0.3966;1.2324;0.0141
0001300584;-0.7973;-7.3167;4.6711;0.3964;1.2351;0.0408
0001300596;-0.8906;-6.9671;4.3551;0.4238;1.2215;0.0757
0001300605;-0.8212;-6.4380;4.2066;0.4506;1.2087;0.1083
0001300614;-0.8763;-6.5003;4.0079;0.4756;1.1755;0.1302
0001300683;-1.7406;-6.0717;4.0773;0.5894;1.1942;0.1600
0001300692;-1.8627;-5.7006;4.1204;0.5581;1.2077;0.1685
0001300704;-2.1668;-5.4061;4.2186;0.5027;1.1956;0.1676
0001300713;-2.0710;-5.0685;3.9385;0.4545;1.1831;0.1572
0001300726;-2.5426;-5.2912;3.8595;0.3671;1.1666;0.1463
0001300735;-2.7701;-5.2744;3.8858;0.3026;1.1358;0.1424
0001300744;-2.7342;-5.0398;4.0103;0.2523;1.0928;0.1458
0001300756;-3.1053;-5.2601;3.9983;0.1956;1.0652;0.1837
0001300765;-3.3806;-5.4444;3.9097;0.1659;1.0621;0.2137
0001300778;-3.6416;-5.6336;4.0773;0.1528;1.0261;0.2381
0001300787;-3.4740;-5.8897;3.9456;0.1588;0.9859;0.2394
0001300799;-3.3255;-5.9448;3.6943;0.1745;0.9602;0.2254
0001300808;-3.1987;-5.8155;3.6847;0.1705;0.9491;0.2081
0001300821;-2.7031;-5.7150;3.3758;0.1484;0.9581;0.1657
0001300830;-2.6001;-5.6671;3.1627;0.1387;0.9907;0.1463
0001300839;-2.7461;-5.9017;3.1101;0.1238;1.0284;0.1452
0001300851;-2.9568;-5.5593;2.8467;0.1122;1.0762;0.1459
0001300860;-3.1220;-5.3941;2.9353;0.0959;1.0977;0.1524
0001300873;-3.6152;-5.1332;2.6097;0.0498;1.0712;0.1452
0001300882;-3.8523;-4.9297;2.5714;-0.0021;1.0325;0.1363
0001300894;-3.8188;-5.1667;2.4205;-0.0742;0.9585;0.1199
0001300903;-3.9863;-5.3032;2.3104;-0.1216;0.8945;0.1175
0001300972;-3.1556;-5.2098;2.2913;-0.4612;0.6991;0.4321
0001300981;-3.3208;-5.1954;2.2482;-0.4679;0.6985;0.4483
0001300990;-3.2106;-5.3558;2.1141;-0.4620;0.6807;0.4407
0001301002;-3.2202;-5.5138;1.9513;-0.4735;0.6662;0.4082
0001301011;-3.1436;-5.6671;1.7837;-0.4742;0.6544;0.3822
0001301024;-3.1220;-5.6120;1.8148;-0.4586;0.6193;0.3748
0001301033;-3.3040;-5.2361;2.0255;-0.4644;0.5953;0.3838
0001301045;-3.3279;-4.9177;2.1045;-0.4902;0.5297;0.3972
0001301054;-3.4477;-4.9153;1.9752;-0.5117;0.4851;0.3936
0001301067;-3.1077;-4.4484;1.9082;-0.5750;0.4261;0.3737
0001301076;-3.0789;-4.4365;1.7741;-0.6215;0.4052;0.3552
0001301085;-2.8395;-4.3910;1.7478;-0.6682;0.3964;0.3512
0001301097;-2.8156;-4.4580;1.9776;-0.7264;0.4050;0.3476
0001301106;-2.9377;-4.7740;1.8555;-0.7402;0.4025;0.3264
0001301119;-2.8970;-4.8914;1.5945;-0.7405;0.4900;0.2876
0001301128;-2.7102;-4.9656;1.3862;-0.7410;0.5710;0.2550
0001301140;-3.1484;-5.4037;1.3599;-0.7083;0.6512;0.1839
0001301149;-3.2681;-5.6886;1.2905;-0.6682;0.6824;0.1268
0001301162;-3.3184;-5.8754;0.9266;-0.5806;0.7349;0.0484
0001301171;-3.1939;-5.8921;0.8428;-0.5200;0.7589;-0.0141
0001301180;-3.4716;-6.0071;0.7159;-0.4550;0.7819;-0.0630
0001301192;-3.6559;-5.6192;0.5483;-0.4008;0.7734;-0.1063
0001301201;-3.7014;-5.4324;0.5794;-0.3772;0.7318;-0.1308
0001301270;-3.8451;-5.0159;0.2107;-0.4227;0.4811;-0.0640
0001301279;-3.7613;-4.8578;0.2203;-0.4166;0.4405;-0.0763
0001301291;-3.8618;-4.8459;0.2011;-0.4229;0.3909;-0.0917
0001301300;-3.6272;-4.8698;0.3017;-0.4210;0.3612;-0.1001
0001301313;-3.4285;-4.7405;0.3352;-0.4337;0.3460;-0.1223
0001301322;-3.4093;-4.9033;0.4429;-0.4415;0.3475;-0.1314
0001301334;-3.4548;-4.7740;0.5243;-0.4531;0.3768;-0.1423
0001301343;-3.5243;-4.8123;0.6057;-0.4519;0.3984;-0.1428
0001301352;-3.7996;-4.6519;0.5411;-0.4616;0.4025;-0.1455
0001301365;-3.7828;-4.8100;0.5435;-0.4815;0.3989;-0.1431
0001301374;-3.9385;-4.7429;0.4453;-0.4924;0.4005;-0.1511
0001301386;-3.9911;-5.0685;0.4908;-0.5101;0.3712;-0.1585
0001301395;-3.9840;-5.2792;0.4908;-0.5213;0.3477;-0.1619
0001301408;-4.2162;-5.5905;0.5650;-0.5188;0.2923;-0.1528
0001301417;-4.0893;-5.5833;0.6847;-0.5021;0.2482;-0.1332
0001301429;-3.9409;-5.6790;0.8164;-0.4883;0.2381;-0.0849
0001301438;-3.5793;-5.7126;0.5746;-0.4703;0.2338;-0.0525
0001301447;-3.3351;-5.8323;0.5124;-0.4402;0.2417;-0.0228
0001301460;-3.3998;-6.1986;0.4717;-0.3826;0.2402;0.0052
0001301469;-3.1436;-6.1842;0.3328;-0.3360;0.2256;0.0077
0001301481;-3.3854;-6.3207;0.4381;-0.2626;0.2020;-0.0024
0001301490;-3.4979;-6.4883;0.4334;-0.2154;0.1996;-0.0128
0001301560;-4.4269;-6.3039;0.1748;-0.1595;0.2827;0.0112
0001301569;-4.1084;-6.0932;0.1580;-0.1653;0.2561;0.0244
0001301581;-4.1396;-6.0861;0.1365;-0.1783;0.2178;0.0481
0001301590;-4.0965;-6.0286;0.2753;-0.1837;0.1843;0.0549
0001301603;-3.7757;-5.7748;0.4166;-0.1887;0.1315;0.0441
0001301612;-3.7589;-5.7724;0.5411;-0.1831;0.1287;0.0340
0001301621;-3.5985;-5.9017;0.5315;-0.1809;0.1167;0.0183
0001301633;-3.6512;-6.1124;0.5363;-0.1576;0.1098;-0.0179
0001301642;-3.5482;-6.1699;0.4860;-0.1419;0.1047;-0.0358
0001301655;-3.5626;-6.3566;0.3280;-0.1152;0.0871;-0.0698
0001301664;-3.5865;-6.2800;0.2753;-0.0982;0.0713;-0.0958
0001301676;-3.9169;-6.2872;0.1724;-0.0917;0.0544;-0.1058
0001301685;-4.1492;-6.1914;0.1245;-0.0911;0.0440;-0.1055
0001301698;-3.9097;-5.9089;-0.0551;-0.1087;0.0442;-0.0945
0001301707;-4.0606;-5.8610;-0.1413;-0.1304;0.0424;-0.0787
0001301719;-4.2521;-5.9687;-0.2083;-0.1621;0.0318;-0.0811
0001301728;-4.3167;-5.9640;-0.2346;-0.1836;0.0052;-0.0769
0001301737;-4.0486;-5.9855;-0.2801;-0.2072;-0.0188;-0.0726
0001301750;-4.0606;-6.0406;-0.0599;-0.2281;-0.0625;-0.0698
0001301759;-4.0270;-6.1962;-0.0215;-0.2270;-0.0967;-0.0608
0001301771;-3.6655;-6.0908;-0.0862;-0.2149;-0.1231;-0.0490
0001301780;-3.8020;-6.0693;-0.0886;-0.2041;-0.1178;-0.0436
0001301849;-3.6488;-5.9568;-0.3615;-0.2569;-0.1267;-0.0838
0001301858;-3.6248;-6.0358;-0.4190;-0.2677;-0.1055;-0.0640
0001301870;-3.5554;-6.1555;-0.4621;-0.2613;-0.0833;-0.0344
0001301879;-3.6895;-6.1986;-0.4405;-0.2479;-0.0814;-0.0292
0001301892;-3.8762;-6.2417;-0.4334;-0.2389;-0.0926;-0.0100
0001301901;-3.8164;-6.3111;-0.4310;-0.2301;-0.0899;0.0008
0001301913;-3.7565;-6.1962;-0.2897;-0.2161;-0.0902;0.0147
0001301922;-3.9361;-6.2752;-0.3400;-0.2038;-0.0946;0.0201
0001301931;-3.6847;-6.1244;-0.1772;-0.1949;-0.1065;0.0240
0001301944;-3.7757;-6.1459;-0.1556;-0.1955;-0.1248;0.0165
0001301953;-3.6655;-6.0334;-0.0479;-0.2060;-0.1267;0.0197
0001301965;-3.5985;-5.9185;-0.0096;-0.2169;-0.1407;0.0129
0001301974;-3.5889;-5.9233;-0.0431;-0.2301;-0.1316;0.0183
0001301987;-3.5626;-5.9616;-0.0694;-0.2365;-0.1204;0.0169
0001301996;-3.6607;-5.8921;-0.1700;-0.2465;-0.1114;0.0165
0001302007;-3.8188;-5.5713;-0.2921;-0.2643;-0.1029;0.0205
0001302016;-3.9696;-5.6192;-0.1891;-0.2698;-0.1222;0.0111
0001302030;-4.0677;-5.5952;-0.2274;-0.3107;-0.1427;-0.0075
0001302039;-3.8523;-5.6264;-0.1437;-0.3369;-0.1395;-0.0173
0001302108;-3.8930;-5.9448;-0.3232;-0.4074;-0.1021;-0.0151
0001302117;-3.9624;-5.9520;-0.1508;-0.4088;-0.1135;-0.0147
0001302129;-3.6392;-5.7317;-0.1724;-0.4329;-0.1227;-0.0101
0001302138;-3.7924;-5.7652;-0.1724;-0.4438;-0.1292;-0.0176
0001302147;-3.8954;-5.6599;-0.1365;-0.4551;-0.1390;-0.0268
0001302160;-3.8164;-5.8059;-0.1053;-0.4682;-0.1338;-0.0329
0001302169;-3.8762;-5.8251;-0.0239;-0.4703;-0.1339;-0.0430
0001302181;-3.7948;-6.0071;-0.0144;-0.4707;-0.1346;-0.0453
0001302190;-3.7086;-6.1627;-0.1030;-0.4668;-0.1350;-0.0417
0001302203;-3.7757;-6.2249;0.0192;-0.4490;-0.1364;-0.0380
0001302212;-3.7589;-6.3303;0.0000;-0.4274;-0.1431;-0.0406
0001302224;-3.7541;-6.4165;-0.0215;-0.4096;-0.1545;-0.0348
0001302233;-3.6943;-6.4093;-0.0718;-0.3809;-0.1528;-0.0405
0001302246;-3.8427;-6.4189;0.0000;-0.3524;-0.1455;-0.0454
0001302255;-3.7589;-6.4739;0.0646;-0.3456;-0.1398;-0.0409
0001302267;-3.5913;-6.2680;0.0599;-0.3167;-0.1208;-0.0432
0001302276;-3.4429;-6.1962;0.0958;-0.3012;-0.1175;-0.0481
0001302289;-3.5267;-6.1220;0.0599;-0.2867;-0.0925;-0.0410
0001302298;-3.6559;-6.2177;0.0479;-0.2762;-0.0963;-0.0420
0001302307;-3.7062;-6.2680;0.0168;-0.2713;-0.0894;-0.0382
0001302319;-3.8211;-6.2824;-0.0575;-0.2717;-0.0963;-0.0400
0001302328;-3.5386;-6.1339;-0.0096;-0.2643;-0.0969;-0.0404
0001302398;-3.8235;-6.4979;0.1053;-0.1422;-0.0509;-0.0119
0001302407;-3.5362;-6.2800;0.1053;-0.1152;-0.0477;-0.0191
0001302419;-3.5674;-6.3446;0.1580;-0.0937;-0.0356;-0.0151
0001302428;-3.6272;-6.2489;0.1652;-0.0743;-0.0300;-0.0169
0001302441;-3.7350;-6.2153;0.1867;-0.0679;-0.0284;-0.0172
0001302450;-3.5698;-6.0885;0.1437;-0.0601;-0.0404;-0.0169
0001302462;-3.6607;-6.1699;0.0048;-0.0478;-0.0376;-0.0060
0001302471;-3.7565;-6.4572;0.0718;-0.0350;-0.0400;-0.0047
0001302484;-3.6751;-6.2968;0.1030;-0.0180;-0.0326;-0.0049
0001302493;-3.5362;-6.2441;0.1030;-0.0115;-0.0205;0.0055
0001302502;-3.5721;-6.2800;0.0192;-0.0020;-0.0067;0.0000
0001302514;-3.5698;-6.2225;0.0383;0.0063;0.0123;0.0081
0001302523;-3.8523;-6.1579;0.0120;0.0159;0.0201;0.0069
0001302536;-3.8307;-6.0621;0.0814;0.0144;0.0207;0.0125
0001302545;-3.8666;-6.0525;-0.0383;0.0121;0.0216;0.0153
0001302557;-4.0677;-6.0023;0.0670;0.0159;0.0125;0.0140
0001302566;-3.9648;-6.1339;0.0766;0.0133;-0.0059;0.0165
0001302579;-4.0318;-6.3805;0.0982;0.0216;-0.0119;0.0056
0001302588;-3.8714;-6.2369;0.1173;0.0185;-0.0128;0.0035
0001302597;-3.8451;-6.3470;0.0287;0.0284;-0.0112;0.0056
0001302609;-3.6440;-6.2058;0.1460;0.0408;-0.0093;-0.0023
0001302618;-3.7326;-6.1842;0.0862;0.0538;-0.0077;-0.0096
0001302688;-3.8738;-5.9496;0.1077;0.0514;-0.0019;-0.0253
0001302697;-3.6990;-5.9616;0.1652;0.0497;-0.0019;-0.0289
0001302709;-3.9792;-5.9496;0.1460;0.0413;-0.0033;-0.0337
0001302718;-3.7445;-5.9568;0.0982;0.0272;0.0084;-0.0226
0001302731;-3.8523;-5.9711;0.0910;0.0199;0.0084;-0.0187
0001302740;-3.8834;-5.9352;-0.0670;0.0181;-0.0117;-0.0212
0001302749;-3.7709;-5.8323;0.0742;0.0017;-0.0097;-0.0157
0001302761;-3.7421;-5.9209;-0.0766;-0.0016;-0.0181;-0.0224
0001302770;-3.7948;-5.9616;-0.0144;0.0003;-0.0294;-0.0261
0001302783;-3.9169;-6.1675;0.0862;-0.0083;-0.0252;-0.0199
0001302792;-3.8451;-6.1172;0.1149;-0.0143;-0.0272;-0.0167
0001302804;-3.6392;-5.9400;0.2035;-0.0222;-0.0137;-0.0048
0001302813;-3.5769;-5.9520;0.2682;-0.0236;-0.0140;-0.0080
0001302826;-3.6416;-6.0047;0.1484;-0.0213;-0.0004;-0.0217
0001302835;-3.6679;-5.9783;0.1628;-0.0264;-0.0043;-0.0171
0001302847;-3.9528;-6.1004;0.1365;-0.0250;-0.0179;-0.0159
0001302856;-3.7852;-5.9687;0.0718;-0.0221;-0.0220;-0.0205
0001302869;-3.7469;-6.0310;0.0120;-0.0172;-0.0372;-0.0184
0001302878;-3.5554;-5.9687;0.1197;-0.0096;-0.0493;-0.0236
0001302887;-3.9433;-6.0789;0.1101;-0.0157;-0.0408;-0.0209
0001302899;-3.9648;-6.1148;0.0359;-0.0051;-0.0556;-0.0273
0001302908;-4.0031;-6.2249;0.1413;-0.0101;-0.0462;-0.0191
0001302978;-3.7326;-6.0310;0.0383;-0.0049;-0.0593;-0.0175
0001302987;-3.8355;-5.9568;0.0742;-0.0100;-0.0632;-0.0121
0001302999;-3.8978;-6.1292;0.0192;-0.0080;-0.0747;-0.0113
0001303008;-3.7948;-6.1459;0.1149;-0.0003;-0.0842;-0.0221
0001303021;-3.6679;-6.0454;0.1077;0.0063;-0.0757;-0.0211
0001303030;-3.6200;-5.9352;0.2346;0.0121;-0.0675;-0.0226
0001303042;-3.5913;-5.9496;0.2083;0.0181;-0.0645;-0.0181
0001303051;-3.5099;-5.8035;0.1748;0.0232;-0.0811;-0.0173
0001303064;-3.8188;-6.2034;0.2035;0.0288;-0.0626;-0.0185
0001303073;-3.8451;-6.2082;0.1508;0.0309;-0.0593;-0.0185
0001303082;-3.9911;-6.2417;0.1030;0.0401;-0.0689;-0.0228
0001303094;-3.8259;-6.0071;0.0359;0.0396;-0.0735;-0.0289
0001303103;-3.8571;-6.0621;0.0359;0.0409;-0.0819;-0.0296
0001303116;-3.7086;-6.0310;0.1389;0.0465;-0.0929;-0.0362
0001303125;-3.8235;-6.1220;0.1030;0.0513;-0.0995;-0.0370
0001303137;-3.6512;-6.0142;0.0958;0.0573;-0.0911;-0.0293
0001303146;-3.8259;-6.1028;0.0742;0.0569;-0.0863;-0.0173
0001303159;-3.9361;-6.1435;0.0670;0.0667;-0.0863;-0.0136
0001303168;-3.9672;-6.0765;-0.0479;0.0689;-0.0762;-0.0151
0001303177;-3.7852;-6.0047;-0.0910;0.0757;-0.0883;-0.0321
0001303189;-3.8259;-6.0430;-0.1030;0.0738;-0.0978;-0.0374
0001303198;-3.8547;-6.0837;-0.0120;0.0823;-0.1148;-0.0296
0001303268;-3.4189;-5.8921;0.4166;0.1184;-0.1179;-0.0103
0001303277;-3.5195;-5.8634;0.4214;0.1224;-0.1194;-0.0173
0001303289;-3.6129;-5.9544;0.3998;0.1139;-0.1031;-0.0181
0001303298;-3.6272;-5.9592;0.3711;0.1005;-0.0906;-0.0140
0001303311;-3.7397;-5.7748;0.4980;0.0902;-0.0961;-0.0101
0001303320;-3.6847;-5.7964;0.3855;0.0789;-0.1051;-0.0095
0001303332;-3.8738;-5.8754;0.4142;0.0592;-0.0999;-0.0016
0001303341;-3.9073;-5.9640;0.3950;0.0513;-0.1050;-0.0048
0001303354;-3.5410;-5.8179;0.3567;0.0386;-0.1009;-0.0079
0001303363;-3.6703;-5.8610;0.4070;0.0301;-0.1017;-0.0003
0001303372;-3.7302;-5.8203;0.3472;0.0228;-0.1051;-0.0037
0001303384;-3.8738;-5.8227;0.3759;0.0217;-0.1164;-0.0051
0001303393;-3.9025;-5.9999;0.4334;0.0157;-0.1126;0.0013
0001303406;-3.6536;-5.8778;0.5602;0.0149;-0.1210;-0.0060
0001303415;-3.5626;-5.6910;0.5363;0.0157;-0.1006;0.0037
0001303427;-3.5003;-5.8371;0.5507;0.0176;-0.0855;-0.0013
0001303436;-3.6224;-5.9951;0.4741;0.0260;-0.0727;-0.0041
0001303450;-3.4069;-5.8299;0.5555;0.0278;-0.0600;-0.0087
0001303459;-3.6416;-5.9304;0.5722;0.0346;-0.0525;-0.0140
0001303468;-3.6057;-6.0573;0.5507;0.0388;-0.0512;-0.0121
0001303481;-3.6416;-5.9927;0.5100;0.0465;-0.0484;-0.0115
0001303490;-3.6847;-5.9328;0.5938;0.0417;-0.0356;-0.0012
0001303560;-3.4979;-5.8897;0.5626;0.0706;-0.0322;0.0003
0001303569;-3.5602;-5.6599;0.6369;0.0734;-0.0334;-0.0053
0001303582;-3.7373;-5.7461;0.5291;0.0699;-0.0278;-0.0093
0001303591;-3.5482;-5.7413;0.4669;0.0645;-0.0195;-0.0068
0001303603;-3.7469;-5.8921;0.4214;0.0574;-0.0262;-0.0048
0001303612;-3.8140;-5.8682;0.4405;0.0528;-0.0353;-0.0056
0001303625;-3.7517;-5.9328;0.4621;0.0470;-0.0416;-0.0073
0001303634;-3.7565;-5.9089;0.4310;0.0501;-0.0400;-0.0119
0001303643;-3.5099;-5.6288;0.3855;0.0348;-0.0410;-0.0071
0001303655;-3.7302;-5.7006;0.3615;0.0357;-0.0326;-0.0075
0001303664;-3.8355;-5.5976;0.2897;0.0241;-0.0405;-0.0064
0001303677;-4.0175;-5.7796;0.3472;0.0201;-0.0678;-0.0087
0001303686;-3.9289;-5.9185;0.4118;0.0197;-0.0825;-0.0093
0001303698;-3.7254;-5.8658;0.3711;0.0254;-0.0919;-0.0171
0001303707;-3.5123;-5.8155;0.4453;0.0302;-0.0873;-0.0207
0001303720;-3.5267;-5.9831;0.4094;0.0488;-0.0798;-0.0297
0001303729;-3.5027;-5.8849;0.3711;0.0508;-0.0624;-0.0265
0001303741;-3.7757;-5.9711;0.4142;0.0628;-0.0604;-0.0281
0001303750;-3.8116;-5.9640;0.4549;0.0686;-0.0645;-0.0354
0001303759;-3.7326;-5.7724;0.4286;0.0697;-0.0750;-0.0314
0001303772;-3.8283;-5.8490;0.3591;0.0705;-0.0887;-0.0321
0001303781;-3.6943;-5.7389;0.5124;0.0671;-0.0914;-0.0348
0001303851;-3.8164;-6.0071;0.5028;0.0713;-0.0480;-0.0281
0001303860;-3.8714;-5.9472;0.5052;0.0593;-0.0538;-0.0314
0001303873;-3.6152;-5.7916;0.5315;0.0520;-0.0525;-0.0294
0001303882;-3.6033;-5.7988;0.4405;0.0346;-0.0396;-0.0242
0001303894;-3.5338;-5.6599;0.5004;0.0254;-0.0369;-0.0193
0001303903;-3.6583;-5.9759;0.4118;0.0296;-0.0381;-0.0160
0001303916;-3.6559;-5.8682;0.4621;0.0312;-0.0473;-0.0101
0001303925;-3.7828;-5.8658;0.4238;0.0213;-0.0528;-0.0063
0001303934;-3.7613;-6.0669;0.4836;0.0177;-0.0577;-0.0081
0001303946;-3.7781;-5.8442;0.3687;0.0229;-0.0588;-0.0189
0001303955;-3.7685;-5.8275;0.5076;0.0228;-0.0642;-0.0197
0001303968;-3.8259;-5.9209;0.4597;0.0205;-0.0703;-0.0254
0001303977;-3.8858;-5.8395;0.5028;0.0156;-0.0750;-0.0304
0001303989;-3.9313;-5.9256;0.6225;0.0048;-0.0802;-0.0284
0001303998;-3.6583;-5.8347;0.5866;0.0108;-0.0886;-0.0356
0001304011;-3.6105;-5.8634;0.5866;0.0105;-0.0854;-0.0320
0001304020;-3.6536;-5.8323;0.5483;-0.0013;-0.0734;-0.0248
0001304032;-3.4836;-5.7245;0.5770;-0.0100;-0.0746;-0.0246
0001304041;-3.7469;-5.9113;0.6249;-0.0124;-0.0674;-0.0254
0001304050;-3.7469;-5.6838;0.6009;-0.0108;-0.0678;-0.0357
0001304063;-3.8211;-5.8921;0.6297;-0.0218;-0.0620;-0.0373
0001304072;-3.6559;-5.7700;0.6440;-0.0234;-0.0560;-0.0364
0001304142;-3.6176;-5.8251;0.5962;-0.0179;-0.0858;-0.0328
0001304151;-3.5698;-5.9065;0.6033;-0.0205;-0.0774;-0.0233
0001304164;-3.4716;-5.8131;0.6823;-0.0116;-0.0738;-0.0143
0001304173;-3.5314;-5.9041;0.6680;0.0001;-0.0741;-0.0213
0001304185;-3.4740;-5.7844;0.6153;-0.0023;-0.0652;-0.0184
0001304194;-3.7661;-5.8658;0.5674;-0.0008;-0.0593;-0.0184
0001304207;-3.7972;-5.9448;0.4908;0.0016;-0.0691;-0.0200
0001304216;-3.7326;-5.8754;0.3926;0.0041;-0.0746;-0.0205
0001304225;-3.7589;-5.8538;0.4884;-0.0001;-0.0753;-0.0081
0001304237;-3.6990;-5.8730;0.4214;0.0032;-0.0834;-0.0101
0001304246;-3.6583;-5.8203;0.4956;0.0103;-0.0942;-0.0149
0001304259;-3.6488;-5.8658;0.5435;0.0095;-0.0951;-0.0189
0001304268;-3.5602;-5.8921;0.6800;0.0080;-0.0827;-0.0127
0001304280;-3.6583;-5.8419;0.6584;0.0087;-0.0813;-0.0097
0001304287;-3.6871;-5.9185;0.6129;0.0043;-0.0759;-0.0057
0001304300;-3.7038;-5.8179;0.5722;0.0068;-0.0751;-0.0108
0001304307;-3.7852;-5.8634;0.5507;-0.0043;-0.0710;-0.0091
0001304319;-3.8116;-5.8227;0.6081;-0.0052;-0.0878;-0.0144
0001304326;-3.9073;-5.8802;0.5243;-0.0052;-0.0975;-0.0175
