time;acc_x;acc_y;acc_z;gyro_x;gyro_y;gyro_z
0000726542;6.6032;-14.2599;6.0047;-0.0123;-0.0226;-0.0179
0000726551;6.6870;-14.0899;6.0118;-0.0233;-0.0316;-0.0217
0000726558;6.5984;-14.1928;5.9831;-0.0342;-0.0365;-0.0218
0000726566;6.5960;-14.1713;6.0310;-0.0394;-0.0400;-0.0230
0000726574;6.5697;-13.9726;6.0478;-0.0350;-0.0509;-0.0282
0000726582;6.5888;-14.0635;6.0310;-0.0298;-0.0560;-0.0229
0000726590;6.6248;-14.0085;6.0454;-0.0318;-0.0517;-0.0171
0000726598;6.8546;-13.8241;5.9041;-0.0221;-0.0618;-0.0164
0000726606;6.4332;-14.1785;6.0142;-0.0293;-0.0610;-0.0091
0000726614;6.6631;-13.9031;6.0190;-0.0332;-0.0624;-0.0072
0000726622;6.4596;-13.9678;5.9496;-0.0345;-0.0719;-0.0091
0000726630;6.6439;-14.0085;6.0023;-0.0348;-0.0729;-0.0101
0000726638;6.6152;-13.9199;6.0406;-0.0372;-0.0761;-0.0104
0000726646;6.6200;-13.8959;6.0669;-0.0406;-0.0721;-0.0100
0000726654;6.6128;-13.9223;6.0765;-0.0314;-0.0778;-0.0080
0000726662;6.6846;-13.7236;6.0023;-0.0187;-0.0815;-0.0160
0000726670;6.4955;-13.9319;5.9520;-0.0173;-0.0711;-0.0092
0000726678;6.5673;-13.7906;6.0693;-0.0119;-0.0690;-0.0123
0000726686;6.2896;-13.9965;5.9879;-0.0040;-0.0609;-0.0097
0000726694;6.5649;-13.8936;6.0382;0.0025;-0.0673;-0.0129
0000726702;6.3375;-14.0540;6.0166;0.0009;-0.0588;-0.0125
0000726710;6.5050;-14.0683;5.9711;-0.0059;-0.0542;-0.0137
0000726718;6.4404;-14.0851;6.0286;-0.0152;-0.0462;-0.0144
0000726726;6.5266;-13.9869;5.9137;-0.0147;-0.0502;-0.0221
0000726734;6.4572;-14.0348;5.9352;-0.0296;-0.0396;-0.0199
0000726742;6.4979;-14.0061;5.8873;-0.0285;-0.0432;-0.0262
0000726750;6.3422;-13.9151;5.7700;-0.0324;-0.0344;-0.0244
0000726758;6.6343;-13.8217;5.7461;-0.0218;-0.0368;-0.0346
0000726766;6.5721;-13.9151;5.7437;-0.0103;-0.0358;-0.0306
0000726774;6.6176;-13.8074;5.7078;-0.0015;-0.0276;-0.0313
0000726782;6.4739;-13.9510;5.7509;0.0143;-0.0293;-0.0354
0000726790;6.4308;-14.0157;5.7413;0.0309;-0.0317;-0.0324
0000726798;6.3997;-14.1928;5.7604;0.0370;-0.0215;-0.0284
0000726806;6.4452;-14.2263;5.7700;0.0385;-0.0180;-0.0325
0000726814;6.5027;-14.2407;5.8323;0.0317;-0.0211;-0.0338
0000726822;6.6439;-14.2503;5.7868;0.0167;-0.0195;-0.0358
0000726830;6.6750;-14.3173;5.9041;-0.0032;-0.0193;-0.0350
0000726838;6.5481;-14.5783;5.8634;-0.0312;-0.0203;-0.0402
0000726846;6.5529;-14.3892;5.9592;-0.0610;-0.0183;-0.0422
0000726854;6.6200;-14.2742;5.9855;-0.0767;-0.0240;-0.0454
0000726862;6.5697;-14.2934;5.9903;-0.1001;-0.0217;-0.0438
0000726870;6.6870;-14.0204;5.9017;-0.1099;-0.0148;-0.0428
0000726878;6.4931;-13.9343;5.8826;-0.1062;-0.0203;-0.0501
0000726886;6.4332;-14.0037;5.8371;-0.0865;-0.0204;-0.0456
0000726894;6.6200;-13.7834;5.8419;-0.0759;-0.0140;-0.0324
0000726902;6.6439;-13.6158;5.8634;-0.0452;-0.0177;-0.0370
0000726910;6.7133;-13.7331;5.9161;-0.0257;-0.0143;-0.0284
0000726918;6.7445;-13.5512;5.9017;-0.0037;-0.0164;-0.0277
0000726926;6.6415;-13.8217;5.9975;0.0116;-0.0215;-0.0246
0000726934;6.6631;-13.7475;6.0190;0.0129;-0.0250;-0.0306
0000726942;6.6750;-13.9941;6.1507;0.0091;-0.0292;-0.0268
0000726950;6.5960;-14.0420;6.1483;0.0085;-0.0408;-0.0310
0000726958;6.6200;-14.0492;6.1723;-0.0059;-0.0373;-0.0288
0000726966;6.5074;-14.0995;6.1316;-0.0187;-0.0370;-0.0344
0000726974;6.4955;-14.1497;6.1627;-0.0293;-0.0332;-0.0270
0000726982;6.6200;-13.9558;6.1411;-0.0405;-0.0322;-0.0268
0000726990;6.5194;-13.9773;6.0382;-0.0382;-0.0304;-0.0212
0000726998;6.7133;-14.1234;6.0047;-0.0452;-0.0224;-0.0155
0000727006;6.7229;-13.8217;5.9879;-0.0342;-0.0268;-0.0144
0000727014;6.7924;-13.9438;5.8562;-0.0342;-0.0222;-0.0112
0000727022;6.6607;-13.9175;5.8754;-0.0330;-0.0261;-0.0089
0000727030;6.8163;-13.8888;5.8371;-0.0254;-0.0321;-0.0172
0000727038;6.6990;-13.9654;5.8538;-0.0225;-0.0362;-0.0164
0000727046;6.5434;-14.1449;5.8754;-0.0292;-0.0293;-0.0119
0000727054;6.4859;-14.0995;5.9687;-0.0346;-0.0340;-0.0136
0000727062;6.5625;-14.1833;5.8682;-0.0329;-0.0402;-0.0301
0000727070;6.3375;-14.1809;5.9400;-0.0402;-0.0362;-0.0191
0000727078;6.6846;-14.0803;5.8371;-0.0410;-0.0356;-0.0234
0000727086;6.4859;-14.0899;5.7389;-0.0478;-0.0294;-0.0200
0000727113;6.5362;-13.9630;5.8059;-0.0318;-0.0220;-0.0184
0000727121;6.7157;-13.9726;5.8203;-0.0218;-0.0204;-0.0201
0000727129;6.5314;-14.0324;5.8203;-0.0221;-0.0136;-0.0153
0000727137;6.5266;-13.9750;5.8921;-0.0184;-0.0171;-0.0195
0000727145;6.5505;-14.0971;5.8921;-0.0111;-0.0175;-0.0228
0000727153;6.6104;-14.1282;5.9304;-0.0091;-0.0175;-0.0270
0000727161;6.5314;-14.2790;5.9017;-0.0099;-0.0143;-0.0265
0000727169;6.7109;-14.1593;5.9496;-0.0133;-0.0172;-0.0277
0000727177;6.6439;-14.1282;5.8706;-0.0152;-0.0220;-0.0317
0000727185;6.5649;-14.1665;5.8730;-0.0254;-0.0160;-0.0228
0000727193;6.6583;-14.1617;5.8849;-0.0357;-0.0145;-0.0277
0000727201;6.6631;-14.1449;5.8945;-0.0430;-0.0137;-0.0262
0000727209;6.6415;-14.1090;5.9304;-0.0450;-0.0127;-0.0274
0000727217;6.5362;-14.1234;6.1076;-0.0470;-0.0012;-0.0246
0000727225;6.4356;-14.1018;6.1028;-0.0574;-0.0033;-0.0177
0000727233;6.6870;-13.8816;6.0693;-0.0464;-0.0032;-0.0208
0000727241;6.6702;-13.8792;6.0789;-0.0384;0.0009;-0.0108
0000727249;6.5888;-14.0204;6.1699;-0.0254;-0.0007;-0.0073
0000727257;6.7109;-13.8936;6.2082;-0.0253;0.0069;0.0003
0000727265;6.6918;-13.9007;6.1507;-0.0205;0.0048;0.0041
0000727273;6.8594;-13.8529;6.1459;-0.0145;-0.0045;0.0035
0000727281;6.8977;-13.9869;6.1842;-0.0207;-0.0029;0.0091
0000727289;6.9192;-14.0468;6.1794;-0.0237;-0.0120;0.0137
0000727297;7.0581;-13.9486;6.1028;-0.0346;-0.0252;0.0173
0000727305;6.8331;-14.0420;6.0071;-0.0349;-0.0370;0.0172
0000727313;6.6822;-14.0252;5.9328;-0.0436;-0.0429;0.0248
0000727321;6.7493;-13.8959;5.9089;-0.0420;-0.0546;0.0246
0000727329;6.7708;-13.8074;5.8419;-0.0369;-0.0616;0.0310
0000727337;6.7780;-13.6829;5.7437;-0.0217;-0.0791;0.0222
0000727345;6.6726;-13.8145;5.7389;-0.0156;-0.0779;0.0320
0000727353;6.5649;-13.8600;5.7317;-0.0036;-0.0843;0.0310
0000727361;6.5553;-13.9582;5.5522;0.0161;-0.0922;0.0234
0000727369;6.4620;-14.0588;5.6431;0.0201;-0.0871;0.0282
0000727377;6.4117;-13.9271;5.5450;0.0268;-0.0850;0.0234
0000727385;6.2345;-14.2263;5.5210;0.0333;-0.0835;0.0238
0000727393;6.3111;-14.1761;5.6192;0.0270;-0.0813;0.0199
0000727401;6.3135;-14.2311;5.4947;0.0314;-0.0807;0.0065
0000727409;6.2369;-14.2694;5.6240;0.0313;-0.0794;-0.0005
0000727417;6.3782;-14.1641;5.6144;0.0244;-0.0621;-0.0017
0000727425;6.1866;-14.3772;5.6383;0.0244;-0.0516;-0.0120
0000727433;6.1651;-14.4562;5.7581;0.0177;-0.0393;-0.0151
0000727441;6.1651;-14.5280;5.6623;0.0192;-0.0333;-0.0233
0000727449;6.4165;-14.3676;5.7413;0.0109;-0.0234;-0.0168
0000727457;6.3758;-14.2359;5.8179;0.0040;-0.0199;-0.0254
0000727465;6.3829;-14.4634;5.8203;0.0023;-0.0169;-0.0252
0000727473;6.4931;-14.1928;5.8778;-0.0075;-0.0095;-0.0285
0000727481;6.4763;-14.1330;5.8778;-0.0099;-0.0059;-0.0222
0000727489;6.3135;-14.1785;5.9759;-0.0079;-0.0111;-0.0294
0000727497;6.3470;-14.1545;5.9783;-0.0115;-0.0007;-0.0289
0000727505;6.4979;-13.9965;6.0597;-0.0069;-0.0028;-0.0349
0000727513;6.5146;-13.9175;6.0262;-0.0069;0.0017;-0.0305
0000727521;6.3303;-14.1545;6.1387;-0.0056;0.0031;-0.0330
0000727529;6.5769;-13.9438;6.0765;-0.0041;0.0007;-0.0306
0000727537;6.6032;-13.8888;6.1507;-0.0023;-0.0036;-0.0344
0000727545;6.6080;-13.8289;6.1531;-0.0052;0.0012;-0.0298
0000727553;6.6343;-13.8672;6.1196;-0.0075;0.0027;-0.0222
0000727561;6.4883;-13.9319;6.1555;-0.0105;-0.0025;-0.0232
0000727569;6.5864;-13.7978;6.1435;-0.0049;-0.0029;-0.0207
0000727577;6.5553;-13.8409;6.1363;-0.0037;-0.0053;-0.0220
0000727585;6.5841;-13.8816;6.0765;0.0084;-0.0200;-0.0278
0000727593;6.5194;-13.9750;6.0094;0.0171;-0.0213;-0.0249
0000727601;6.7109;-13.8002;6.0669;0.0177;-0.0157;-0.0200
0000727609;6.7253;-13.8481;6.0334;0.0249;-0.0288;-0.0266
0000727617;6.6942;-13.9534;6.0262;0.0253;-0.0280;-0.0209
0000727625;6.6655;-13.9103;5.9879;0.0196;-0.0278;-0.0226
0000727633;6.6224;-13.9989;6.0406;0.0249;-0.0348;-0.0261
0000727641;6.7062;-14.0085;5.9831;0.0119;-0.0298;-0.0172
0000727649;6.4476;-14.2311;5.9711;0.0035;-0.0305;-0.0140
0000727657;6.5625;-14.1641;5.8562;0.0049;-0.0429;-0.0270
0000727665;6.4643;-14.2958;5.9376;-0.0011;-0.0356;-0.0216
0000727673;6.6008;-14.0611;5.9161;-0.0039;-0.0420;-0.0242
0000727759;6.5457;-14.1018;5.8754;-0.0151;-0.0457;-0.0080
0000727767;6.5505;-14.0564;5.9616;-0.0111;-0.0504;-0.0137
0000727775;6.5721;-14.0803;5.8730;-0.0131;-0.0428;-0.0064
0000727783;6.5601;-14.0947;5.9376;-0.0091;-0.0472;-0.0156
0000727791;6.5290;-14.0204;5.8730;-0.0064;-0.0418;-0.0127
0000727799;6.6559;-13.8840;5.8897;-0.0104;-0.0473;-0.0164
0000727807;6.5242;-13.9103;5.8706;-0.0076;-0.0442;-0.0133
0000727815;6.6224;-13.7762;5.9185;-0.0124;-0.0381;-0.0076
0000727823;6.7205;-13.8744;5.9448;-0.0105;-0.0328;-0.0092
0000727831;6.6463;-13.8074;5.9687;-0.0117;-0.0337;-0.0095
0000727839;6.6702;-13.9438;6.0166;-0.0060;-0.0340;-0.0139
0000727847;6.6319;-13.9965;6.0789;0.0048;-0.0350;-0.0176
0000727855;6.5553;-13.9965;6.0813;-0.0016;-0.0266;-0.0093
0000727863;6.5074;-14.1521;5.9831;0.0012;-0.0312;-0.0105
0000727871;6.7253;-13.8481;6.0741;0.0064;-0.0366;-0.0129
0000727879;6.6918;-13.8672;6.0573;-0.0049;-0.0309;-0.0112
0000727887;6.4524;-13.9917;6.0406;-0.0045;-0.0354;-0.0153
0000727895;6.5338;-13.9678;5.9065;-0.0164;-0.0330;-0.0060
0000727903;6.5050;-14.0396;5.9975;-0.0175;-0.0368;-0.0160
0000727911;6.4979;-13.9031;5.9735;-0.0193;-0.0330;-0.0113
0000727919;6.5074;-13.9510;5.9400;-0.0193;-0.0340;-0.0119
0000727927;6.5170;-13.9343;5.8419;-0.0060;-0.0398;-0.0121
0000727935;6.4404;-13.9271;5.8562;0.0021;-0.0321;-0.0123
0000727943;6.4236;-13.9486;5.9089;0.0168;-0.0398;-0.0225
0000727951;6.6631;-13.9055;5.9376;0.0265;-0.0376;-0.0143
0000727959;6.5984;-14.0300;5.8969;0.0242;-0.0326;-0.0112
0000727967;6.4284;-14.0851;5.8897;0.0253;-0.0325;-0.0133
0000727975;6.5817;-14.0899;5.9041;0.0244;-0.0368;-0.0197
0000727983;6.5864;-13.9989;5.8993;0.0156;-0.0349;-0.0167
0000727991;6.7253;-14.1641;5.9975;0.0135;-0.0354;-0.0226
0000727999;6.4308;-14.2886;5.9209;0.0044;-0.0312;-0.0183
0000728007;6.6391;-14.1066;5.9376;0.0017;-0.0366;-0.0216
0000728015;6.5673;-14.1018;5.9233;-0.0041;-0.0316;-0.0199
0000728023;6.5170;-14.0300;5.9496;-0.0168;-0.0268;-0.0169
0000728031;6.6008;-13.9223;5.9328;-0.0168;-0.0306;-0.0144
0000728039;6.5912;-13.9103;5.8945;-0.0060;-0.0368;-0.0225
0000728047;6.6679;-13.9606;5.8778;-0.0092;-0.0373;-0.0151
0000728055;6.4596;-14.1258;5.9879;-0.0003;-0.0373;-0.0217
0000728063;6.3518;-14.1330;5.9304;0.0008;-0.0385;-0.0205
0000728071;6.5721;-14.0085;5.9017;0.0084;-0.0430;-0.0225
0000728079;6.6272;-13.9582;5.9687;0.0015;-0.0333;-0.0173
0000728087;6.6774;-13.9678;5.9831;-0.0004;-0.0334;-0.0200
0000728095;6.5481;-13.9989;5.9640;-0.0011;-0.0354;-0.0200
0000728103;6.5170;-14.0013;6.0621;0.0008;-0.0357;-0.0222
0000728111;6.5314;-14.0300;6.0310;-0.0100;-0.0262;-0.0173
0000728119;6.7373;-13.7978;6.1004;-0.0056;-0.0332;-0.0252
0000728127;6.5601;-13.9390;6.0382;-0.0083;-0.0277;-0.0193
0000728135;6.5170;-13.9462;5.9568;-0.0077;-0.0272;-0.0200
0000728143;6.5721;-13.9702;5.9903;-0.0037;-0.0278;-0.0225
0000728151;6.5553;-13.9606;6.0525;-0.0060;-0.0274;-0.0179
0000728159;6.5218;-14.0923;5.9975;-0.0099;-0.0276;-0.0177
0000728167;6.5984;-14.0875;5.9472;-0.0037;-0.0341;-0.0175
0000728175;6.8881;-13.8289;6.0047;-0.0108;-0.0357;-0.0185
0000728183;6.7062;-13.8600;5.9903;-0.0201;-0.0298;-0.0132
0000728191;6.7181;-13.8744;6.0334;-0.0113;-0.0441;-0.0228
0000728199;6.6894;-13.8552;5.9783;-0.0144;-0.0465;-0.0229
0000728207;6.6535;-13.8720;5.9640;-0.0131;-0.0406;-0.0155
0000728215;6.6655;-13.8337;6.0406;-0.0149;-0.0418;-0.0119
0000728223;6.7277;-13.9534;5.9664;-0.0155;-0.0404;-0.0160
0000728231;6.6415;-13.9366;6.0334;-0.0084;-0.0433;-0.0189
0000728239;6.6152;-13.9055;5.8969;-0.0095;-0.0397;-0.0144
0000728247;6.6128;-13.8552;5.8993;-0.0101;-0.0341;-0.0120
0000728255;6.5625;-14.0755;5.9975;-0.0084;-0.0416;-0.0187
0000728263;6.5290;-13.9127;6.0334;-0.0084;-0.0384;-0.0111
0000728271;6.6439;-14.0013;6.0023;-0.0172;-0.0328;-0.0103
0000728279;6.6439;-13.8744;6.0501;-0.0132;-0.0378;-0.0121
0000728287;6.6702;-13.9319;5.9400;-0.0105;-0.0445;-0.0136
0000728295;6.6463;-13.9175;5.9927;-0.0164;-0.0372;-0.0075
0000728303;6.5912;-13.8720;5.9209;-0.0160;-0.0434;-0.0156
0000728389;6.6655;-13.9438;5.9376;-0.0195;-0.0350;-0.0081
0000728397;6.5601;-14.0611;5.9855;-0.0116;-0.0414;-0.0119
0000728405;6.6176;-13.9750;6.0094;-0.0147;-0.0316;-0.0047
0000728413;6.7038;-14.0013;5.9089;-0.0107;-0.0365;-0.0075
0000728421;6.5457;-13.9462;5.9113;-0.0091;-0.0386;-0.0127
0000728429;6.6822;-13.9247;5.9137;0.0008;-0.0449;-0.0180
0000728437;6.6798;-13.9630;5.9711;-0.0052;-0.0392;-0.0093
0000728445;6.5673;-14.0396;5.8921;-0.0083;-0.0374;-0.0072
0000728453;6.6559;-13.8912;6.0190;-0.0057;-0.0364;-0.0128
0000728461;6.4835;-13.9654;5.9735;-0.0033;-0.0402;-0.0109
0000728469;6.5793;-14.0755;5.9520;-0.0103;-0.0268;-0.0041
0000728477;6.5841;-14.1186;5.9352;-0.0089;-0.0320;-0.0113
0000728485;6.6104;-14.0516;5.9664;-0.0068;-0.0293;-0.0068
0000728493;6.5242;-13.8959;6.0094;-0.0109;-0.0222;-0.0044
0000728501;6.5338;-13.9510;5.9711;-0.0048;-0.0316;-0.0115
0000728509;6.4667;-13.9869;5.8730;-0.0041;-0.0306;-0.0111
0000728517;6.5242;-14.0947;5.9280;-0.0053;-0.0349;-0.0131
0000728525;6.6535;-13.8768;5.9783;-0.0027;-0.0330;-0.0121
0000728533;6.5242;-14.0755;6.0262;-0.0048;-0.0332;-0.0172
0000728541;6.6559;-14.0971;5.9041;-0.0015;-0.0412;-0.0144
0000728549;6.6439;-14.0133;5.9352;-0.0084;-0.0336;-0.0164
0000728557;6.7133;-13.9821;5.9496;-0.0059;-0.0360;-0.0141
0000728565;6.4979;-13.9295;5.9927;-0.0037;-0.0344;-0.0173
0000728573;6.6798;-13.7882;5.9999;-0.0088;-0.0289;-0.0108
0000728581;6.5721;-13.9438;5.9807;-0.0037;-0.0344;-0.0151
0000728589;6.4907;-14.0037;6.0118;-0.0081;-0.0230;-0.0089
0000728597;6.5912;-13.8792;6.0645;-0.0073;-0.0328;-0.0131
0000728605;6.4141;-14.1066;6.0071;-0.0117;-0.0270;-0.0083
0000728613;6.6607;-13.9606;6.0597;-0.0043;-0.0346;-0.0131
0000728621;6.6846;-13.8888;5.9616;-0.0079;-0.0306;-0.0097
0000728629;6.6870;-13.9510;6.0430;-0.0133;-0.0286;-0.0108
0000728637;6.5481;-14.0276;5.9975;-0.0081;-0.0381;-0.0159
0000728645;6.7229;-13.9366;6.0597;-0.0107;-0.0312;-0.0120
0000728653;6.5936;-14.1066;6.0597;-0.0107;-0.0392;-0.0204
0000728661;6.5673;-13.8888;6.0501;-0.0181;-0.0342;-0.0147
0000728669;6.3949;-14.0468;5.9999;-0.0226;-0.0362;-0.0149
0000728677;6.7181;-13.9821;5.9640;-0.0237;-0.0280;-0.0064
0000728685;6.5888;-14.1138;5.9376;-0.0276;-0.0224;-0.0077
0000728693;6.5266;-13.9654;5.9568;-0.0250;-0.0258;-0.0107
0000728701;6.5098;-13.9031;5.9687;-0.0177;-0.0288;-0.0065
0000728709;6.6726;-13.9127;6.0501;-0.0192;-0.0196;-0.0051
0000728717;6.5793;-13.9271;5.9927;-0.0103;-0.0221;-0.0107
0000728725;6.5410;-14.1306;6.0238;-0.0040;-0.0250;-0.0105
0000728733;6.5314;-13.9989;6.0286;-0.0044;-0.0300;-0.0159
0000728741;6.4691;-14.0827;5.9568;-0.0013;-0.0333;-0.0128
0000728749;6.5170;-13.9965;5.8251;0.0005;-0.0358;-0.0215
0000728757;6.6319;-13.9773;6.0214;-0.0011;-0.0420;-0.0155
0000728765;6.5457;-14.0061;5.9855;-0.0092;-0.0368;-0.0149
0000728773;6.6822;-13.8816;6.0310;-0.0117;-0.0409;-0.0180
0000728781;6.4476;-14.0995;5.9855;-0.0191;-0.0361;-0.0179
0000728789;6.7229;-13.8050;6.1028;-0.0176;-0.0436;-0.0215
0000728797;6.4931;-13.9199;5.9592;-0.0189;-0.0422;-0.0159
0000728805;6.8283;-13.7930;5.9711;-0.0216;-0.0426;-0.0172
0000728813;6.7277;-13.8816;5.9664;-0.0175;-0.0376;-0.0156
0000728821;6.6822;-13.8600;5.9664;-0.0176;-0.0480;-0.0161
0000728829;6.5553;-13.8098;6.0382;-0.0101;-0.0478;-0.0189
0000728837;6.5434;-13.9319;6.0597;-0.0113;-0.0486;-0.0193
0000728845;6.6248;-13.9319;6.0047;-0.0112;-0.0476;-0.0189
0000728853;6.5218;-13.9103;5.9424;-0.0032;-0.0512;-0.0256
0000728861;6.6128;-13.8768;5.9687;-0.0045;-0.0506;-0.0199
0000728869;6.6918;-13.9127;5.9975;-0.0129;-0.0466;-0.0197
0000728877;6.4045;-14.1114;5.9855;-0.0065;-0.0481;-0.0265
0000728885;6.5146;-13.9965;6.0023;-0.0129;-0.0489;-0.0238
0000728893;6.5984;-13.8600;6.0286;-0.0136;-0.0416;-0.0221
0000728901;6.6583;-13.8529;5.9328;-0.0107;-0.0482;-0.0265
0000728909;6.4955;-14.0396;5.9592;-0.0033;-0.0488;-0.0270
0000728917;6.6415;-13.8409;5.9424;-0.0056;-0.0377;-0.0237
0000728925;6.5888;-13.9031;5.9640;-0.0029;-0.0412;-0.0270
0000728933;6.8115;-13.7858;5.9424;-0.0056;-0.0390;-0.0217
0000728941;6.6176;-13.9582;6.0214;-0.0043;-0.0429;-0.0278
0000729028;6.6439;-13.9941;6.0310;-0.0041;-0.0362;-0.0204
0000729036;6.7612;-13.9247;5.9568;-0.0076;-0.0365;-0.0197
0000729044;6.6559;-14.0635;5.9807;-0.0028;-0.0434;-0.0216
0000729052;6.8259;-13.8026;5.9400;-0.0135;-0.0370;-0.0161
0000729060;6.5553;-14.1162;5.9975;-0.0173;-0.0353;-0.0133
0000729068;6.6631;-13.8744;6.0310;-0.0129;-0.0436;-0.0137
0000729076;6.5864;-14.0133;5.9807;-0.0161;-0.0392;-0.0148
0000729084;6.5721;-13.9869;5.9592;-0.0148;-0.0386;-0.0111
0000729092;6.4955;-13.9821;6.0023;-0.0113;-0.0461;-0.0205
0000729100;6.7564;-13.8529;5.9879;-0.0049;-0.0520;-0.0199
0000729108;6.6798;-13.9510;5.9951;-0.0087;-0.0482;-0.0172
0000729116;6.4165;-14.0300;6.0310;-0.0097;-0.0453;-0.0156
0000729124;6.5697;-14.0204;6.0358;-0.0144;-0.0446;-0.0268
0000729132;6.5074;-13.9965;5.9759;-0.0135;-0.0420;-0.0253
0000729140;6.6487;-13.9558;5.9927;-0.0155;-0.0388;-0.0264
0000729148;6.4356;-14.0061;6.0238;-0.0207;-0.0306;-0.0278
0000729156;6.5864;-13.8840;6.0454;-0.0207;-0.0282;-0.0322
0000729164;6.3518;-14.1473;6.0693;-0.0290;-0.0189;-0.0273
0000729172;6.5050;-14.0420;6.0118;-0.0280;-0.0165;-0.0301
0000729180;6.3686;-14.0659;6.0023;-0.0349;-0.0101;-0.0298
0000729188;6.4524;-14.0468;6.0765;-0.0285;-0.0108;-0.0348
0000729196;6.5362;-13.9606;6.0573;-0.0369;-0.0049;-0.0285
0000729204;6.6535;-14.0157;6.0071;-0.0353;-0.0005;-0.0326
0000729212;6.6319;-13.9893;6.0286;-0.0326;-0.0035;-0.0337
0000729220;6.5338;-14.0157;6.0430;-0.0394;0.0021;-0.0273
0000729228;6.6152;-13.8959;6.0094;-0.0377;-0.0001;-0.0273
0000729236;6.6942;-13.9726;5.9807;-0.0392;-0.0020;-0.0220
0000729244;6.6798;-13.9199;5.9927;-0.0416;-0.0060;-0.0155
0000729252;6.7971;-14.0396;6.0765;-0.0421;-0.0160;-0.0224
0000729260;6.7900;-13.9821;6.0478;-0.0548;-0.0203;-0.0117
0000729268;6.7612;-14.1330;5.9951;-0.0597;-0.0314;-0.0119
0000729276;7.0270;-13.9726;5.9831;-0.0707;-0.0349;-0.0063
0000729284;6.9408;-14.0707;6.1100;-0.0861;-0.0336;-0.0015
0000729292;6.8857;-13.8744;6.0789;-0.0883;-0.0452;-0.0015
0000729300;6.7014;-14.0109;6.0525;-0.0857;-0.0556;0.0001
0000729308;6.6511;-13.9223;5.9209;-0.0874;-0.0517;0.0067
0000729316;6.9073;-13.8457;5.8155;-0.0815;-0.0505;0.0088
0000729324;6.7397;-13.8505;5.8897;-0.0717;-0.0514;0.0053
0000729332;6.5673;-13.9510;5.8562;-0.0645;-0.0529;0.0041
0000729340;6.6343;-13.9941;5.8251;-0.0448;-0.0552;0.0007
0000729348;6.7229;-13.8624;5.7940;-0.0462;-0.0428;0.0061
0000729356;6.7014;-13.9103;5.8490;-0.0449;-0.0392;0.0049
0000729364;6.7229;-14.0683;5.8921;-0.0465;-0.0318;0.0111
0000729372;6.4955;-14.1737;5.8131;-0.0446;-0.0373;0.0001
0000729380;6.6367;-14.0635;5.8538;-0.0497;-0.0370;0.0112
0000729388;6.6415;-14.1258;5.8945;-0.0565;-0.0336;0.0087
0000729396;6.6415;-14.0851;5.9209;-0.0556;-0.0393;0.0039
0000729404;6.6487;-14.0947;5.9065;-0.0589;-0.0334;0.0037
0000729412;6.6918;-13.9702;5.8897;-0.0617;-0.0333;0.0025
0000729420;6.5290;-14.0851;5.9975;-0.0612;-0.0305;0.0037
0000729428;6.7564;-13.9797;5.8538;-0.0614;-0.0324;-0.0045
0000729436;6.6080;-14.1761;5.9568;-0.0526;-0.0326;0.0001
0000729444;6.5864;-13.9438;5.9448;-0.0565;-0.0242;0.0032
0000729452;6.5074;-14.1258;5.9280;-0.0533;-0.0270;0.0036
0000729460;6.5218;-14.1976;5.9161;-0.0488;-0.0294;0.0021
0000729468;6.6391;-13.9917;5.9424;-0.0504;-0.0222;0.0075
0000729476;6.6200;-14.0157;5.9017;-0.0497;-0.0204;0.0055
0000729484;6.5577;-13.9726;5.8514;-0.0417;-0.0169;0.0057
0000729492;6.4859;-13.9055;5.9735;-0.0353;-0.0199;0.0041
0000729500;6.6655;-13.8888;5.8993;-0.0288;-0.0203;0.0039
0000729508;6.6774;-13.8481;5.9209;-0.0285;-0.0185;0.0063
0000729516;6.7493;-13.9271;5.9017;-0.0237;-0.0196;0.0036
0000729524;6.5194;-14.0659;5.9113;-0.0230;-0.0176;0.0056
0000729532;6.4332;-14.2694;5.9233;-0.0285;-0.0184;0.0069
0000729540;6.6870;-14.0013;5.9496;-0.0248;-0.0224;0.0007
0000729548;6.3135;-14.2623;5.9280;-0.0276;-0.0221;0.0035
0000729556;6.7301;-13.9247;5.9616;-0.0233;-0.0305;-0.0012
0000729564;6.5338;-14.0252;5.9328;-0.0132;-0.0313;-0.0004
0000729572;6.6463;-13.9199;5.9041;-0.0160;-0.0294;-0.0007
0000729580;6.5122;-13.9534;5.8945;-0.0069;-0.0353;-0.0060
0000729666;6.6176;-13.9295;5.8179;-0.0310;-0.0410;0.0024
0000729674;6.6272;-13.7858;5.7916;-0.0286;-0.0389;0.0093
0000729682;6.5194;-13.8409;5.7988;-0.0228;-0.0329;0.0063
0000729690;6.5338;-13.8888;5.6527;0.0003;-0.0420;0.0025
0000729698;6.6679;-13.9127;5.8275;0.0012;-0.0377;0.0049
0000729706;6.5769;-13.8816;5.8059;0.0181;-0.0406;-0.0033
0000729714;6.5074;-13.9893;5.7940;0.0173;-0.0352;0.0009
0000729722;6.4117;-14.1809;5.7437;0.0226;-0.0342;-0.0069
0000729730;6.3686;-14.1210;5.7916;0.0232;-0.0284;-0.0103
0000729738;6.5050;-14.0540;5.7868;0.0237;-0.0237;-0.0112
0000729746;6.3494;-14.1306;5.7916;0.0167;-0.0191;-0.0136
0000729754;6.3997;-14.1473;5.8299;0.0266;-0.0236;-0.0149
0000729762;6.5529;-14.1833;5.7868;0.0257;-0.0172;-0.0091
0000729770;6.4979;-14.1569;5.7365;0.0228;-0.0171;-0.0107
0000729778;6.5434;-14.0659;5.7796;0.0212;-0.0189;-0.0119
0000729786;6.5218;-14.1114;5.8658;0.0244;-0.0141;-0.0131
0000729794;6.5529;-14.0516;5.8251;0.0284;-0.0242;-0.0184
0000729802;6.4955;-14.0947;5.8730;0.0262;-0.0260;-0.0200
0000729810;6.6679;-14.0228;5.9041;0.0249;-0.0278;-0.0173
0000729818;6.5745;-13.9821;5.9520;0.0376;-0.0354;-0.0266
0000729826;6.6176;-14.0420;5.9568;0.0333;-0.0324;-0.0176
0000729834;6.6487;-14.1521;6.0693;0.0274;-0.0312;-0.0185
0000729842;6.6702;-14.0492;5.9664;0.0245;-0.0392;-0.0156
0000729850;6.6032;-14.1689;5.9831;0.0175;-0.0346;-0.0065
0000729858;6.6343;-14.0971;6.0597;0.0041;-0.0397;-0.0135
0000729866;6.5553;-14.1354;6.0382;-0.0123;-0.0458;-0.0027
0000729874;6.5912;-14.0157;5.9879;-0.0237;-0.0490;-0.0079
0000729882;6.5027;-13.9295;6.0789;-0.0348;-0.0493;-0.0049
0000729890;6.4907;-13.9366;5.9975;-0.0409;-0.0446;0.0021
0000729898;6.5505;-13.9271;6.0190;-0.0360;-0.0489;-0.0076
0000729906;6.5769;-13.7810;5.9520;-0.0320;-0.0429;-0.0067
0000729914;6.6559;-13.7116;5.9376;-0.0238;-0.0398;-0.0104
0000729922;6.3877;-13.8002;5.8849;-0.0055;-0.0374;-0.0111
0000729930;6.5553;-13.8074;5.9448;0.0076;-0.0381;-0.0147
0000729938;6.4045;-13.9702;5.8873;0.0091;-0.0324;-0.0099
0000729946;6.5410;-13.8744;5.9496;0.0081;-0.0282;-0.0136
0000729954;6.4739;-14.0444;5.9927;0.0121;-0.0330;-0.0192
0000729962;6.4332;-14.1952;5.9616;0.0057;-0.0284;-0.0221
0000729970;6.6511;-13.9678;6.0597;0.0033;-0.0326;-0.0241
0000729978;6.3638;-14.2359;5.9687;-0.0087;-0.0274;-0.0180
0000729986;6.4500;-14.0731;5.8969;-0.0140;-0.0264;-0.0185
0000729994;6.6846;-14.0252;5.8754;-0.0120;-0.0281;-0.0238
0000730002;6.6774;-14.0540;5.8849;-0.0128;-0.0334;-0.0246
0000730010;6.5362;-14.1665;5.8873;-0.0137;-0.0250;-0.0193
0000730018;6.7014;-14.0013;5.8203;-0.0088;-0.0308;-0.0195
0000730026;6.4907;-14.0995;5.8682;-0.0085;-0.0269;-0.0160
0000730034;6.5841;-14.0995;5.9137;-0.0109;-0.0277;-0.0153
0000730042;6.5841;-14.0923;5.8826;-0.0044;-0.0421;-0.0201
0000730050;6.6343;-14.1521;5.8610;-0.0096;-0.0388;-0.0191
0000730058;6.6343;-14.0995;5.8706;-0.0185;-0.0372;-0.0175
0000730066;6.5817;-14.0923;5.8849;-0.0160;-0.0473;-0.0180
0000730074;6.5888;-14.0827;6.0166;-0.0164;-0.0501;-0.0215
0000730082;6.7181;-14.0085;5.9089;-0.0225;-0.0514;-0.0221
0000730090;6.6511;-13.9151;6.0525;-0.0159;-0.0536;-0.0207
0000730098;6.5601;-13.9702;5.9424;-0.0176;-0.0436;-0.0140
0000730106;6.4548;-13.9271;5.9209;-0.0125;-0.0465;-0.0128
0000730114;6.5912;-13.9055;5.9951;-0.0096;-0.0508;-0.0193
0000730122;6.4380;-14.0133;5.8610;-0.0099;-0.0476;-0.0192
0000730130;6.4620;-14.0300;5.9496;-0.0136;-0.0390;-0.0161
0000730138;6.6607;-13.9007;5.8897;-0.0079;-0.0445;-0.0234
0000730146;6.5074;-14.0468;5.9879;-0.0083;-0.0336;-0.0188
0000730154;6.4643;-14.0013;5.9687;-0.0121;-0.0333;-0.0167
0000730162;6.3375;-14.2024;5.8921;-0.0037;-0.0401;-0.0256
0000730170;6.4955;-14.0947;5.8945;-0.0059;-0.0341;-0.0200
0000730178;6.4428;-14.1282;5.9041;-0.0104;-0.0288;-0.0209
0000730186;6.4835;-14.0635;5.9185;-0.0103;-0.0322;-0.0211
0000730194;6.5888;-13.9558;5.8586;-0.0155;-0.0298;-0.0180
0000730202;6.3063;-14.0324;5.8682;-0.0113;-0.0314;-0.0254
0000730210;6.3925;-14.0923;5.8730;-0.0064;-0.0373;-0.0234
0000730218;6.6272;-13.9558;5.8754;-0.0079;-0.0364;-0.0193
0000730328;6.6774;-13.9438;5.9352;-0.0120;-0.0422;-0.0281
0000730336;6.5769;-13.9438;5.8754;-0.0129;-0.0321;-0.0207
0000730344;6.4596;-13.9726;5.9328;-0.0159;-0.0389;-0.0226
0000730352;6.5098;-13.9678;5.9424;-0.0067;-0.0454;-0.0253
0000730360;6.5864;-13.9462;5.9711;-0.0057;-0.0364;-0.0213
0000730368;6.5218;-13.9750;5.9544;-0.0012;-0.0390;-0.0237
0000730376;6.5314;-13.8959;5.9831;-0.0001;-0.0337;-0.0189
0000730384;6.6032;-13.9079;6.0286;0.0027;-0.0382;-0.0211
0000730392;6.3734;-14.1162;5.9783;0.0025;-0.0338;-0.0161
0000730400;6.4260;-14.0803;5.9400;-0.0041;-0.0304;-0.0224
0000730408;6.5170;-14.0324;5.9568;0.0017;-0.0342;-0.0248
0000730416;6.6200;-14.1018;6.0406;-0.0017;-0.0221;-0.0220
0000730424;6.5457;-14.0516;5.9544;-0.0041;-0.0266;-0.0266
0000730432;6.5218;-14.0588;5.9113;-0.0001;-0.0273;-0.0211
0000730440;6.6128;-13.9175;5.9017;-0.0044;-0.0250;-0.0208
0000730448;6.5050;-14.1785;5.9759;-0.0011;-0.0282;-0.0253
0000730456;6.5625;-14.0588;5.9017;0.0095;-0.0328;-0.0292
0000730464;6.6870;-13.9893;5.9256;0.0044;-0.0281;-0.0215
0000730472;6.6056;-14.1306;6.0094;-0.0001;-0.0266;-0.0209
0000730480;6.7588;-14.0564;5.9664;0.0025;-0.0356;-0.0245
0000730488;6.6487;-14.1761;5.9664;-0.0096;-0.0308;-0.0157
0000730496;6.5960;-14.1162;5.9328;-0.0151;-0.0392;-0.0129
0000730504;6.5098;-14.2623;6.0837;-0.0317;-0.0369;-0.0112
0000730512;6.4715;-14.1545;6.0478;-0.0458;-0.0397;-0.0107
0000730520;6.5434;-14.1785;5.9927;-0.0528;-0.0398;-0.0165
0000730528;6.4620;-14.0085;6.0908;-0.0637;-0.0406;-0.0123
0000730536;6.5793;-13.8888;6.0382;-0.0738;-0.0362;-0.0167
0000730544;6.3566;-14.0659;5.9209;-0.0778;-0.0306;-0.0159
0000730552;6.5697;-13.8959;5.9400;-0.0751;-0.0348;-0.0169
0000730560;6.5003;-13.8624;5.8730;-0.0636;-0.0374;-0.0195
0000730568;6.6319;-13.7882;5.8849;-0.0473;-0.0346;-0.0220
0000730576;6.6128;-13.8313;5.9161;-0.0400;-0.0293;-0.0153
0000730584;6.5098;-13.9797;5.9065;-0.0184;-0.0374;-0.0250
0000730592;6.5529;-13.9965;5.9424;-0.0169;-0.0338;-0.0195
0000730600;6.5649;-14.0564;5.9041;-0.0129;-0.0340;-0.0193
0000730608;6.7301;-13.9797;5.9855;-0.0195;-0.0344;-0.0129
0000730616;6.5960;-14.1425;5.8706;-0.0333;-0.0309;-0.0135
0000730624;6.5098;-14.0827;5.9879;-0.0465;-0.0372;-0.0164
0000730632;6.6391;-13.9941;5.9903;-0.0529;-0.0404;-0.0209
0000730640;6.5218;-14.1210;6.0717;-0.0645;-0.0354;-0.0163
0000730648;6.4620;-13.9941;5.8802;-0.0629;-0.0306;-0.0164
0000730656;6.5673;-13.9893;5.8897;-0.0557;-0.0324;-0.0173
0000730664;6.5481;-13.9319;5.8897;-0.0461;-0.0286;-0.0168
0000730672;6.5553;-13.9462;5.8921;-0.0256;-0.0325;-0.0204
0000730680;6.6056;-13.9055;5.9831;-0.0181;-0.0293;-0.0119
0000730688;6.3877;-14.1018;5.8969;-0.0107;-0.0278;-0.0127
0000730696;6.5793;-13.9462;5.8155;-0.0136;-0.0272;-0.0124
0000730704;6.4643;-14.1809;5.9975;-0.0112;-0.0317;-0.0101
0000730712;6.5338;-14.0995;5.9687;-0.0147;-0.0368;-0.0133
0000730720;6.5003;-14.1713;6.0047;-0.0208;-0.0357;-0.0107
0000730728;6.5769;-14.1402;5.8945;-0.0205;-0.0389;-0.0137
0000730736;6.5673;-14.0348;5.9831;-0.0193;-0.0384;-0.0167
0000730744;6.6463;-13.8648;5.8251;-0.0105;-0.0398;-0.0224
0000730752;6.6463;-14.0899;5.8490;-0.0100;-0.0358;-0.0127
0000730760;6.5553;-14.0037;5.8131;-0.0057;-0.0290;-0.0119
0000730768;6.7109;-13.8888;5.9400;-0.0017;-0.0349;-0.0135
0000730776;6.5050;-14.1210;5.8730;-0.0031;-0.0301;-0.0089
0000730784;6.6726;-14.0133;5.8538;0.0037;-0.0276;-0.0141
0000730792;6.7062;-13.7954;5.8586;0.0111;-0.0337;-0.0112
0000730800;6.7181;-13.9103;5.7604;0.0171;-0.0285;-0.0059
0000730808;6.5242;-14.0971;5.8706;0.0260;-0.0336;-0.0107
0000730816;6.5027;-14.0683;5.9735;0.0281;-0.0352;-0.0064
0000730824;6.6655;-14.0564;5.9185;0.0277;-0.0422;-0.0140
0000730832;6.7373;-14.0085;6.0286;0.0197;-0.0360;-0.0105
0000730840;6.5098;-14.1425;6.0908;0.0111;-0.0438;-0.0179
0000730848;6.5242;-14.2383;6.0047;-0.0024;-0.0433;-0.0129
0000730856;6.6104;-14.1138;6.0765;-0.0218;-0.0452;-0.0153
0000730864;6.4667;-14.2503;6.0932;-0.0358;-0.0428;-0.0135
0000730872;6.4667;-14.0971;5.9496;-0.0546;-0.0401;-0.0124
0000730963;6.3566;-14.0420;5.8538;0.0322;-0.0160;-0.0164
0000730971;6.4907;-13.9007;5.8993;0.0392;-0.0179;-0.0184
0000730979;6.4141;-14.1402;5.9017;0.0602;-0.0197;-0.0277
0000730987;6.5003;-14.1138;5.7700;0.0765;-0.0175;-0.0220
0000730995;6.6248;-14.1545;5.9472;0.0825;-0.0115;-0.0224
0000731003;6.5362;-14.2144;6.0023;0.0889;-0.0107;-0.0306
0000731011;6.6583;-14.3485;6.0142;0.0817;-0.0079;-0.0272
0000731019;6.6152;-14.4059;6.0573;0.0509;-0.0020;-0.0278
0000731027;6.4596;-14.4873;5.9496;0.0264;-0.0032;-0.0341
0000731035;6.4572;-14.2934;6.0310;0.0028;-0.0001;-0.0300
0000731043;6.6750;-14.0013;5.9879;-0.0065;-0.0109;-0.0324
0000731051;6.5434;-13.9319;5.8754;-0.0149;-0.0037;-0.0400
0000731059;6.6128;-13.7236;5.8921;0.0089;-0.0088;-0.0498
0000731067;6.6152;-13.6589;5.8610;0.0269;0.0011;-0.0522
0000731075;6.6128;-13.5847;5.7844;0.0514;-0.0011;-0.0518
0000731083;6.5003;-13.5967;5.8323;0.0771;-0.0053;-0.0558
0000731091;6.6679;-13.5464;5.7700;0.1043;-0.0060;-0.0600
0000731099;6.5386;-13.6541;5.7413;0.1215;-0.0073;-0.0602
0000731107;6.5242;-13.7403;5.7772;0.1311;0.0043;-0.0593
0000731115;6.4787;-13.9103;5.7413;0.1418;-0.0123;-0.0691
0000731123;6.3782;-13.9343;5.7174;0.1412;-0.0072;-0.0710
0000731131;6.3638;-13.7762;5.7557;0.1434;-0.0128;-0.0770
0000731139;6.4907;-13.8289;5.7820;0.1503;-0.0183;-0.0798
0000731147;6.5457;-13.7236;5.7724;0.1510;-0.0169;-0.0794
0000731155;6.4931;-13.6589;5.8059;0.1655;-0.0225;-0.0843
0000731163;6.4141;-13.7427;5.7174;0.1896;-0.0312;-0.0927
0000731171;6.4691;-13.8026;5.7964;0.2008;-0.0272;-0.0869
0000731179;6.5074;-13.7451;5.8203;0.2129;-0.0270;-0.0977
0000731187;6.4380;-13.8696;5.8131;0.2173;-0.0244;-0.1034
0000731195;6.3614;-14.1641;5.9496;0.2146;-0.0195;-0.1095
0000731203;6.5170;-14.0204;5.9831;0.2034;-0.0064;-0.1139
0000731211;6.1914;-14.3006;5.9879;0.1881;-0.0012;-0.1274
0000731219;6.3782;-14.1665;6.0190;0.1735;0.0085;-0.1438
0000731227;6.3279;-14.1928;6.1507;0.1595;0.0230;-0.1475
0000731235;6.4667;-14.1497;6.2537;0.1443;0.0356;-0.1525
0000731243;6.2896;-14.0492;6.1794;0.1432;0.0370;-0.1747
0000731251;6.3494;-13.9989;6.2584;0.1525;0.0338;-0.1849
0000731259;6.3566;-14.0779;6.2608;0.1478;0.0386;-0.1955
0000731267;6.3231;-14.0061;6.2321;0.1463;0.0444;-0.1981
0000731275;6.2273;-14.2072;6.3327;0.1406;0.0426;-0.2108
0000731283;6.2273;-14.0947;6.3398;0.1308;0.0501;-0.2114
0000731291;6.3805;-13.9965;6.3183;0.1199;0.0542;-0.2113
0000731299;6.4739;-13.7714;6.3207;0.1139;0.0552;-0.2082
0000731307;6.5290;-13.7451;6.1723;0.1063;0.0658;-0.1945
0000731315;6.7014;-13.4841;6.2225;0.1041;0.0762;-0.1848
0000731323;6.6128;-13.3836;6.1555;0.1164;0.0725;-0.1795
0000731331;6.7397;-13.0676;6.1196;0.1307;0.0739;-0.1752
0000731339;6.6750;-13.1346;6.1172;0.1483;0.0890;-0.1652
0000731347;6.5505;-13.0197;6.0861;0.1751;0.0919;-0.1660
0000731355;6.6726;-12.9718;5.9807;0.2104;0.0895;-0.1719
0000731363;6.5625;-12.9838;5.9879;0.2438;0.0989;-0.1723
0000731371;6.4428;-13.0388;5.8802;0.2819;0.1025;-0.1836
0000731379;6.4236;-13.1178;5.9807;0.3062;0.1140;-0.1885
0000731387;6.5960;-13.1609;5.8610;0.3353;0.1164;-0.1982
0000731395;6.5338;-13.3884;5.9568;0.3507;0.1332;-0.1969
0000731403;6.6822;-13.2974;5.9664;0.3643;0.1298;-0.1947
0000731411;6.8881;-13.3118;6.0262;0.3818;0.1304;-0.1952
0000731419;6.8259;-13.5344;6.0501;0.3937;0.1238;-0.1943
0000731427;6.9791;-13.6493;6.0885;0.4060;0.1148;-0.1960
0000731435;7.1587;-13.6637;6.1579;0.4243;0.0953;-0.2092
0000731443;7.2042;-13.7355;6.1627;0.4307;0.0877;-0.2012
0000731451;7.3741;-13.8289;6.1794;0.4301;0.0743;-0.2053
0000731459;7.0605;-14.1473;6.2728;0.4246;0.0671;-0.2120
0000731467;7.2520;-14.0827;6.3135;0.4165;0.0580;-0.2184
0000731475;7.3215;-13.9534;6.2896;0.4006;0.0484;-0.2118
0000731483;7.0629;-14.1234;6.3255;0.3860;0.0476;-0.1996
0000731491;7.4531;-13.6541;6.4524;0.3832;0.0365;-0.1909
0000731499;7.3933;-13.6278;6.3973;0.3978;0.0191;-0.1755
0000731507;7.3861;-13.7882;6.4979;0.3996;0.0101;-0.1559
0000731515;7.2808;-13.7930;6.6607;0.4145;-0.0139;-0.1414
0000731523;7.3310;-13.6757;6.6631;0.4175;-0.0386;-0.1322
0000731531;7.2305;-13.7738;6.8163;0.4120;-0.0544;-0.1096
0000731619;7.0509;-12.4642;7.2999;0.3425;-0.1712;0.0441
0000731628;6.9863;-12.4139;7.3861;0.3453;-0.1605;0.0516
0000731637;6.7516;-12.4187;7.4675;0.3491;-0.1641;0.0454
0000731646;6.7900;-12.3325;7.6136;0.3587;-0.1589;0.0333
0000731655;6.9168;-12.3804;7.7548;0.3660;-0.1595;0.0140
0000731664;6.6774;-12.5624;7.7835;0.3600;-0.1440;0.0047
0000731673;6.6319;-12.6677;7.9799;0.3617;-0.1358;-0.0169
0000731682;6.7325;-12.7515;8.0397;0.3380;-0.1085;-0.0211
0000731691;6.5601;-13.1729;8.0230;0.2963;-0.0902;-0.0277
0000731700;6.7181;-13.0652;8.0014;0.2249;-0.0641;-0.0260
0000731709;6.6176;-13.0532;7.9942;0.1510;-0.0497;-0.0320
0000731718;6.7732;-12.9622;7.9511;0.0738;-0.0341;-0.0429
0000731727;6.7540;-12.9071;7.8745;0.0272;-0.0163;-0.0478
0000731736;6.7756;-12.6079;7.8386;0.0023;-0.0192;-0.0653
0000731745;6.6439;-12.4163;7.7093;-0.0052;-0.0145;-0.0719
0000731754;6.9456;-12.2655;7.7357;-0.0036;-0.0132;-0.0757
0000731763;6.8043;-12.2942;7.7357;0.0132;-0.0104;-0.0786
0000731772;6.7588;-12.3637;7.6782;0.0207;-0.0001;-0.0783
0000731781;6.6631;-12.6869;7.5537;0.0248;0.0089;-0.0763
0000731790;6.6272;-12.8521;7.6184;0.0257;0.0112;-0.0799
0000731799;6.6894;-13.1274;7.5944;0.0029;0.0147;-0.0669
0000731808;6.5577;-13.2854;7.4867;-0.0369;0.0023;-0.0638
0000731817;6.5122;-13.6015;7.4699;-0.0885;-0.0071;-0.0569
0000731826;6.7133;-13.5105;7.3861;-0.1471;-0.0005;-0.0456
0000731835;7.1826;-13.2495;7.2616;-0.1845;-0.0033;-0.0593
0000731844;7.1036;-13.1106;7.2018;-0.2029;-0.0040;-0.0730
0000731853;6.9839;-13.0604;7.0581;-0.2009;-0.0008;-0.0810
0000731862;6.8690;-12.8880;7.1323;-0.1864;0.0040;-0.0989
0000731871;6.6966;-12.5935;7.0485;-0.1635;0.0145;-0.1046
0000731880;6.6200;-12.5600;7.1730;-0.1440;0.0248;-0.1146
0000731889;6.4332;-12.8281;7.1802;-0.1279;0.0477;-0.1078
0000731898;6.5098;-12.8425;7.2808;-0.1025;0.0521;-0.1123
0000731907;6.5338;-13.1777;7.3646;-0.1132;0.0771;-0.0946
0000731916;6.8666;-13.3094;7.3670;-0.1276;0.0787;-0.0931
0000731925;6.9001;-13.4770;7.5609;-0.1619;0.0799;-0.0809
0000731934;7.2544;-13.2735;7.5824;-0.2024;0.0777;-0.0646
0000731943;7.2832;-13.1801;7.6088;-0.2358;0.0674;-0.0666
0000731952;7.5705;-13.1083;7.5010;-0.2617;0.0605;-0.0654
0000731961;7.4077;-13.0939;7.5178;-0.2883;0.0598;-0.0624
0000731970;7.6567;-12.7755;7.4340;-0.2939;0.0472;-0.0670
0000731979;7.6399;-12.9263;7.5058;-0.3003;0.0310;-0.0436
0000731988;7.6136;-12.7850;7.5130;-0.2916;-0.0021;-0.0256
0000731997;7.9392;-12.7036;7.3478;-0.2951;-0.0225;0.0244
0000732006;8.0852;-12.6198;7.3694;-0.2956;-0.0699;0.0537
0000732015;8.4563;-12.4882;7.3310;-0.2884;-0.1132;0.0875
0000732024;8.2839;-12.6222;7.1826;-0.2839;-0.1715;0.1031
0000732033;8.3989;-12.5839;7.1180;-0.2699;-0.2285;0.1198
0000732042;8.2863;-12.6845;7.1491;-0.2613;-0.2731;0.1311
0000732051;8.1020;-12.7324;7.2185;-0.2671;-0.2983;0.1584
0000732060;7.8338;-12.9287;7.2856;-0.2747;-0.3215;0.1721
0000732069;7.7261;-12.9383;7.3047;-0.2928;-0.3194;0.1920
0000732078;7.5561;-12.8377;7.4292;-0.2924;-0.3239;0.1958
0000732087;7.3454;-12.8928;7.5130;-0.3024;-0.3051;0.2104
0000732096;6.8857;-12.9071;7.4627;-0.3250;-0.2896;0.2105
0000732105;6.6224;-13.0269;7.4148;-0.3375;-0.2742;0.2061
0000732114;6.4452;-13.0699;7.2568;-0.3413;-0.2561;0.1952
0000732123;6.4380;-13.0843;7.1204;-0.3503;-0.2499;0.1676
0000732132;6.7253;-13.2854;7.0820;-0.3663;-0.2419;0.1653
0000732141;6.8690;-13.2351;6.9767;-0.3766;-0.2467;0.1438
0000732150;6.6750;-13.5943;6.8402;-0.3874;-0.2341;0.1370
0000732159;7.0078;-13.3333;6.8690;-0.3940;-0.2213;0.1223
0000732168;6.9001;-13.3716;6.7588;-0.4033;-0.1985;0.1099
0000732177;6.3470;-13.3932;6.7325;-0.4189;-0.1685;0.1009
0000732186;6.1172;-13.4530;6.7253;-0.4193;-0.1494;0.0898
0000732195;5.9424;-13.4003;6.7924;-0.4072;-0.1271;0.0863
0000732204;5.9280;-13.3477;6.6798;-0.3786;-0.1027;0.0858
0000732213;6.1579;-13.4722;6.4979;-0.3473;-0.0890;0.0919
0000732222;6.6822;-13.7786;6.2560;-0.3292;-0.0637;0.1160
0000732231;7.0509;-13.9079;6.3063;-0.3211;-0.0596;0.1348
0000732240;7.3287;-14.0827;6.4811;-0.3505;-0.0569;0.1512
0000732348;6.8690;-13.9151;6.0382;-0.3477;-0.1865;0.0762
0000732357;6.5984;-14.3892;6.3566;-0.3752;-0.1859;0.0566
0000732366;6.5194;-14.7076;6.7086;-0.4270;-0.1720;0.0360
0000732375;6.3494;-14.9398;6.6679;-0.4943;-0.1691;-0.0019
0000732384;6.2656;-14.9901;6.8881;-0.5717;-0.1495;-0.0266
0000732393;6.1387;-15.0523;6.9576;-0.6374;-0.1392;-0.0502
0000732402;6.1962;-14.9422;6.7852;-0.7048;-0.1207;-0.0616
0000732411;6.4620;-14.6358;6.6535;-0.7517;-0.1120;-0.0769
0000732420;6.5697;-14.4586;6.4428;-0.7733;-0.0899;-0.0842
0000732429;6.5984;-14.2910;6.2991;-0.7821;-0.0831;-0.0926
0000732438;6.5864;-14.1761;6.3063;-0.7727;-0.0877;-0.1017
0000732447;6.5769;-13.9199;6.2249;-0.7430;-0.0931;-0.1148
0000732456;6.4332;-14.0468;6.1531;-0.7357;-0.0985;-0.1346
0000732465;6.3590;-14.2120;6.2034;-0.7269;-0.0822;-0.1423
0000732474;6.3805;-14.3628;6.1842;-0.7298;-0.0795;-0.1784
0000732483;6.1387;-14.7219;6.1411;-0.7444;-0.0642;-0.1935
0000732492;6.1292;-14.7291;6.1411;-0.7686;-0.0629;-0.2134
0000732501;6.1268;-14.7411;6.1818;-0.8005;-0.0640;-0.2137
0000732510;6.0837;-14.5974;6.1723;-0.8390;-0.0678;-0.1972
0000732519;6.6583;-14.2407;6.0118;-0.8599;-0.0727;-0.1775
0000732528;6.6439;-14.0564;5.9424;-0.8383;-0.0965;-0.1628
0000732537;7.0533;-13.8026;5.5282;-0.7911;-0.1198;-0.1458
0000732546;7.3119;-13.8409;5.2601;-0.7160;-0.1692;-0.1426
0000732555;7.3023;-13.9510;4.8147;-0.6356;-0.2121;-0.1298
0000732564;7.5346;-13.8983;4.3910;-0.5395;-0.2675;-0.1184
0000732573;7.4603;-14.1138;4.4173;-0.4535;-0.3131;-0.0958
0000732582;7.7117;-14.3125;4.8530;-0.3910;-0.3457;-0.0658
0000732591;7.6088;-14.7603;5.0159;-0.3693;-0.3796;-0.0432
0000732600;7.8554;-15.2008;5.2002;-0.3906;-0.3706;-0.0129
0000732609;7.9775;-15.6820;5.4851;-0.4401;-0.3643;0.0230
0000732618;7.8650;-15.9741;5.5689;-0.5189;-0.3591;0.0520
0000732627;7.6471;-16.6469;5.8778;-0.6086;-0.3619;0.0825
0000732636;7.2257;-17.0276;5.8419;-0.7290;-0.3540;0.0981
0000732645;7.0773;-17.3699;5.8634;-0.8636;-0.3635;0.0965
0000732654;7.0102;-17.2718;6.0597;-1.0140;-0.3800;0.0867
0000732663;7.2592;-17.1880;6.1028;-1.1682;-0.4231;0.0934
0000732672;7.5753;-16.4721;5.9352;-1.2842;-0.4594;0.0847
0000732681;8.1331;-16.0435;5.8562;-1.3466;-0.5151;0.0794
0000732690;8.3965;-15.6772;5.9568;-1.3787;-0.5686;0.0894
0000732699;8.6646;-15.7203;5.7245;-1.3831;-0.6181;0.0975
0000732708;8.4420;-15.7155;5.5426;-1.3900;-0.6450;0.1154
0000732717;8.2672;-15.5695;5.4157;-1.4164;-0.6699;0.1287
0000732726;7.7692;-15.4881;5.3510;-1.4605;-0.6849;0.1394
0000732735;7.3310;-15.2726;5.3319;-1.5155;-0.6666;0.1455
0000732744;7.1132;-14.8560;5.3223;-1.5659;-0.6379;0.1503
0000732753;6.6391;-14.7052;5.1834;-1.5922;-0.5915;0.1463
0000732762;6.6200;-14.3652;5.3630;-1.5832;-0.5341;0.1244
0000732771;6.6511;-14.1402;5.2385;-1.5599;-0.4624;0.0901
0000732780;6.8953;-13.9366;4.8076;-1.5167;-0.3588;0.0405
0000732789;7.1491;-14.1138;4.2425;-1.4541;-0.2658;-0.0108
0000732798;7.1467;-13.9797;3.9049;-1.3851;-0.1828;-0.0574
0000732807;7.1754;-14.1593;3.0981;-1.3290;-0.0815;-0.0541
0000732816;7.3933;-14.2479;2.6288;-1.2837;-0.0208;-0.0594
0000732825;7.7524;-14.4418;2.2434;-1.2710;0.0204;-0.0322
0000732834;8.0182;-14.5160;1.7789;-1.2570;0.0293;-0.0290
0000732843;8.3294;-14.0851;1.4006;-1.2267;0.0440;-0.0229
0000732852;8.6191;-14.2479;0.6991;-1.1987;0.0350;0.0108
0000732861;8.7556;-14.1785;0.1101;-1.1377;0.0209;0.0667
0000732870;9.0022;-13.7906;0.0503;-1.0207;0.0360;0.1681
0000732879;8.8801;-13.4075;-0.3041;-0.9198;0.0444;0.2590
0000732888;8.9854;-13.1849;-0.6081;-0.7576;0.0378;0.3577
0000732897;9.1291;-12.9909;-0.7997;-0.6106;-0.0157;0.4069
0000732906;9.1746;-13.0245;-0.7925;-0.3681;-0.0738;0.4397
0000732915;8.6694;-13.6541;-0.4477;-0.1503;-0.1154;0.4680
0000732924;8.2049;-14.5544;-0.1389;0.0252;-0.1668;0.4517
0000732933;7.8386;-15.6054;-0.1197;0.1296;-0.1970;0.4048
0000732942;7.3358;-16.6589;0.1221;0.1649;-0.2181;0.3291
0000732951;7.0054;-17.1784;0.3974;0.1514;-0.2657;0.2294
0000732960;6.6702;-17.6189;0.5650;0.1370;-0.3171;0.1114
0000732969;6.8953;-17.8895;1.0391;0.1392;-0.3760;0.0084
0000732978;6.9528;-18.4856;1.4389;0.1347;-0.4263;-0.0747
0000733066;7.5513;-15.7610;0.9864;-0.6230;-0.4425;0.2753
0000733075;7.4843;-15.5527;0.9697;-0.5697;-0.5037;0.2638
0000733084;7.7716;-15.0763;0.9529;-0.5109;-0.5536;0.2550
0000733093;7.8626;-15.0739;1.1037;-0.4489;-0.6009;0.2316
0000733102;8.0254;-14.6477;1.0654;-0.3926;-0.6308;0.2362
0000733111;7.9128;-14.4251;1.1349;-0.3353;-0.6690;0.2302
0000733120;7.4244;-14.3245;1.1803;-0.2904;-0.6855;0.2336
0000733129;7.3263;-14.0133;1.2258;-0.2498;-0.6908;0.2373
0000733138;7.1251;-14.0109;1.1037;-0.2018;-0.6919;0.2346
0000733147;6.9408;-13.8936;1.1013;-0.1474;-0.6715;0.2469
0000733156;6.8618;-13.8481;1.1492;-0.0679;-0.6630;0.2545
0000733165;6.6343;-13.9390;1.1013;0.0171;-0.6392;0.2754
0000733174;6.6750;-14.1473;1.2450;0.1019;-0.6285;0.2859
0000733183;6.6008;-14.1904;1.1732;0.1699;-0.6143;0.3014
0000733192;6.3782;-14.5544;1.1181;0.2068;-0.5891;0.3120
0000733201;6.2848;-14.7914;1.1085;0.2294;-0.5658;0.3251
0000733210;6.1411;-14.9662;1.0558;0.2354;-0.5528;0.3336
0000733219;6.1531;-15.3037;1.1851;0.2269;-0.5313;0.3455
0000733228;6.1818;-15.2199;1.1157;0.2399;-0.5212;0.3404
0000733237;6.0885;-15.5527;1.0798;0.2434;-0.4946;0.3415
0000733246;6.2417;-15.7634;0.9026;0.2541;-0.4655;0.3392
0000733255;6.2441;-16.1944;1.1229;0.2523;-0.4413;0.3380
0000733264;6.0789;-16.7211;1.0942;0.2445;-0.4098;0.3476
0000733273;6.2537;-16.9749;1.0415;0.2332;-0.3897;0.3555
0000733282;6.0789;-17.3891;1.0846;0.2134;-0.3780;0.3623
0000733291;5.8012;-18.0643;1.0534;0.1819;-0.3660;0.3572
0000733300;5.9137;-18.2773;1.2019;0.1520;-0.3653;0.3395
0000733309;5.9161;-18.7562;1.2330;0.1151;-0.3641;0.3186
0000733318;5.9855;-19.1919;1.1684;0.0895;-0.3568;0.2980
0000733327;6.0956;-19.7234;1.1037;0.0634;-0.3415;0.2755
0000733336;6.1531;-20.4321;0.9697;0.0103;-0.3280;0.2718
0000733345;6.2752;-21.1288;0.8811;-0.0674;-0.3230;0.2911
0000733354;6.4212;-21.8016;0.8499;-0.1885;-0.3032;0.3339
0000733363;6.4572;-22.2326;1.0582;-0.3283;-0.3010;0.3798
0000733372;6.2201;-22.4480;1.0343;-0.4547;-0.2911;0.4441
0000733381;6.1148;-22.4313;1.0582;-0.5716;-0.2924;0.5019
0000733390;5.6288;-22.4073;0.9625;-0.6785;-0.2892;0.5530
0000733399;5.4636;-22.1416;0.8787;-0.7352;-0.2986;0.5708
0000733408;5.2050;-21.7298;1.0343;-0.7778;-0.2908;0.5864
0000733417;5.3391;-21.4329;1.1013;-0.7970;-0.2798;0.5829
0000733426;5.1834;-21.2342;1.0702;-0.8134;-0.2268;0.5817
0000733435;4.6974;-21.2390;1.3096;-0.8310;-0.1712;0.5585
0000733444;4.5538;-20.9732;1.2282;-0.8664;-0.1070;0.5241
0000733453;3.9504;-20.9517;1.4317;-0.9058;-0.0250;0.4694
0000733462;3.6895;-20.4776;1.5131;-0.9458;0.0433;0.3950
0000733471;3.4524;-19.9964;1.5802;-0.9947;0.1186;0.3234
0000733480;3.4381;-19.6684;1.6879;-1.0248;0.1652;0.2382
0000733489;3.8954;-19.0674;1.5562;-1.0686;0.2076;0.1815
0000733498;4.4317;-18.4401;1.3575;-1.1018;0.2393;0.1342
0000733507;4.6974;-18.2199;0.9290;-1.1193;0.2597;0.1026
0000733516;5.0230;-17.5208;0.6273;-1.1358;0.2798;0.0881
0000733525;5.0302;-17.1185;0.4645;-1.1289;0.2831;0.0707
0000733534;5.0996;-16.6134;0.0048;-1.1142;0.3022;0.0545
0000733543;5.1715;-16.2016;-0.1149;-1.0625;0.3167;0.0516
0000733552;5.0781;-15.9765;-0.3328;-1.0067;0.3307;0.0425
0000733561;5.0159;-15.6437;-0.3783;-0.9270;0.3556;0.0474
0000733570;4.9847;-15.4211;-0.5148;-0.8344;0.3661;0.0613
0000733579;5.2098;-15.3205;-0.6704;-0.7641;0.3797;0.0771
0000733588;5.0661;-15.1337;-1.1013;-0.7048;0.4028;0.1258
0000733597;4.7812;-15.4522;-1.1779;-0.6668;0.4166;0.1651
0000733606;4.9895;-15.0260;-1.3527;-0.6355;0.4338;0.1949
0000733615;4.8770;-14.9805;-1.2402;-0.6111;0.4546;0.1905
0000733624;4.9847;-14.9326;-1.0918;-0.5690;0.4815;0.1777
0000733633;5.2122;-14.5687;-0.9266;-0.5115;0.4884;0.1311
0000733642;5.3558;-14.5903;-1.0846;-0.4558;0.4944;0.1022
0000733651;5.4444;-14.5400;-1.0127;-0.3938;0.5059;0.0817
0000733660;5.3439;-14.4945;-0.8404;-0.3456;0.5133;0.0638
0000733669;5.2960;-14.6669;-0.9816;-0.3199;0.5263;0.0648
0000733678;5.3534;-14.5879;-1.0487;-0.3059;0.5268;0.0508
0000733687;5.3510;-14.8656;-1.1516;-0.3066;0.5329;0.0580
0000733696;5.4085;-15.3492;-1.4700;-0.3122;0.5265;0.0426
0000733838;6.1483;-15.3588;-2.2122;-0.2598;0.4088;-0.0425
0000733847;6.4356;-15.2199;-2.1284;-0.2348;0.3950;-0.0244
0000733856;6.1962;-15.2511;-2.0279;-0.1947;0.3753;-0.0176
0000733865;6.3877;-15.0595;-2.0135;-0.1514;0.3439;-0.0023
0000733874;6.2752;-15.0188;-2.0231;-0.1238;0.3344;0.0195
0000733883;6.1723;-14.9542;-1.9992;-0.0767;0.3184;0.0260
0000733892;6.0621;-14.7866;-2.0925;-0.0469;0.3199;0.0382
0000733901;5.9592;-14.6453;-2.1141;0.0061;0.3086;0.0314
0000733910;5.7461;-14.8321;-1.9680;0.0525;0.3154;0.0402
0000733919;5.7652;-14.8177;-2.2027;0.0973;0.3116;0.0397
0000733928;5.9328;-14.8033;-2.1476;0.1508;0.3059;0.0356
0000733937;6.0454;-14.9398;-2.1165;0.1819;0.3036;0.0377
0000733946;6.1100;-15.3013;-1.8962;0.2101;0.3004;0.0332
0000733955;5.9448;-15.2582;-1.5945;0.2337;0.2888;0.0185
0000733964;6.0047;-15.4570;-1.5419;0.2398;0.2809;0.0092
0000733973;6.2130;-15.5815;-1.3862;0.2447;0.2603;-0.0056
0000733982;6.1387;-15.4115;-1.3024;0.2373;0.2527;-0.0133
0000733991;5.9831;-15.3684;-1.2354;0.2427;0.2414;-0.0261
0000734000;6.0478;-15.0428;-1.4341;0.2270;0.2455;-0.0173
0000734009;5.8083;-14.9518;-1.4772;0.2341;0.2418;-0.0167
0000734018;5.9592;-14.6836;-1.6735;0.2312;0.2585;-0.0120
0000734027;5.8059;-14.7387;-1.7693;0.2487;0.2586;-0.0207
0000734036;5.5929;-14.5232;-1.7047;0.2635;0.2747;-0.0345
0000734045;5.5474;-14.5304;-1.5562;0.3014;0.2842;-0.0540
0000734054;5.6024;-14.4131;-1.3001;0.3315;0.2883;-0.0695
0000734063;5.8059;-14.3580;-1.3120;0.3487;0.3035;-0.0775
0000734072;5.9065;-14.6358;-1.1396;0.3736;0.3096;-0.0901
0000734081;6.2082;-14.5089;-1.1947;0.3776;0.3063;-0.0785
0000734090;6.1387;-14.7004;-1.2163;0.3928;0.2863;-0.0729
0000734099;6.3710;-14.4107;-1.2737;0.4029;0.2643;-0.0773
0000734108;6.8426;-14.1330;-1.2665;0.4070;0.2374;-0.0653
0000734117;6.7325;-14.1569;-1.2689;0.4213;0.2052;-0.0777
0000734126;6.6343;-14.0875;-1.3001;0.4191;0.1895;-0.0578
0000734135;6.6655;-14.0061;-1.3360;0.4283;0.1492;-0.0593
0000734144;6.5841;-13.9079;-1.3503;0.4429;0.1144;-0.0496
0000734153;6.5266;-13.9055;-1.3001;0.4662;0.0873;-0.0561
0000734162;6.5601;-14.0875;-1.0965;0.4855;0.0771;-0.0525
0000734171;6.6295;-14.2575;-1.1157;0.5165;0.0460;-0.0545
0000734180;6.2130;-14.4394;-0.8236;0.5320;0.0368;-0.0598
0000734189;6.4284;-14.5256;-0.6871;0.5385;0.0113;-0.0577
0000734198;6.5290;-14.6286;-0.5962;0.5588;-0.0207;-0.0613
0000734207;6.5553;-14.8728;-0.5171;0.5609;-0.0542;-0.0553
0000734216;6.4284;-15.0547;-0.5770;0.5674;-0.0974;-0.0480
0000734225;6.5481;-14.8584;-0.6105;0.5505;-0.1292;-0.0480
0000734234;6.3973;-14.9662;-0.5914;0.5255;-0.1720;-0.0492
0000734243;6.5218;-14.4969;-0.8643;0.4994;-0.1996;-0.0396
0000734252;6.2752;-14.4035;-0.9313;0.4974;-0.2265;-0.0401
0000734261;6.1028;-14.2240;-0.9122;0.5095;-0.2410;-0.0273
0000734270;6.1148;-14.0444;-0.9720;0.5231;-0.2395;-0.0213
0000734279;6.0645;-14.0851;-0.9290;0.5634;-0.2470;-0.0265
0000734288;5.9209;-14.1402;-0.9242;0.5898;-0.2382;-0.0388
0000734297;5.7054;-14.3054;-0.8475;0.6346;-0.2208;-0.0509
0000734306;5.6527;-14.5376;-0.7829;0.6764;-0.2053;-0.0617
0000734315;5.3917;-14.8057;-0.6488;0.6921;-0.1647;-0.0797
0000734324;5.2816;-15.0356;-0.3256;0.7148;-0.1226;-0.0978
0000734333;5.3439;-15.3157;-0.0982;0.7382;-0.0759;-0.1210
0000734342;5.0135;-15.7203;0.1269;0.7374;-0.0189;-0.1319
0000734351;4.9560;-15.8329;0.2083;0.7213;0.0341;-0.1426
0000734360;5.0326;-15.9310;0.5124;0.6659;0.0935;-0.1327
0000734369;5.2146;-15.6772;0.5315;0.6211;0.1415;-0.1380
0000734378;5.3247;-15.5791;0.5148;0.5565;0.1871;-0.1352
0000734387;5.3319;-15.7131;0.5243;0.5188;0.2170;-0.1518
0000734396;5.6743;-15.2367;0.5555;0.4862;0.2406;-0.1648
0000734405;5.6360;-15.3181;0.5411;0.4674;0.2542;-0.1931
0000734414;5.6527;-15.2415;0.5890;0.4682;0.2605;-0.2232
0000734423;5.5737;-15.3397;0.5914;0.4971;0.2621;-0.2619
0000734432;5.7988;-15.3109;0.4812;0.5173;0.2619;-0.2681
0000734441;5.6455;-15.5599;0.5986;0.5384;0.2545;-0.2703
0000734450;5.6767;-15.4953;0.5124;0.5528;0.2517;-0.2634
0000734459;5.8275;-15.7227;0.4693;0.5634;0.2443;-0.2494
0000734546;6.7397;-16.4553;0.8188;0.3874;-0.0989;0.0810
0000734555;6.7253;-16.3835;0.8475;0.3603;-0.1655;0.1015
0000734564;6.6655;-16.1609;0.7183;0.3597;-0.2246;0.1088
0000734573;6.8378;-15.9047;0.8068;0.3790;-0.2699;0.1057
0000734582;6.7564;-15.5815;0.7733;0.3708;-0.3031;0.1006
0000734591;6.4859;-15.3420;0.6943;0.3623;-0.3301;0.0834
0000734600;6.3279;-15.3013;0.7278;0.3583;-0.3517;0.0510
0000734609;6.4332;-15.1050;0.6680;0.3756;-0.3468;0.0385
0000734618;6.0549;-14.8776;0.6632;0.3756;-0.3255;0.0139
0000734627;6.0932;-15.0116;0.8356;0.3934;-0.2899;0.0209
0000734636;5.6479;-15.1912;0.9170;0.4171;-0.2651;0.0075
0000734645;5.7964;-15.0452;1.0654;0.4171;-0.2248;-0.0033
0000734654;5.6982;-15.3397;1.1396;0.4096;-0.1680;0.0060
0000734663;5.8347;-15.5120;1.2665;0.4295;-0.1342;0.0065
0000734672;5.8921;-15.6892;1.4964;0.4557;-0.0899;0.0160
0000734681;6.4643;-15.8424;1.6209;0.4768;-0.0694;0.0151
0000734690;6.5888;-16.0675;1.6137;0.5053;-0.0594;0.0057
0000734699;6.7397;-16.1226;1.7669;0.5216;-0.0686;0.0023
0000734708;7.1132;-15.9190;1.8244;0.5119;-0.0871;-0.0069
0000734717;7.2496;-15.9430;1.7837;0.4787;-0.0917;-0.0119
0000734726;7.0509;-16.0627;1.4653;0.4635;-0.0989;-0.0232
0000734735;7.2113;-15.9382;1.5227;0.4619;-0.1104;-0.0360
0000734744;7.0174;-16.2159;1.4461;0.4523;-0.1035;-0.0396
0000734753;6.7947;-16.4984;1.3886;0.4325;-0.1010;-0.0337
0000734762;6.8115;-16.5775;1.3551;0.3828;-0.0854;-0.0203
0000734771;6.3087;-16.9007;1.4198;0.3483;-0.0821;-0.0179
0000734780;6.1842;-16.9246;1.4988;0.3122;-0.0513;-0.0172
0000734789;5.7102;-16.7474;1.6041;0.2970;-0.0213;-0.0414
0000734798;5.5258;-16.4984;1.6472;0.2815;0.0192;-0.0496
0000734807;5.2864;-15.9933;1.5682;0.3199;0.0534;-0.0584
0000734816;5.3439;-15.7969;1.4916;0.3507;0.0815;-0.0723
0000734825;5.7916;-15.4450;1.4916;0.3681;0.0918;-0.0730
0000734834;6.0837;-15.1649;1.5802;0.3756;0.0857;-0.0758
0000734843;6.3877;-15.3899;1.6592;0.3587;0.0574;-0.0648
0000734852;7.0677;-15.4474;1.8675;0.3400;0.0101;-0.0532
0000734861;7.5944;-15.4450;2.0063;0.3098;-0.0496;-0.0272
0000734870;7.8003;-15.6054;1.9992;0.2930;-0.1491;-0.0124
0000734879;8.1020;-15.9430;2.2434;0.2721;-0.2352;0.0168
0000734888;8.3007;-16.2111;2.2194;0.2743;-0.3352;0.0476
0000734897;8.2193;-16.0627;2.1548;0.2257;-0.4233;0.0827
0000734906;8.0876;-16.2734;2.1332;0.2054;-0.5025;0.1035
0000734915;7.6686;-16.3069;2.1524;0.2066;-0.5584;0.1250
0000734924;7.2736;-16.2518;2.0973;0.2317;-0.6091;0.1348
0000734933;7.0366;-16.2183;2.1428;0.2438;-0.6229;0.1516
0000734942;6.4284;-16.4314;2.2553;0.2525;-0.6182;0.1547
0000734951;6.0262;-16.1944;2.4565;0.2485;-0.5882;0.1567
0000734960;5.6000;-16.1656;2.4780;0.2321;-0.5650;0.1403
0000734969;5.3558;-16.1609;2.8419;0.2210;-0.5153;0.1290
0000734978;5.3558;-16.1034;2.9880;0.2220;-0.4714;0.1043
0000734987;5.2720;-16.0914;3.0167;0.1925;-0.4170;0.0818
0000734996;5.2457;-16.1154;3.0550;0.1587;-0.3826;0.0500
0000735005;5.4731;-15.9190;3.0718;0.1246;-0.3384;0.0374
0000735014;5.5402;-15.9382;3.1244;0.1003;-0.3111;0.0171
0000735023;5.8610;-15.7299;2.9521;0.0723;-0.2827;0.0164
0000735032;5.9592;-15.8472;2.8467;0.0522;-0.2657;0.0128
0000735041;6.1531;-15.9550;2.5618;0.0564;-0.2463;0.0123
0000735050;6.1866;-15.8400;2.3415;0.0758;-0.2372;0.0077
0000735059;6.2441;-15.7491;2.2266;0.1120;-0.2261;0.0120
0000735068;6.4356;-15.6198;1.9824;0.1471;-0.2096;0.0236
0000735077;6.5194;-15.7515;1.9992;0.1709;-0.2001;0.0250
0000735086;6.5817;-15.6198;2.0039;0.1852;-0.2110;0.0278
0000735095;6.4524;-15.7179;2.0710;0.1932;-0.2184;0.0288
0000735104;6.5122;-15.7036;2.4541;0.1835;-0.2108;0.0350
0000735113;6.5841;-15.8233;2.7533;0.1877;-0.2212;0.0262
0000735122;6.6367;-15.8807;2.8922;0.1744;-0.2174;0.0212
0000735131;6.3614;-16.2758;3.0095;0.1378;-0.2256;0.0076
0000735140;6.7325;-16.1226;3.2801;0.0973;-0.2197;0.0092
0000735149;6.4548;-16.1154;3.1627;0.0513;-0.2148;0.0065
0000735158;6.4308;-16.0842;3.0454;-0.0004;-0.2021;0.0228
0000735167;6.4236;-15.9310;3.0694;-0.0155;-0.1923;0.0226
0000735176;6.5146;-15.7395;2.9185;0.0016;-0.1909;0.0185
0000735185;6.5697;-15.5599;2.9113;0.0153;-0.1849;0.0177
0000735273;6.2058;-15.9167;2.9257;-0.0558;-0.0890;-0.0250
0000735282;6.2297;-15.8281;2.8778;-0.0743;-0.0734;-0.0204
0000735291;6.3590;-15.6437;2.9329;-0.0858;-0.0606;-0.0215
0000735300;6.3566;-15.7036;2.8276;-0.0821;-0.0657;-0.0120
0000735309;6.5410;-15.5839;2.9329;-0.0827;-0.0677;-0.0149
0000735318;6.3997;-15.5025;2.7821;-0.0867;-0.0617;-0.0091
0000735327;6.5888;-15.6653;2.8826;-0.0769;-0.0734;-0.0096
0000735336;6.5553;-15.5599;2.8132;-0.0657;-0.0763;0.0004
0000735345;6.5577;-15.5575;2.7294;-0.0466;-0.0841;-0.0048
0000735354;6.5505;-15.3923;2.8084;-0.0240;-0.0789;0.0064
0000735363;6.5386;-15.4498;2.8515;-0.0015;-0.0802;0.0125
0000735372;6.6248;-15.4306;2.7892;0.0179;-0.0819;0.0160
0000735381;6.5194;-15.5886;2.8491;0.0392;-0.0890;0.0123
0000735390;6.5362;-15.4618;2.8706;0.0416;-0.0827;0.0222
0000735399;6.3159;-15.5192;2.9401;0.0426;-0.0945;0.0119
0000735408;6.4236;-15.6317;2.8611;0.0462;-0.0918;0.0172
0000735417;6.4021;-15.6748;2.8994;0.0390;-0.0906;0.0236
0000735426;6.5122;-15.6222;2.9497;0.0390;-0.0966;0.0264
0000735435;6.4763;-15.7084;3.0167;0.0432;-0.1023;0.0308
0000735444;6.6248;-15.5982;2.9449;0.0513;-0.1095;0.0320
0000735453;6.4811;-15.6485;2.9544;0.0462;-0.1018;0.0401
0000735462;6.6080;-15.5503;2.7629;0.0385;-0.1112;0.0366
0000735471;6.5864;-15.6868;2.9209;0.0564;-0.1124;0.0405
0000735480;6.4380;-15.6940;2.8371;0.0734;-0.1091;0.0432
0000735489;6.4596;-15.7778;2.8754;0.0725;-0.1164;0.0433
0000735498;6.4069;-15.7371;2.8036;0.0677;-0.1204;0.0441
0000735507;6.3159;-15.8472;2.7964;0.0690;-0.1176;0.0450
0000735516;6.3111;-15.7419;2.7366;0.0722;-0.1098;0.0422
0000735525;6.2082;-15.8017;2.6432;0.0774;-0.1034;0.0336
0000735534;6.2321;-15.7610;2.6264;0.0901;-0.0946;0.0305
0000735543;6.3303;-15.6437;2.6552;0.1095;-0.0915;0.0258
0000735552;6.3494;-15.6916;2.5187;0.1195;-0.0803;0.0176
0000735561;6.1699;-15.6317;2.6695;0.1383;-0.0670;0.0157
0000735570;6.0501;-15.6964;2.6767;0.1427;-0.0426;0.0120
0000735579;6.2201;-15.6988;2.7533;0.1422;-0.0228;0.0043
0000735588;6.1507;-15.6341;2.7892;0.1611;-0.0127;-0.0077
0000735597;6.1076;-15.7108;2.8922;0.1715;0.0104;-0.0136
0000735606;6.2249;-15.5958;2.9856;0.1700;0.0268;-0.0208
0000735615;6.1483;-15.5599;2.9904;0.1559;0.0537;-0.0245
0000735624;6.1579;-15.7108;3.0598;0.1456;0.0701;-0.0254
0000735633;5.9783;-15.7778;3.1819;0.1306;0.0998;-0.0332
0000735642;5.9544;-15.6772;3.2370;0.1182;0.1340;-0.0409
0000735651;5.7724;-15.7658;3.5171;0.0862;0.1864;-0.0421
0000735660;5.7628;-15.6964;3.6224;0.0878;0.2356;-0.0525
0000735669;5.7126;-15.7586;3.7421;0.0833;0.2827;-0.0536
0000735678;5.8347;-15.6078;3.7804;0.0670;0.3203;-0.0569
0000735687;5.8849;-15.6916;3.6895;0.0569;0.3471;-0.0593
0000735696;6.0023;-15.5958;3.5482;0.0522;0.3600;-0.0657
0000735705;6.2560;-15.6844;3.3878;0.0505;0.3591;-0.0706
0000735714;6.3949;-15.6078;3.1723;0.0377;0.3396;-0.0709
0000735723;6.7325;-15.5408;2.8898;0.0230;0.3112;-0.0646
0000735732;6.8857;-15.5072;2.7342;0.0269;0.2538;-0.0542
0000735741;7.1563;-15.3205;2.5067;0.0493;0.1923;-0.0418
0000735750;7.5441;-15.2535;2.3990;0.0846;0.1199;-0.0232
0000735759;7.8290;-15.1744;2.1883;0.1268;0.0510;-0.0064
0000735768;7.9080;-15.1433;2.1931;0.1721;-0.0285;0.0089
0000735777;8.0900;-15.1601;2.2505;0.2257;-0.1132;0.0077
0000735786;7.8937;-15.2511;2.3774;0.2630;-0.1613;0.0175
0000735795;7.6519;-15.3420;2.5331;0.2963;-0.2228;0.0003
0000735804;7.1251;-15.5168;2.6312;0.3062;-0.2589;-0.0160
0000735813;6.6295;-15.6270;2.7485;0.3028;-0.2923;-0.0501
0000735822;6.0549;-15.7323;2.8850;0.2850;-0.3026;-0.0793
0000735831;5.6192;-15.9310;3.0574;0.2579;-0.2818;-0.1095
0000735840;5.3846;-15.8999;3.1101;0.2485;-0.2653;-0.1351
0000735849;5.5282;-15.6964;3.1675;0.2318;-0.2288;-0.1450
0000735858;5.5426;-15.7682;3.1675;0.2241;-0.1945;-0.1585
0000735867;5.4779;-15.9358;3.2178;0.2224;-0.1636;-0.1643
0000735876;5.8395;-15.6078;3.2537;0.2288;-0.1326;-0.1609
0000735885;6.1387;-15.2894;3.2513;0.2385;-0.1006;-0.1648
0000735894;6.1699;-15.4881;3.2178;0.2625;-0.0638;-0.1616
0000735903;6.3351;-15.2199;3.2178;0.2781;-0.0222;-0.1549
0000735995;5.6360;-15.9837;4.1180;0.2141;0.3384;-0.1783
0000736004;5.6623;-15.9550;4.4221;0.1880;0.3697;-0.1909
0000736013;5.9520;-15.9765;4.4029;0.1343;0.4070;-0.1932
0000736022;5.9831;-15.9741;4.3239;0.0837;0.4237;-0.2118
0000736031;5.8993;-16.0890;4.2808;0.0326;0.4494;-0.2134
0000736040;6.0645;-15.8903;3.9911;-0.0111;0.4606;-0.2241
0000736049;6.2608;-15.8640;3.7972;-0.0410;0.4646;-0.2222
0000736058;6.3422;-15.6293;3.6344;-0.0690;0.4679;-0.2352
0000736067;6.6559;-15.5168;3.3327;-0.0657;0.4651;-0.2324
0000736076;6.6272;-15.3564;3.1771;-0.0528;0.4603;-0.2224
0000736085;6.7612;-15.0284;3.1053;-0.0157;0.4426;-0.2108
0000736094;6.9025;-15.0093;3.0167;0.0203;0.4202;-0.1998
0000736103;6.8833;-15.1697;2.9066;0.0552;0.3974;-0.1825
0000736112;6.9288;-15.1577;3.0742;0.0893;0.3637;-0.1620
0000736121;7.0797;-15.2032;3.1819;0.1096;0.3263;-0.1452
0000736130;7.1658;-15.4091;3.4141;0.1211;0.2813;-0.1247
0000736139;7.1587;-15.5049;3.5721;0.1168;0.2345;-0.1096
0000736148;7.0964;-15.6174;3.8499;0.0925;0.1933;-0.0959
0000736157;7.0725;-15.8065;4.0390;0.0641;0.1427;-0.0823
0000736166;7.1946;-15.7706;4.0989;0.0180;0.0986;-0.0624
0000736175;7.1204;-15.8760;4.2018;-0.0232;0.0671;-0.0493
0000736184;6.9887;-15.8664;4.2473;-0.0649;0.0286;-0.0438
0000736193;6.7971;-15.7922;4.3742;-0.1143;0.0108;-0.0334
0000736202;6.6870;-15.7850;4.1468;-0.1439;-0.0135;-0.0349
0000736211;6.6439;-15.8783;4.1587;-0.1772;-0.0308;-0.0361
0000736220;6.5793;-15.7275;4.0390;-0.2080;-0.0389;-0.0280
0000736229;6.3949;-15.5551;3.8283;-0.2118;-0.0542;-0.0349
0000736238;6.4596;-15.3061;3.7302;-0.2153;-0.0521;-0.0236
0000736247;6.4643;-15.1122;3.6009;-0.2124;-0.0655;-0.0274
0000736256;6.2369;-15.3851;3.6009;-0.2132;-0.0586;-0.0151
0000736265;6.2800;-15.2750;3.3926;-0.1984;-0.0489;-0.0109
0000736274;6.2632;-15.1505;3.4548;-0.1831;-0.0381;-0.0079
0000736283;6.4452;-15.1050;3.4069;-0.1664;-0.0428;-0.0024
0000736292;6.2034;-15.0500;3.4524;-0.1612;-0.0296;-0.0011
0000736301;6.4428;-14.8345;3.3734;-0.1323;-0.0353;-0.0041
0000736310;6.4117;-14.8057;3.4381;-0.1178;-0.0250;0.0108
0000736319;6.5074;-15.0523;3.5123;-0.0918;-0.0177;0.0155
0000736328;6.4907;-15.1721;3.6009;-0.0761;-0.0270;0.0169
0000736337;6.5960;-15.1649;3.5554;-0.0476;-0.0385;0.0205
0000736346;6.6583;-15.2678;3.7637;-0.0500;-0.0382;0.0192
0000736355;6.4979;-15.4043;3.8523;-0.0485;-0.0466;0.0241
0000736364;6.5936;-15.4498;3.7852;-0.0338;-0.0517;0.0296
0000736373;6.5625;-15.3420;3.9313;-0.0288;-0.0564;0.0277
0000736382;6.2656;-15.4618;3.8978;-0.0340;-0.0618;0.0322
0000736391;6.3614;-15.5049;3.9097;-0.0191;-0.0779;0.0273
0000736400;6.6128;-15.2367;4.0247;-0.0229;-0.0706;0.0348
0000736409;6.3303;-15.2582;3.9648;-0.0213;-0.0781;0.0242
0000736418;6.2776;-15.2989;3.9265;-0.0245;-0.0655;0.0358
0000736427;6.1196;-15.3253;3.9193;-0.0201;-0.0686;0.0308
0000736436;6.1938;-15.3444;3.8738;-0.0297;-0.0562;0.0297
0000736445;6.3542;-15.2271;3.6966;-0.0374;-0.0541;0.0309
0000736454;6.2704;-15.3037;3.6775;-0.0342;-0.0526;0.0261
0000736463;6.2656;-15.2894;3.7373;-0.0388;-0.0424;0.0318
0000736472;6.2513;-15.3684;3.5769;-0.0389;-0.0488;0.0310
0000736481;6.3398;-15.2894;3.5219;-0.0300;-0.0445;0.0365
0000736490;6.2465;-15.3397;3.4716;-0.0196;-0.0492;0.0404
0000736499;6.3805;-15.4091;3.3950;-0.0024;-0.0468;0.0481
0000736508;6.2537;-15.4091;3.4285;0.0148;-0.0548;0.0514
0000736517;6.3662;-15.5551;3.4620;0.0222;-0.0484;0.0558
0000736526;6.3351;-15.4187;3.5267;0.0266;-0.0512;0.0558
0000736535;6.2991;-15.3277;3.5769;0.0234;-0.0502;0.0576
0000736544;6.3662;-15.4905;3.7373;0.0057;-0.0421;0.0618
0000736553;6.4332;-15.3899;3.6966;-0.0036;-0.0508;0.0552
0000736562;6.3470;-15.4115;3.7948;-0.0073;-0.0520;0.0628
0000736571;6.3877;-15.3564;3.7230;-0.0208;-0.0597;0.0638
0000736580;6.3087;-15.3133;3.7421;-0.0160;-0.0642;0.0594
0000736589;6.3662;-15.1744;3.6440;-0.0121;-0.0721;0.0592
0000736598;6.5888;-15.0404;3.6727;-0.0048;-0.0762;0.0590
0000736607;6.4883;-15.1170;3.5338;0.0096;-0.0857;0.0640
0000736616;6.4284;-15.1673;3.5530;0.0209;-0.0910;0.0633
0000736625;6.2920;-15.3947;3.5075;0.0453;-0.1099;0.0566
0000736712;6.2776;-15.4761;4.0438;0.0974;-0.1583;0.0661
0000736721;6.2441;-15.3660;4.0342;0.0630;-0.1444;0.0766
0000736730;6.0597;-15.4211;4.0103;0.0416;-0.1522;0.0657
0000736739;6.1914;-15.3780;3.9097;0.0179;-0.1410;0.0723
0000736748;6.3398;-15.4282;3.8116;0.0191;-0.1462;0.0622
0000736757;6.3111;-15.4354;3.6152;0.0212;-0.1415;0.0667
0000736766;6.2345;-15.4163;3.5482;0.0336;-0.1440;0.0566
0000736775;6.4643;-15.2247;3.5195;0.0384;-0.1432;0.0658
0000736784;6.2010;-15.3636;3.4668;0.0562;-0.1480;0.0620
0000736793;6.5338;-15.1673;3.5027;0.0552;-0.1467;0.0750
0000736802;6.5266;-15.3564;3.6009;0.0670;-0.1612;0.0719
0000736811;6.4093;-15.4450;3.7302;0.0566;-0.1633;0.0874
0000736820;6.4093;-15.6078;3.7469;0.0525;-0.1875;0.0878
0000736829;6.4141;-15.7227;3.8834;0.0336;-0.1974;0.0995
0000736838;6.5577;-15.5886;3.8164;0.0075;-0.2144;0.1026
0000736847;6.6056;-15.6509;3.8235;-0.0044;-0.2366;0.0981
0000736856;6.6152;-15.5360;3.7421;-0.0310;-0.2376;0.1023
0000736865;6.5170;-15.4809;3.7158;-0.0430;-0.2578;0.0989
0000736874;6.4979;-15.3636;3.7158;-0.0514;-0.2582;0.1038
0000736883;6.4835;-15.4043;3.6990;-0.0490;-0.2709;0.0979
0000736892;6.3566;-15.3804;3.6559;-0.0537;-0.2731;0.1039
0000736901;6.4787;-15.3157;3.6272;-0.0401;-0.2850;0.1045
0000736910;6.4021;-15.2966;3.6105;-0.0460;-0.2870;0.1172
0000736919;6.5960;-15.2487;3.5985;-0.0316;-0.3067;0.1180
0000736928;6.5170;-15.3013;3.6272;-0.0389;-0.3100;0.1270
0000736937;6.6655;-15.2535;3.5889;-0.0322;-0.3343;0.1278
0000736946;6.6415;-15.3444;3.5482;-0.0366;-0.3379;0.1340
0000736955;6.4787;-15.3444;3.5554;-0.0286;-0.3568;0.1372
0000736964;6.5362;-15.2630;3.4429;-0.0188;-0.3790;0.1339
0000736973;6.6415;-15.2223;3.5051;-0.0137;-0.3872;0.1331
0000736982;6.4715;-15.3181;3.4860;0.0036;-0.4042;0.1319
0000736991;6.4380;-15.2056;3.5027;0.0104;-0.4062;0.1376
0000737000;6.2537;-15.4139;3.5458;0.0252;-0.4126;0.1360
0000737009;6.3494;-15.4450;3.5362;0.0282;-0.4096;0.1348
0000737018;6.2560;-15.3636;3.5458;0.0372;-0.4046;0.1410
0000737027;6.3949;-15.3804;3.5051;0.0358;-0.4070;0.1462
0000737036;6.2489;-15.5192;3.5530;0.0376;-0.4114;0.1523
0000737045;6.2465;-15.5049;3.5769;0.0330;-0.4072;0.1619
0000737054;6.3231;-15.4713;3.5817;0.0300;-0.4108;0.1605
0000737063;6.4212;-15.3061;3.5961;0.0400;-0.4178;0.1600
0000737072;6.3446;-15.2678;3.5913;0.0436;-0.4161;0.1559
0000737081;6.2584;-15.3349;3.6559;0.0473;-0.4161;0.1496
0000737090;6.2824;-15.4115;3.6368;0.0490;-0.4239;0.1368
0000737099;6.0956;-15.5384;3.7350;0.0450;-0.4141;0.1434
0000737108;6.1004;-15.4330;3.8475;0.0422;-0.4078;0.1376
0000737117;6.0118;-15.4737;3.7541;0.0360;-0.3925;0.1315
0000737126;5.9687;-15.4187;3.8140;0.0258;-0.3700;0.1260
0000737135;5.8299;-15.4091;3.9193;0.0172;-0.3423;0.1278
0000737144;5.9328;-15.3899;3.8714;0.0141;-0.3235;0.1170
0000737153;5.9089;-15.2199;3.8283;0.0025;-0.2940;0.1138
0000737162;5.9448;-15.1721;3.8834;-0.0039;-0.2711;0.1088
0000737171;5.7988;-15.2343;3.7996;0.0137;-0.2473;0.1014
0000737180;5.8419;-15.1792;3.9409;0.0502;-0.2220;0.0975
0000737189;6.0047;-15.2582;3.9265;0.0489;-0.1998;0.0797
0000737198;5.8035;-15.4737;4.0486;0.0497;-0.1929;0.0678
0000737207;6.1962;-15.1505;3.9840;0.0389;-0.1707;0.0606
0000737216;6.1938;-15.2391;3.9504;0.0276;-0.1632;0.0436
0000737225;5.8275;-15.4091;3.9744;0.0087;-0.1424;0.0424
0000737234;6.0310;-15.2439;3.9193;0.0147;-0.1416;0.0274
0000737243;5.7652;-15.3780;3.8499;0.0096;-0.1240;0.0254
0000737252;5.9185;-15.3037;3.7876;0.0294;-0.1202;0.0109
0000737261;6.3398;-15.4282;3.6966;0.0418;-0.1015;0.0069
0000737270;6.3662;-15.1673;3.7637;0.0456;-0.0974;-0.0112
0000737279;6.2201;-15.2032;3.7685;0.0256;-0.0819;-0.0273
0000737288;6.0501;-15.2678;3.7350;0.0241;-0.0675;-0.0401
0000737297;5.9256;-15.3061;3.8379;0.0469;-0.0494;-0.0394
0000737306;5.9233;-15.2199;3.7278;0.0546;-0.0266;-0.0381
0000737315;5.9137;-15.4067;3.8666;0.0681;-0.0097;-0.0492
0000737324;6.0478;-15.2966;3.8499;0.0588;0.0055;-0.0605
0000737333;5.9664;-15.3468;3.9696;0.0412;0.0282;-0.0681
0000737342;6.0118;-15.3277;4.1061;0.0324;0.0474;-0.0829
0000737430;5.6886;-15.3037;3.8547;-0.0373;0.3158;-0.1966
0000737439;5.6312;-15.3756;3.8858;-0.0344;0.3433;-0.2130
0000737448;5.7964;-15.1266;3.9456;-0.0324;0.3722;-0.2293
0000737457;5.7245;-15.3349;3.9409;-0.0416;0.4080;-0.2403
0000737466;5.9903;-15.0523;3.9648;-0.0328;0.4325;-0.2521
0000737475;5.8921;-15.2056;4.1252;-0.0358;0.4651;-0.2605
0000737484;5.9520;-15.3205;4.0151;-0.0272;0.4843;-0.2762
0000737493;5.7892;-15.4258;4.0223;-0.0297;0.5077;-0.2821
0000737502;6.0334;-15.3636;4.0199;-0.0401;0.5249;-0.2934
0000737511;6.1531;-15.2128;3.9504;-0.0477;0.5363;-0.3130
0000737520;5.8179;-15.2630;3.8427;-0.0578;0.5572;-0.3143
0000737529;6.2010;-15.2056;3.8475;-0.0529;0.5665;-0.3265
0000737538;6.2608;-14.9757;3.8714;-0.0394;0.5797;-0.3316
0000737547;6.0382;-15.0380;3.9145;-0.0308;0.5975;-0.3316
0000737556;6.2273;-15.0428;3.9289;-0.0121;0.6074;-0.3401
0000737565;6.1842;-15.1792;3.9792;-0.0069;0.6098;-0.3415
0000737574;6.2968;-15.1098;4.0247;-0.0101;0.6166;-0.3444
0000737583;6.3375;-15.2271;4.0103;-0.0091;0.6194;-0.3504
0000737592;6.3446;-15.2463;4.0390;-0.0273;0.6326;-0.3487
0000737601;6.2632;-15.4570;4.1875;-0.0404;0.6293;-0.3525
0000737610;6.4691;-15.3947;4.0749;-0.0520;0.6335;-0.3544
0000737619;6.5841;-15.1577;4.0701;-0.0683;0.6454;-0.3563
0000737628;6.2896;-15.3588;4.1156;-0.0762;0.6499;-0.3569
0000737637;6.5003;-15.1721;3.9863;-0.0662;0.6556;-0.3593
0000737646;6.1483;-15.3253;3.8930;-0.0761;0.6699;-0.3604
0000737655;6.4045;-15.0883;3.8666;-0.0616;0.6735;-0.3688
0000737664;6.3159;-15.2295;3.7397;-0.0541;0.6852;-0.3665
0000737673;6.3255;-15.1721;3.6895;-0.0369;0.6881;-0.3733
0000737682;6.5122;-15.1457;3.6823;-0.0261;0.6905;-0.3706
0000737691;6.6391;-15.1098;3.6248;-0.0088;0.6924;-0.3684
0000737700;6.7397;-15.1481;3.4764;0.0085;0.6844;-0.3683
0000737709;6.8307;-15.1888;3.5841;0.0233;0.6695;-0.3628
0000737718;6.7804;-15.3420;3.5817;0.0221;0.6570;-0.3563
0000737727;6.6870;-15.4450;3.7421;0.0240;0.6328;-0.3540
0000737736;6.8546;-15.4019;3.8906;0.0193;0.6163;-0.3527
0000737745;6.6846;-15.4067;3.8906;0.0173;0.6051;-0.3523
0000737754;6.3470;-15.4665;4.0127;0.0221;0.5877;-0.3679
0000737763;6.4524;-15.2894;3.9361;0.0045;0.5786;-0.3704
0000737772;6.3327;-15.4019;4.0390;0.0040;0.5637;-0.3886
0000737781;6.3231;-15.3301;4.0534;-0.0004;0.5510;-0.3958
0000737790;6.2824;-15.3397;4.0103;-0.0109;0.5433;-0.4060
0000737799;6.2752;-15.4450;3.9504;-0.0179;0.5420;-0.4097
0000737808;6.2058;-15.4187;3.9193;-0.0155;0.5397;-0.4249
0000737817;6.5529;-15.0978;3.8954;-0.0277;0.5494;-0.4120
0000737826;6.5745;-15.2175;3.8379;-0.0278;0.5521;-0.4085
0000737835;6.5003;-15.3301;3.9337;-0.0329;0.5570;-0.3893
0000737844;6.7301;-15.1529;3.8211;-0.0297;0.5537;-0.3764
0000737853;6.6367;-15.2247;3.9887;-0.0276;0.5464;-0.3600
0000737862;6.7924;-15.1194;3.9265;-0.0257;0.5247;-0.3448
0000737871;6.8091;-15.0571;3.8642;-0.0368;0.5077;-0.3194
0000737880;6.9743;-14.9302;3.8355;-0.0282;0.4795;-0.3091
0000737889;7.0198;-14.8441;3.7038;-0.0125;0.4604;-0.2886
0000737898;6.9647;-14.9494;3.6823;0.0100;0.4209;-0.2766
0000737907;6.9073;-15.0763;3.6368;0.0298;0.3913;-0.2558
0000737916;6.9288;-15.1385;3.5386;0.0461;0.3484;-0.2479
0000737925;6.8331;-15.0284;3.6392;0.0572;0.3150;-0.2337
0000737934;6.9839;-15.2128;3.6966;0.0842;0.2831;-0.2128
0000737943;6.9528;-15.3660;3.7421;0.0947;0.2477;-0.2037
0000737952;6.9240;-15.1936;3.7900;0.0886;0.2104;-0.1943
0000737961;7.0916;-15.3253;3.8690;0.1029;0.1768;-0.1831
0000737970;6.9671;-15.3588;3.9935;0.0963;0.1470;-0.1597
0000737979;6.8929;-15.4211;4.0270;0.0957;0.1045;-0.1589
0000737988;6.9480;-15.3875;4.0151;0.0809;0.0805;-0.1408
0000737997;6.9073;-15.4067;4.0247;0.0658;0.0598;-0.1307
0000738006;6.8091;-15.5288;4.0175;0.0537;0.0420;-0.1247
0000738015;6.7852;-15.3899;4.0630;0.0406;0.0325;-0.1147
0000738024;6.7612;-15.3492;3.9097;0.0337;0.0083;-0.1227
0000738033;6.5505;-15.4713;3.9193;0.0273;-0.0008;-0.1128
0000738042;6.7493;-15.5096;3.9145;0.0318;-0.0013;-0.0935
0000738051;6.7493;-15.4618;4.0749;0.0336;-0.0211;-0.0890
0000738060;6.6583;-15.3277;4.0175;0.0148;-0.0278;-0.0774
0000738203;6.6200;-15.1577;3.7373;0.0044;-0.0806;-0.0149
0000738212;6.6655;-15.0691;3.8547;0.0161;-0.0815;-0.0221
0000738221;6.7445;-15.0643;3.8762;0.0248;-0.0785;-0.0184
0000738230;6.5505;-15.1864;3.9002;0.0378;-0.0681;-0.0213
0000738239;6.5601;-15.2559;3.9361;0.0432;-0.0614;-0.0224
0000738248;6.6798;-15.1697;3.9528;0.0453;-0.0546;-0.0197
0000738257;6.8498;-15.1553;3.8834;0.0392;-0.0498;-0.0155
0000738266;6.6056;-15.3804;3.9816;0.0370;-0.0537;-0.0213
0000738275;6.5290;-15.3708;4.0223;0.0250;-0.0481;-0.0261
0000738284;6.7516;-15.2319;4.0055;0.0124;-0.0518;-0.0220
0000738293;6.7229;-15.3301;4.0366;-0.0001;-0.0520;-0.0248
0000738302;6.8067;-15.1697;3.9744;0.0043;-0.0542;-0.0265
0000738311;6.8307;-15.2750;3.8714;0.0044;-0.0502;-0.0241
0000738320;6.7995;-15.2822;3.8499;0.0171;-0.0465;-0.0257
0000738329;6.6295;-15.2511;3.9456;0.0228;-0.0516;-0.0228
0000738338;6.7469;-15.2367;4.0486;0.0179;-0.0520;-0.0216
0000738347;6.7804;-15.3420;3.9361;0.0233;-0.0620;-0.0262
0000738356;6.8714;-15.2894;4.0965;0.0040;-0.0540;-0.0193
0000738365;6.6702;-15.4785;4.2186;-0.0145;-0.0581;-0.0189
0000738374;6.7349;-15.6461;4.2329;-0.0296;-0.0580;-0.0129
0000738383;6.7205;-15.3708;4.3167;-0.0510;-0.0554;-0.0039
0000738392;6.7924;-15.3540;4.1899;-0.0604;-0.0646;-0.0084
0000738401;6.7349;-15.2798;4.1635;-0.0730;-0.0661;-0.0051
0000738410;6.6726;-15.3397;4.1635;-0.0837;-0.0673;-0.0081
0000738419;6.5505;-15.2870;4.0845;-0.0851;-0.0710;-0.0128
0000738428;6.7516;-15.0021;4.0270;-0.0882;-0.0661;-0.0092
0000738437;6.7947;-15.1553;4.0438;-0.0881;-0.0606;-0.0087
0000738446;6.5673;-15.1936;4.1228;-0.0786;-0.0632;-0.0071
0000738455;6.6726;-15.2367;3.9169;-0.0753;-0.0561;-0.0104
0000738464;6.5817;-15.3085;3.9863;-0.0731;-0.0517;-0.0107
0000738473;6.7301;-15.1960;3.9025;-0.0675;-0.0514;-0.0125
0000738482;6.7062;-15.3085;3.9887;-0.0775;-0.0465;-0.0081
0000738491;6.5841;-15.3373;3.8834;-0.0766;-0.0424;-0.0113
0000738500;6.7852;-15.2654;3.9241;-0.0735;-0.0452;-0.0181
0000738509;6.6918;-15.1864;3.8331;-0.0763;-0.0441;-0.0179
0000738518;6.6822;-15.2966;3.9648;-0.0754;-0.0446;-0.0167
0000738527;6.6152;-15.2223;3.9983;-0.0765;-0.0438;-0.0171
0000738536;6.6655;-15.2774;3.8906;-0.0733;-0.0493;-0.0217
0000738545;6.8570;-15.2798;3.8547;-0.0782;-0.0437;-0.0165
0000738554;6.6631;-15.3588;3.8211;-0.0733;-0.0510;-0.0149
0000738563;6.6080;-15.2199;3.7757;-0.0709;-0.0496;-0.0133
0000738572;6.7109;-15.3468;3.7278;-0.0742;-0.0494;-0.0085
0000738581;6.5960;-15.3516;3.7302;-0.0674;-0.0490;0.0008
0000738590;6.5769;-15.3660;3.7948;-0.0662;-0.0521;0.0017
0000738599;6.6008;-15.3253;3.8666;-0.0549;-0.0549;0.0069
0000738608;6.5314;-15.2463;3.8164;-0.0466;-0.0460;0.0152
0000738617;6.7947;-14.9853;3.8331;-0.0366;-0.0480;0.0151
0000738626;6.7971;-15.0476;3.8642;-0.0421;-0.0485;0.0116
0000738635;6.5888;-15.1146;4.0103;-0.0325;-0.0358;0.0129
0000738644;6.5841;-15.2750;3.9576;-0.0294;-0.0329;0.0073
0000738653;6.4572;-15.4019;4.0390;-0.0434;-0.0179;0.0051
0000738662;6.5386;-15.4378;4.1396;-0.0488;-0.0191;-0.0043
0000738671;6.5218;-15.4618;4.0893;-0.0670;-0.0073;-0.0068
0000738680;6.4428;-15.4929;3.9456;-0.0837;-0.0047;-0.0119
0000738689;6.3135;-15.4761;3.8547;-0.0897;-0.0084;-0.0205
0000738698;6.5098;-15.3971;3.6966;-0.0949;-0.0017;-0.0209
0000738707;6.5936;-15.2822;3.6057;-0.0834;0.0023;-0.0221
0000738716;6.7014;-15.0930;3.5554;-0.0573;0.0032;-0.0229
0000738725;6.8953;-15.0404;3.5817;-0.0412;0.0136;-0.0163
0000738734;6.5673;-15.2008;3.6512;-0.0185;0.0111;-0.0159
0000738743;6.6463;-15.2918;3.9073;-0.0151;0.0179;-0.0133
0000738752;6.5864;-15.4306;4.2162;-0.0294;0.0233;-0.0079
0000738761;6.6200;-15.4067;4.1252;-0.0522;0.0324;-0.0035
0000738770;6.6415;-15.5456;4.2401;-0.0835;0.0434;0.0016
0000738779;6.4835;-15.5527;4.3359;-0.1128;0.0389;0.0048
0000738788;6.5386;-15.5168;4.3407;-0.1363;0.0397;-0.0009
0000738797;6.6439;-15.4713;4.1324;-0.1627;0.0482;0.0063
0000738806;6.7397;-15.3013;4.0797;-0.1656;0.0457;-0.0059
0000738815;6.4356;-15.3875;3.8307;-0.1619;0.0538;0.0004
0000738824;6.6343;-15.2152;3.7086;-0.1479;0.0480;-0.0091
0000738833;6.6272;-15.1649;3.6176;-0.1295;0.0521;-0.0021
0000738920;6.6607;-15.2415;3.9121;-0.0629;0.0028;0.0076
0000738929;6.7086;-15.1218;3.8834;-0.0662;0.0040;0.0053
0000738938;6.4452;-15.2894;3.8571;-0.0588;-0.0027;-0.0083
0000738947;6.5505;-15.2391;3.7924;-0.0581;-0.0005;-0.0085
0000738956;6.5769;-15.1098;3.6895;-0.0410;-0.0069;-0.0207
0000738965;6.6056;-15.1146;3.6416;-0.0293;0.0000;-0.0212
0000738974;6.4643;-15.1218;3.6607;-0.0024;-0.0009;-0.0290
0000738983;6.5721;-14.9662;3.6368;0.0176;0.0161;-0.0252
0000738992;6.6583;-14.9877;3.6129;0.0377;0.0254;-0.0262
0000739001;6.6439;-14.9925;3.7685;0.0573;0.0314;-0.0298
0000739010;6.4955;-15.1673;3.7876;0.0657;0.0448;-0.0333
0000739019;6.4452;-15.2750;3.9480;0.0558;0.0675;-0.0293
0000739028;6.5697;-15.3085;3.8595;0.0659;0.0783;-0.0416
0000739037;6.6128;-15.5527;3.9002;0.0564;0.0935;-0.0485
0000739046;6.3422;-15.5767;3.8403;0.0432;0.1106;-0.0554
0000739055;6.3734;-15.5216;3.6847;0.0366;0.1223;-0.0733
0000739064;6.1746;-15.4187;3.5027;0.0238;0.1466;-0.0798
0000739073;6.2465;-15.2247;3.3040;0.0317;0.1596;-0.1038
0000739082;6.2632;-15.2989;3.2537;0.0390;0.1913;-0.1136
0000739091;6.2991;-14.9326;3.1963;0.0893;0.2169;-0.1298
0000739100;6.1746;-14.8105;3.1101;0.1268;0.2433;-0.1359
0000739109;6.3805;-14.8512;3.3423;0.1624;0.2649;-0.1531
0000739118;6.3398;-14.9518;3.4692;0.1896;0.2920;-0.1588
0000739127;6.3183;-15.1170;3.5865;0.2158;0.3066;-0.1663
0000739136;6.2034;-15.2128;3.7613;0.2121;0.3138;-0.1864
0000739145;6.4284;-15.4115;3.9169;0.2232;0.3272;-0.1952
0000739154;6.3470;-15.5886;3.9959;0.2081;0.3384;-0.1982
0000739163;6.3997;-15.4665;4.1180;0.1719;0.3444;-0.2198
0000739172;6.3877;-15.6006;4.0558;0.1551;0.3559;-0.2278
0000739181;6.2991;-15.5671;4.0773;0.1408;0.3684;-0.2342
0000739190;6.3949;-15.5432;4.1252;0.1252;0.3785;-0.2280
0000739199;6.5625;-15.5791;3.9504;0.1017;0.3888;-0.2304
0000739208;6.7516;-15.5695;3.8930;0.1092;0.3765;-0.2298
0000739217;6.7253;-15.4234;4.0103;0.0985;0.3633;-0.2136
0000739226;7.1802;-15.0643;4.0007;0.0735;0.3309;-0.2132
0000739235;7.1012;-15.4929;4.1946;0.0750;0.3058;-0.1936
0000739244;7.3502;-15.5647;4.1492;0.0773;0.2662;-0.1763
0000739251;7.5824;-15.5192;4.2377;0.0592;0.2306;-0.1544
0000739259;7.4077;-15.6246;4.2928;0.0320;0.1835;-0.1400
0000739267;7.7405;-15.6222;4.2784;0.0125;0.1307;-0.1308
0000739275;7.5537;-15.5479;4.2473;-0.0249;0.0758;-0.1155
0000739283;7.6902;-15.4306;4.2569;-0.0520;0.0301;-0.0901
0000739291;7.5585;-15.4474;4.2090;-0.0795;-0.0221;-0.0687
0000739299;7.5513;-15.3157;4.0893;-0.0857;-0.0757;-0.0488
0000739307;7.5944;-15.2271;4.0342;-0.0918;-0.1059;-0.0250
0000739315;7.3933;-15.2630;3.9720;-0.0962;-0.1514;-0.0017
0000739323;7.2592;-15.2654;3.9648;-0.0910;-0.1945;0.0123
0000739331;7.2018;-15.2343;3.9409;-0.0902;-0.2236;0.0245
0000739339;7.2664;-15.1721;3.9409;-0.0866;-0.2567;0.0350
0000739347;7.2185;-15.0523;3.6943;-0.0982;-0.2874;0.0402
0000739355;6.9001;-15.1050;3.7421;-0.0846;-0.3098;0.0462
0000739363;7.0485;-14.8464;3.6727;-0.0678;-0.3305;0.0622
