time;acc_x;acc_y;acc_z;gyro_x;gyro_y;gyro_z
0000798311;5.6264;-15.7874;-3.7469;-0.0047;-0.0358;-0.0115
0000798319;5.7628;-15.5575;-3.6990;-0.0131;-0.0302;-0.0109
0000798326;5.5833;-15.6820;-3.5362;-0.0108;-0.0344;-0.0119
0000798334;5.7245;-15.5240;-3.7493;-0.0152;-0.0348;-0.0104
0000798342;5.8562;-15.6078;-3.7804;-0.0153;-0.0412;-0.0145
0000798350;5.7844;-15.6246;-3.6464;-0.0128;-0.0382;-0.0160
0000798358;5.8514;-15.5982;-3.8140;-0.0151;-0.0350;-0.0119
0000798366;5.6647;-15.6317;-3.6847;-0.0204;-0.0322;-0.0120
0000798374;5.7197;-15.5288;-3.7158;-0.0143;-0.0368;-0.0148
0000798382;5.7150;-15.7778;-3.6559;-0.0147;-0.0338;-0.0123
0000798390;5.6719;-15.6629;-3.6392;-0.0218;-0.0328;-0.0055
0000798398;5.6407;-15.7778;-3.6655;-0.0180;-0.0365;-0.0131
0000798406;5.8251;-15.5647;-3.6703;-0.0139;-0.0370;-0.0139
0000798414;5.7245;-15.6629;-3.6847;-0.0201;-0.0332;-0.0136
0000798422;5.6479;-15.7586;-3.6703;-0.0167;-0.0336;-0.0159
0000798430;5.5857;-15.8376;-3.6512;-0.0213;-0.0289;-0.0068
0000798438;5.5115;-15.8999;-3.6966;-0.0161;-0.0329;-0.0172
0000798446;5.6120;-15.6796;-3.6416;-0.0097;-0.0362;-0.0113
0000798454;5.7078;-15.5479;-3.6344;-0.0099;-0.0301;-0.0072
0000798462;5.6192;-15.8257;-3.6751;-0.0049;-0.0342;-0.0157
0000798470;5.8251;-15.4737;-3.6344;-0.0095;-0.0305;-0.0124
0000798478;5.7652;-15.5072;-3.6607;-0.0156;-0.0301;-0.0115
0000798486;5.6431;-15.5336;-3.6559;-0.0164;-0.0308;-0.0137
0000798494;5.6336;-15.6198;-3.6152;-0.0183;-0.0297;-0.0117
0000798502;5.4564;-15.8065;-3.7158;-0.0164;-0.0381;-0.0168
0000798510;5.7341;-15.6485;-3.7086;-0.0185;-0.0313;-0.0148
0000798518;5.6982;-15.5743;-3.7110;-0.0220;-0.0300;-0.0108
0000798526;5.6120;-15.7922;-3.6775;-0.0167;-0.0276;-0.0147
0000798534;5.5929;-15.7515;-3.7541;-0.0097;-0.0321;-0.0183
0000798542;5.6527;-15.6030;-3.5554;-0.0120;-0.0340;-0.0157
0000798550;5.6671;-15.5695;-3.6990;-0.0073;-0.0406;-0.0191
0000798558;5.6264;-15.6844;-3.6775;-0.0164;-0.0302;-0.0140
0000798566;5.6910;-15.6581;-3.7038;-0.0125;-0.0284;-0.0168
0000798574;5.7940;-15.4929;-3.6919;-0.0117;-0.0341;-0.0195
0000798582;5.6288;-15.7802;-3.7230;-0.0156;-0.0278;-0.0135
0000798590;5.7389;-15.5982;-3.7110;-0.0179;-0.0276;-0.0180
0000798598;5.6767;-15.5695;-3.6272;-0.0133;-0.0350;-0.0211
0000798606;5.5617;-15.6820;-3.6703;-0.0193;-0.0305;-0.0168
0000798614;5.7293;-15.6150;-3.6296;-0.0165;-0.0314;-0.0220
0000798622;5.3989;-15.8975;-3.6919;-0.0073;-0.0332;-0.0224
0000798630;5.6240;-15.7155;-3.6583;-0.0144;-0.0300;-0.0148
0000798638;5.7796;-15.7012;-3.7278;-0.0113;-0.0290;-0.0143
0000798646;5.6743;-15.5647;-3.6559;-0.0115;-0.0306;-0.0157
0000798654;5.7341;-15.6748;-3.6990;-0.0101;-0.0312;-0.0205
0000798662;5.7006;-15.6341;-3.7493;-0.0116;-0.0364;-0.0167
0000798670;5.8131;-15.5264;-3.6919;-0.0127;-0.0312;-0.0132
0000798678;5.6264;-15.6581;-3.7182;-0.0108;-0.0296;-0.0132
0000798686;5.6886;-15.6198;-3.6919;-0.0159;-0.0274;-0.0151
0000798694;5.6120;-15.7179;-3.6248;-0.0180;-0.0289;-0.0151
0000798702;5.6647;-15.7155;-3.6512;-0.0120;-0.0298;-0.0204
0000798710;5.7054;-15.6293;-3.5841;-0.0143;-0.0289;-0.0156
0000798718;5.7604;-15.5360;-3.6368;-0.0077;-0.0276;-0.0246
0000798726;5.6168;-15.6341;-3.6655;-0.0085;-0.0278;-0.0230
0000798734;5.7030;-15.6653;-3.6200;-0.0120;-0.0240;-0.0177
0000798742;5.6575;-15.7491;-3.6296;-0.0115;-0.0248;-0.0230
0000798750;5.7006;-15.6054;-3.6536;-0.0087;-0.0265;-0.0197
0000798758;5.8035;-15.6054;-3.6200;-0.0120;-0.0246;-0.0180
0000798766;5.7197;-15.6772;-3.6344;-0.0137;-0.0264;-0.0211
0000798774;5.6862;-15.5934;-3.6966;-0.0096;-0.0320;-0.0236
0000798782;5.5905;-15.7682;-3.6559;-0.0079;-0.0332;-0.0215
0000798790;5.8275;-15.5910;-3.6727;-0.0116;-0.0272;-0.0141
0000798798;5.5617;-15.6653;-3.6943;-0.0119;-0.0276;-0.0133
0000798806;5.7533;-15.7898;-3.6655;-0.0063;-0.0321;-0.0189
0000798814;5.6360;-15.7515;-3.7134;-0.0075;-0.0289;-0.0160
0000798822;5.6455;-15.6988;-3.6823;-0.0119;-0.0253;-0.0169
0000798830;5.7748;-15.6868;-3.5961;-0.0097;-0.0336;-0.0187
0000798838;5.6695;-15.7802;-3.5817;-0.0063;-0.0380;-0.0220
0000798846;5.6838;-15.6988;-3.6631;-0.0109;-0.0318;-0.0147
0000798931;5.6958;-15.5312;-3.8235;0.0067;-0.0302;-0.0273
0000798939;5.8395;-15.3923;-3.7421;-0.0032;-0.0270;-0.0277
0000798947;5.6599;-15.6557;-3.6871;-0.0171;-0.0209;-0.0232
0000798955;5.9472;-15.6270;-3.6176;-0.0175;-0.0195;-0.0316
0000798963;5.8347;-15.6964;-3.5482;-0.0121;-0.0195;-0.0338
0000798971;5.7916;-15.8257;-3.5602;0.0000;-0.0165;-0.0384
0000798979;5.5809;-15.7826;-3.5721;-0.0009;-0.0193;-0.0386
0000798987;5.5761;-15.6653;-3.6607;0.0061;-0.0237;-0.0369
0000798995;5.6264;-15.4905;-3.6727;-0.0059;-0.0237;-0.0332
0000799003;5.6048;-15.3037;-3.5913;-0.0165;-0.0241;-0.0277
0000799011;5.5569;-15.4618;-3.5961;-0.0237;-0.0322;-0.0196
0000799019;5.5929;-15.5671;-3.5674;-0.0272;-0.0229;-0.0124
0000799027;5.6431;-15.6389;-3.5626;-0.0289;-0.0277;-0.0135
0000799035;5.7245;-15.6437;-3.5578;-0.0270;-0.0292;-0.0167
0000799043;5.7269;-15.8209;-3.5482;-0.0183;-0.0348;-0.0220
0000799051;5.5881;-15.6222;-3.5841;-0.0136;-0.0314;-0.0152
0000799059;5.8778;-15.5192;-3.6799;-0.0084;-0.0326;-0.0193
0000799067;5.7078;-15.5360;-3.5626;-0.0075;-0.0350;-0.0155
0000799075;5.8275;-15.4163;-3.5506;-0.0163;-0.0312;-0.0159
0000799083;5.8826;-15.4067;-3.6655;-0.0234;-0.0322;-0.0140
0000799091;5.6216;-15.6700;-3.7014;-0.0211;-0.0438;-0.0163
0000799099;5.7557;-15.4689;-3.6368;-0.0276;-0.0374;-0.0185
0000799107;5.6838;-15.7802;-3.6488;-0.0204;-0.0353;-0.0192
0000799115;5.5258;-15.8209;-3.6679;-0.0218;-0.0376;-0.0147
0000799123;5.7868;-15.6605;-3.6152;-0.0196;-0.0321;-0.0172
0000799131;5.8059;-15.6030;-3.7685;-0.0065;-0.0426;-0.0224
0000799139;5.7365;-15.6365;-3.7014;-0.0096;-0.0365;-0.0141
0000799147;5.7102;-15.5503;-3.6392;-0.0092;-0.0404;-0.0165
0000799155;5.8227;-15.6533;-3.7709;-0.0220;-0.0340;-0.0097
0000799163;5.8299;-15.6605;-3.6871;-0.0289;-0.0293;-0.0079
0000799171;5.8586;-15.5575;-3.6512;-0.0232;-0.0361;-0.0109
0000799179;5.6719;-15.7682;-3.5985;-0.0200;-0.0314;-0.0061
0000799187;5.8849;-15.6748;-3.6607;-0.0175;-0.0349;-0.0072
0000799195;5.6599;-15.8400;-3.7038;-0.0173;-0.0318;-0.0081
0000799203;5.9233;-15.6389;-3.6655;-0.0077;-0.0374;-0.0199
0000799211;5.8419;-15.5886;-3.6631;-0.0067;-0.0314;-0.0157
0000799219;5.9256;-15.5671;-3.6895;-0.0060;-0.0262;-0.0148
0000799227;5.7940;-15.6988;-3.7062;-0.0052;-0.0316;-0.0196
0000799235;5.6982;-15.5575;-3.7086;-0.0084;-0.0298;-0.0140
0000799243;5.6958;-15.6270;-3.7326;-0.0139;-0.0322;-0.0167
0000799251;5.6790;-15.6509;-3.6679;-0.0193;-0.0242;-0.0101
0000799259;5.5833;-15.6868;-3.5554;-0.0179;-0.0304;-0.0139
0000799267;5.5809;-15.7467;-3.5913;-0.0177;-0.0292;-0.0080
0000799275;5.6096;-15.6629;-3.6129;-0.0148;-0.0357;-0.0105
0000799283;5.6695;-15.6533;-3.5865;-0.0157;-0.0349;-0.0083
0000799291;5.6048;-15.7179;-3.6631;-0.0104;-0.0404;-0.0131
0000799299;5.8299;-15.7443;-3.6152;-0.0088;-0.0334;-0.0064
0000799307;5.6599;-15.7993;-3.6224;-0.0171;-0.0298;-0.0029
0000799315;5.8323;-15.5216;-3.6536;-0.0148;-0.0312;-0.0077
0000799323;5.5809;-15.7969;-3.6871;-0.0069;-0.0338;-0.0111
0000799331;5.6958;-15.6557;-3.6871;-0.0113;-0.0297;-0.0091
0000799339;5.6623;-15.6629;-3.6943;-0.0185;-0.0296;-0.0068
0000799347;5.6048;-15.6485;-3.6416;-0.0224;-0.0364;-0.0131
0000799355;5.5809;-15.7036;-3.6799;-0.0161;-0.0366;-0.0105
0000799363;5.6455;-15.6748;-3.6320;-0.0209;-0.0358;-0.0065
0000799371;5.6647;-15.6078;-3.7565;-0.0201;-0.0334;-0.0075
0000799379;5.6024;-15.6605;-3.6871;-0.0168;-0.0426;-0.0123
0000799387;5.7533;-15.6916;-3.6727;-0.0171;-0.0350;-0.0061
0000799395;5.6288;-15.6940;-3.6176;-0.0183;-0.0269;-0.0065
0000799403;5.5737;-15.7682;-3.5937;-0.0119;-0.0366;-0.0140
0000799411;5.7030;-15.7275;-3.6320;-0.0184;-0.0288;-0.0097
0000799419;5.6360;-15.7874;-3.6392;-0.0121;-0.0364;-0.0135
0000799427;5.6790;-15.7131;-3.6416;-0.0172;-0.0293;-0.0103
0000799435;5.7892;-15.6796;-3.7062;-0.0143;-0.0370;-0.0137
0000799443;5.6360;-15.7060;-3.7254;-0.0089;-0.0405;-0.0155
0000799451;5.5617;-15.6964;-3.5841;-0.0153;-0.0312;-0.0051
0000799459;5.7676;-15.7586;-3.6631;-0.0113;-0.0362;-0.0145
0000799467;5.7820;-15.5815;-3.6990;-0.0131;-0.0336;-0.0115
0000799553;5.6120;-15.6988;-3.6703;-0.0181;-0.0313;-0.0129
0000799561;5.6503;-15.8209;-3.6152;-0.0092;-0.0366;-0.0163
0000799569;5.7461;-15.5360;-3.6871;-0.0136;-0.0310;-0.0133
0000799577;5.7269;-15.6270;-3.6703;-0.0117;-0.0365;-0.0171
0000799585;5.8251;-15.6270;-3.6679;-0.0092;-0.0378;-0.0188
0000799593;5.8802;-15.5527;-3.6296;-0.0157;-0.0332;-0.0141
0000799601;5.6072;-15.6198;-3.5913;-0.0196;-0.0326;-0.0105
0000799609;5.8179;-15.5695;-3.6488;-0.0144;-0.0369;-0.0173
0000799617;5.5737;-15.8640;-3.6416;-0.0156;-0.0312;-0.0120
0000799625;5.7413;-15.7323;-3.6751;-0.0141;-0.0310;-0.0109
0000799633;5.6623;-15.7969;-3.6559;-0.0033;-0.0380;-0.0167
0000799641;5.6551;-15.6533;-3.6152;-0.0080;-0.0341;-0.0101
0000799649;5.7317;-15.7443;-3.5554;-0.0079;-0.0254;-0.0147
0000799657;5.6647;-15.7371;-3.6488;-0.0024;-0.0344;-0.0163
0000799665;5.7293;-15.5934;-3.5721;-0.0103;-0.0289;-0.0123
0000799673;5.6551;-15.6724;-3.6536;-0.0068;-0.0321;-0.0088
0000799681;5.6647;-15.6413;-3.6248;-0.0139;-0.0254;-0.0104
0000799689;5.5857;-15.7251;-3.5650;-0.0123;-0.0353;-0.0151
0000799697;5.5737;-15.7730;-3.6775;-0.0120;-0.0298;-0.0099
0000799705;5.6551;-15.5791;-3.6344;-0.0187;-0.0248;-0.0057
0000799713;5.7461;-15.6078;-3.5961;-0.0164;-0.0274;-0.0087
0000799721;5.6934;-15.6102;-3.6823;-0.0216;-0.0282;-0.0075
0000799729;5.8275;-15.5049;-3.6536;-0.0197;-0.0354;-0.0140
0000799737;5.7174;-15.6748;-3.6176;-0.0179;-0.0306;-0.0048
0000799745;5.6910;-15.5719;-3.6583;-0.0220;-0.0296;-0.0045
0000799753;5.5713;-15.6820;-3.6727;-0.0266;-0.0328;-0.0087
0000799761;5.5929;-15.7179;-3.5506;-0.0240;-0.0373;-0.0153
0000799769;5.7126;-15.5551;-3.6966;-0.0252;-0.0368;-0.0089
0000799777;5.7820;-15.6102;-3.6703;-0.0230;-0.0366;-0.0131
0000799785;5.6144;-15.6629;-3.6416;-0.0305;-0.0320;-0.0076
0000799793;5.6934;-15.6772;-3.6990;-0.0252;-0.0340;-0.0109
0000799801;5.6312;-15.6700;-3.7062;-0.0216;-0.0385;-0.0157
0000799809;5.7365;-15.6389;-3.5937;-0.0258;-0.0305;-0.0071
0000799817;5.5785;-15.7778;-3.6033;-0.0290;-0.0297;-0.0045
0000799825;5.7102;-15.7060;-3.6296;-0.0228;-0.0342;-0.0144
0000799833;5.7485;-15.5863;-3.5913;-0.0288;-0.0272;-0.0067
0000799841;5.7102;-15.6820;-3.6655;-0.0205;-0.0373;-0.0141
0000799849;5.5234;-15.7634;-3.7230;-0.0177;-0.0337;-0.0113
0000799857;5.6575;-15.7658;-3.6368;-0.0222;-0.0332;-0.0051
0000799865;5.7868;-15.7155;-3.6583;-0.0143;-0.0322;-0.0104
0000799873;5.7078;-15.6892;-3.6344;-0.0099;-0.0354;-0.0143
0000799881;5.6838;-15.6581;-3.7158;-0.0159;-0.0298;-0.0073
0000799889;5.7030;-15.6748;-3.7086;-0.0151;-0.0318;-0.0100
0000799897;5.7437;-15.5551;-3.6416;-0.0123;-0.0362;-0.0159
0000799905;5.6192;-15.6629;-3.5985;-0.0139;-0.0313;-0.0089
0000799913;5.6360;-15.8209;-3.6344;-0.0160;-0.0274;-0.0100
0000799921;5.7102;-15.7730;-3.6536;-0.0055;-0.0346;-0.0148
0000799929;5.7604;-15.6629;-3.6799;-0.0075;-0.0313;-0.0100
0000799937;5.6144;-15.7467;-3.6607;-0.0073;-0.0310;-0.0123
0000799945;5.4396;-15.7802;-3.6248;-0.0073;-0.0341;-0.0169
0000799953;5.5282;-15.7515;-3.7158;-0.0112;-0.0344;-0.0104
0000799961;5.6695;-15.6844;-3.6081;-0.0147;-0.0302;-0.0073
0000799969;5.5809;-15.7898;-3.5985;-0.0132;-0.0328;-0.0129
0000799977;5.7174;-15.6916;-3.6823;-0.0111;-0.0314;-0.0153
0000799985;5.7174;-15.6389;-3.6799;-0.0135;-0.0300;-0.0107
0000799993;5.7916;-15.6246;-3.6512;-0.0067;-0.0364;-0.0169
0000800001;5.7940;-15.6437;-3.7230;-0.0075;-0.0326;-0.0105
0000800009;5.8849;-15.5432;-3.6129;-0.0072;-0.0264;-0.0136
0000800017;5.4827;-15.7826;-3.7158;-0.0016;-0.0318;-0.0173
0000800025;5.6647;-15.7060;-3.6966;-0.0039;-0.0328;-0.0108
0000800033;5.6431;-15.6102;-3.7493;-0.0115;-0.0278;-0.0080
0000800041;5.6623;-15.6533;-3.6823;-0.0067;-0.0336;-0.0169
0000800049;5.6695;-15.6485;-3.6727;-0.0061;-0.0324;-0.0145
0000800057;5.7772;-15.6844;-3.6248;-0.0120;-0.0262;-0.0113
0000800065;5.6790;-15.6341;-3.5985;-0.0075;-0.0317;-0.0177
0000800073;5.6910;-15.6724;-3.6416;-0.0020;-0.0348;-0.0221
0000800081;5.7772;-15.7036;-3.6392;-0.0067;-0.0334;-0.0171
0000800089;5.7461;-15.6892;-3.6033;-0.0011;-0.0369;-0.0209
0000800097;5.6503;-15.6102;-3.6009;-0.0052;-0.0337;-0.0211
0000800183;5.6575;-15.6605;-3.7230;-0.0108;-0.0332;-0.0193
0000800191;5.7509;-15.6293;-3.6536;-0.0117;-0.0345;-0.0197
0000800199;5.7269;-15.6964;-3.6512;-0.0059;-0.0392;-0.0191
0000800207;5.7700;-15.6389;-3.7134;-0.0079;-0.0333;-0.0168
0000800215;5.6360;-15.6988;-3.6679;-0.0116;-0.0382;-0.0199
0000800223;5.8897;-15.5408;-3.6847;-0.0095;-0.0340;-0.0159
0000800231;5.6048;-15.6796;-3.6416;-0.0069;-0.0370;-0.0225
0000800239;5.7078;-15.6485;-3.6799;-0.0081;-0.0318;-0.0200
0000800247;5.6455;-15.8376;-3.6583;-0.0121;-0.0272;-0.0125
0000800255;5.7054;-15.6509;-3.6224;-0.0075;-0.0316;-0.0204
0000800263;5.6168;-15.6293;-3.6224;-0.0056;-0.0329;-0.0149
0000800271;5.7916;-15.6413;-3.6703;-0.0095;-0.0294;-0.0193
0000800279;5.6719;-15.6772;-3.6727;-0.0061;-0.0346;-0.0193
0000800287;5.6862;-15.6437;-3.6631;-0.0069;-0.0324;-0.0165
0000800295;5.6719;-15.8448;-3.6105;-0.0123;-0.0250;-0.0141
0000800303;5.7245;-15.5432;-3.7134;-0.0049;-0.0356;-0.0177
0000800311;5.7102;-15.6700;-3.6799;-0.0075;-0.0318;-0.0143
0000800319;5.7245;-15.6509;-3.6009;-0.0103;-0.0290;-0.0175
0000800327;5.7197;-15.6150;-3.6248;-0.0116;-0.0322;-0.0157
0000800335;5.5665;-15.7131;-3.6392;-0.0079;-0.0328;-0.0171
0000800343;5.7197;-15.5863;-3.6631;-0.0081;-0.0288;-0.0192
0000800351;5.6982;-15.6174;-3.6536;-0.0071;-0.0341;-0.0204
0000800359;5.6910;-15.6700;-3.6799;-0.0085;-0.0338;-0.0188
0000800367;5.7197;-15.6844;-3.6583;-0.0045;-0.0404;-0.0222
0000800375;5.6360;-15.7227;-3.5458;-0.0095;-0.0329;-0.0165
0000800383;5.5162;-15.8352;-3.5386;-0.0044;-0.0374;-0.0187
0000800391;5.6743;-15.7347;-3.7038;-0.0087;-0.0340;-0.0187
0000800399;5.6862;-15.7012;-3.6033;-0.0043;-0.0304;-0.0108
0000800407;5.8179;-15.5432;-3.5386;-0.0051;-0.0349;-0.0163
0000800415;5.7581;-15.6964;-3.5434;-0.0023;-0.0348;-0.0207
0000800423;5.6288;-15.6485;-3.6847;-0.0064;-0.0310;-0.0153
0000800431;5.8826;-15.5456;-3.6559;-0.0127;-0.0302;-0.0151
0000800439;5.7006;-15.6246;-3.6583;-0.0117;-0.0334;-0.0131
0000800447;5.8059;-15.6126;-3.6990;-0.0129;-0.0270;-0.0128
0000800455;5.5665;-15.7371;-3.6320;-0.0121;-0.0346;-0.0197
0000800463;5.6431;-15.6700;-3.6990;-0.0083;-0.0412;-0.0208
0000800471;5.8754;-15.6006;-3.6392;-0.0148;-0.0292;-0.0113
0000800479;5.6838;-15.7515;-3.5793;-0.0097;-0.0325;-0.0152
0000800487;5.6360;-15.7179;-3.6416;-0.0087;-0.0341;-0.0176
0000800495;5.7413;-15.6772;-3.6512;-0.0112;-0.0317;-0.0157
0000800503;5.7245;-15.6174;-3.6488;-0.0088;-0.0357;-0.0169
0000800511;5.7700;-15.5719;-3.6344;-0.0169;-0.0292;-0.0159
0000800519;5.8921;-15.5839;-3.6727;-0.0172;-0.0270;-0.0095
0000800527;5.7174;-15.7108;-3.6224;-0.0232;-0.0288;-0.0117
0000800535;5.7317;-15.6317;-3.7182;-0.0185;-0.0346;-0.0157
0000800543;5.6240;-15.7323;-3.6488;-0.0171;-0.0360;-0.0180
0000800551;5.7437;-15.7060;-3.6631;-0.0208;-0.0292;-0.0139
0000800559;5.5952;-15.7371;-3.6799;-0.0212;-0.0266;-0.0077
0000800567;5.9424;-15.5312;-3.6488;-0.0175;-0.0341;-0.0141
0000800575;5.6647;-15.7993;-3.6416;-0.0123;-0.0326;-0.0093
0000800583;5.6503;-15.6700;-3.6248;-0.0167;-0.0269;-0.0095
0000800591;5.5186;-15.7347;-3.6320;-0.0132;-0.0301;-0.0116
0000800599;5.6503;-15.7251;-3.5865;-0.0104;-0.0338;-0.0157
0000800607;5.6527;-15.6246;-3.5458;-0.0165;-0.0277;-0.0113
0000800615;5.7150;-15.5312;-3.5769;-0.0127;-0.0349;-0.0111
0000800623;5.8179;-15.6078;-3.5745;-0.0160;-0.0326;-0.0100
0000800631;5.7700;-15.5863;-3.6176;-0.0151;-0.0370;-0.0149
0000800639;5.7652;-15.6748;-3.7230;-0.0103;-0.0368;-0.0181
0000800647;5.5713;-15.7419;-3.6607;-0.0180;-0.0333;-0.0120
0000800655;5.6360;-15.8257;-3.6583;-0.0249;-0.0304;-0.0151
0000800663;5.5785;-15.6437;-3.6990;-0.0250;-0.0358;-0.0199
0000800671;5.8131;-15.6293;-3.5793;-0.0226;-0.0366;-0.0175
0000800679;5.8012;-15.6748;-3.5985;-0.0262;-0.0336;-0.0100
0000800687;5.6838;-15.7969;-3.6607;-0.0252;-0.0330;-0.0119
0000800695;5.8419;-15.5982;-3.6392;-0.0157;-0.0417;-0.0125
0000800703;5.8059;-15.6748;-3.6727;-0.0188;-0.0322;-0.0109
0000800711;5.6982;-15.7036;-3.7326;-0.0188;-0.0328;-0.0083
0000800719;5.6072;-15.6916;-3.5937;-0.0153;-0.0348;-0.0151
0000800805;5.7413;-15.6748;-3.6368;-0.0204;-0.0318;-0.0188
0000800813;5.7604;-15.7036;-3.6464;-0.0256;-0.0325;-0.0101
0000800821;5.6599;-15.7203;-3.6583;-0.0183;-0.0374;-0.0167
0000800829;5.7820;-15.5432;-3.6583;-0.0249;-0.0316;-0.0099
0000800837;5.7533;-15.6748;-3.5745;-0.0292;-0.0270;-0.0104
0000800845;5.6407;-15.7084;-3.6272;-0.0228;-0.0346;-0.0117
0000800853;5.7365;-15.5863;-3.6464;-0.0144;-0.0361;-0.0160
0000800861;5.6336;-15.8376;-3.6990;-0.0191;-0.0313;-0.0108
0000800869;5.6455;-15.7060;-3.6751;-0.0163;-0.0276;-0.0125
0000800877;5.7269;-15.6054;-3.7302;-0.0189;-0.0344;-0.0179
0000800885;5.5929;-15.7634;-3.6057;-0.0189;-0.0330;-0.0156
0000800893;5.8155;-15.5288;-3.6583;-0.0151;-0.0392;-0.0199
0000800901;5.6958;-15.7515;-3.7302;-0.0185;-0.0318;-0.0095
0000800909;5.6551;-15.6724;-3.6176;-0.0155;-0.0368;-0.0115
0000800917;5.6647;-15.7419;-3.6344;-0.0156;-0.0354;-0.0143
0000800925;5.6168;-15.8927;-3.6751;-0.0092;-0.0352;-0.0109
0000800933;5.8059;-15.5839;-3.6559;-0.0137;-0.0297;-0.0116
0000800941;5.7557;-15.6102;-3.6871;-0.0136;-0.0329;-0.0173
0000800949;5.7150;-15.7658;-3.6895;-0.0077;-0.0357;-0.0180
0000800957;5.5905;-15.8113;-3.7158;-0.0112;-0.0340;-0.0159
0000800965;5.8347;-15.6054;-3.7445;-0.0165;-0.0278;-0.0117
0000800973;5.7054;-15.7850;-3.6655;-0.0184;-0.0306;-0.0156
0000800981;5.8466;-15.6102;-3.6655;-0.0103;-0.0333;-0.0164
0000800989;5.7820;-15.5958;-3.7781;-0.0193;-0.0292;-0.0100
0000800997;5.7054;-15.6772;-3.6176;-0.0180;-0.0254;-0.0072
0000801005;5.7054;-15.6844;-3.7278;-0.0143;-0.0292;-0.0117
0000801013;5.8682;-15.6150;-3.6392;-0.0183;-0.0313;-0.0127
0000801021;5.7748;-15.6341;-3.5865;-0.0157;-0.0368;-0.0125
0000801029;5.6192;-15.7754;-3.6416;-0.0172;-0.0324;-0.0133
0000801037;5.7772;-15.7395;-3.6536;-0.0153;-0.0301;-0.0127
0000801045;5.7054;-15.6629;-3.6392;-0.0135;-0.0281;-0.0116
0000801053;5.7126;-15.7706;-3.6152;-0.0100;-0.0324;-0.0161
0000801061;5.6838;-15.5910;-3.6200;-0.0087;-0.0304;-0.0120
0000801069;5.6790;-15.6293;-3.6320;-0.0131;-0.0318;-0.0104
0000801077;5.8131;-15.6533;-3.6679;-0.0100;-0.0362;-0.0135
0000801085;5.7341;-15.6629;-3.6751;-0.0148;-0.0296;-0.0104
0000801093;5.7437;-15.5599;-3.6607;-0.0095;-0.0362;-0.0169
0000801101;5.6527;-15.6102;-3.7445;-0.0105;-0.0322;-0.0155
0000801109;5.7102;-15.7012;-3.6775;-0.0189;-0.0310;-0.0112
0000801117;5.6336;-15.7945;-3.6224;-0.0159;-0.0356;-0.0165
0000801125;5.7054;-15.6126;-3.6320;-0.0080;-0.0349;-0.0157
0000801133;5.6336;-15.8065;-3.7302;-0.0144;-0.0290;-0.0135
0000801141;5.6623;-15.6102;-3.6799;-0.0119;-0.0330;-0.0132
0000801149;5.6048;-15.7562;-3.6607;-0.0116;-0.0378;-0.0169
0000801157;5.5809;-15.8688;-3.6512;-0.0104;-0.0350;-0.0159
0000801165;5.6599;-15.6892;-3.6583;-0.0139;-0.0376;-0.0137
0000801173;5.8347;-15.5743;-3.7134;-0.0160;-0.0316;-0.0100
0000801181;5.9017;-15.4713;-3.6775;-0.0151;-0.0380;-0.0171
0000801189;5.6096;-15.7443;-3.6440;-0.0115;-0.0382;-0.0205
0000801197;5.6910;-15.6796;-3.7182;-0.0152;-0.0366;-0.0163
0000801205;5.8275;-15.5695;-3.6966;-0.0129;-0.0344;-0.0132
0000801213;5.7844;-15.6437;-3.7086;-0.0205;-0.0293;-0.0135
0000801221;5.8227;-15.6341;-3.5769;-0.0148;-0.0352;-0.0159
0000801229;5.8155;-15.7299;-3.7541;-0.0148;-0.0337;-0.0137
0000801237;5.6671;-15.6485;-3.7397;-0.0213;-0.0225;-0.0103
0000801245;5.7054;-15.6677;-3.8116;-0.0153;-0.0305;-0.0148
0000801253;5.7197;-15.7730;-3.6727;-0.0155;-0.0269;-0.0091
0000801261;5.7030;-15.6605;-3.5745;-0.0095;-0.0374;-0.0157
0000801269;5.8586;-15.6054;-3.6392;-0.0125;-0.0332;-0.0125
0000801277;5.6790;-15.6796;-3.6536;-0.0143;-0.0330;-0.0171
0000801285;5.7078;-15.7419;-3.5793;-0.0109;-0.0336;-0.0133
0000801293;5.7964;-15.7467;-3.6631;-0.0145;-0.0296;-0.0103
0000801301;5.6240;-15.6868;-3.6559;-0.0072;-0.0329;-0.0148
0000801309;5.7437;-15.6317;-3.5674;-0.0128;-0.0293;-0.0105
0000801317;5.7892;-15.6102;-3.6727;-0.0128;-0.0324;-0.0164
0000801325;5.7581;-15.6198;-3.6296;-0.0115;-0.0346;-0.0184
0000801333;5.5761;-15.8065;-3.6416;-0.0204;-0.0272;-0.0113
0000801341;5.8754;-15.5551;-3.6559;-0.0129;-0.0356;-0.0188
0000801427;5.7245;-15.6605;-3.7421;-0.0230;-0.0312;-0.0133
0000801435;5.7054;-15.5982;-3.6775;-0.0168;-0.0350;-0.0195
0000801443;5.6240;-15.7802;-3.6655;-0.0180;-0.0380;-0.0132
0000801451;5.6479;-15.7443;-3.6464;-0.0196;-0.0260;-0.0108
0000801459;5.8706;-15.6126;-3.7302;-0.0176;-0.0340;-0.0132
0000801467;5.6072;-15.7275;-3.6320;-0.0092;-0.0410;-0.0175
0000801475;5.4947;-15.8041;-3.6129;-0.0153;-0.0298;-0.0124
0000801483;5.6407;-15.5599;-3.6488;-0.0124;-0.0386;-0.0177
0000801491;5.6647;-15.6796;-3.6966;-0.0163;-0.0292;-0.0171
0000801499;5.7916;-15.6892;-3.6009;-0.0215;-0.0310;-0.0133
0000801507;5.8107;-15.6222;-3.6679;-0.0179;-0.0353;-0.0153
0000801515;5.7174;-15.6605;-3.6296;-0.0205;-0.0290;-0.0152
0000801523;5.7916;-15.6605;-3.6559;-0.0137;-0.0352;-0.0135
0000801531;5.5785;-15.7108;-3.6057;-0.0183;-0.0320;-0.0089
0000801539;5.6407;-15.5982;-3.5721;-0.0129;-0.0298;-0.0101
0000801547;5.7628;-15.6006;-3.7278;-0.0149;-0.0352;-0.0156
0000801555;5.7772;-15.6150;-3.6703;-0.0097;-0.0352;-0.0193
0000801563;5.7557;-15.5623;-3.6224;-0.0153;-0.0342;-0.0161
0000801571;5.7652;-15.6246;-3.6751;-0.0180;-0.0333;-0.0135
0000801579;5.7150;-15.6724;-3.6631;-0.0115;-0.0368;-0.0224
0000801587;5.6719;-15.7347;-3.6823;-0.0115;-0.0342;-0.0141
0000801595;5.6312;-15.6820;-3.7350;-0.0189;-0.0310;-0.0097
0000801603;5.6144;-15.7275;-3.6727;-0.0159;-0.0310;-0.0136
0000801611;5.8083;-15.5886;-3.6655;-0.0119;-0.0337;-0.0128
0000801619;5.8371;-15.6629;-3.6799;-0.0155;-0.0374;-0.0196
0000801627;5.7389;-15.6341;-3.6416;-0.0143;-0.0340;-0.0160
0000801635;5.6431;-15.7323;-3.6512;-0.0165;-0.0312;-0.0165
0000801643;5.6934;-15.7275;-3.7373;-0.0113;-0.0364;-0.0176
0000801651;5.6790;-15.7538;-3.6823;-0.0181;-0.0313;-0.0128
0000801659;5.6096;-15.7347;-3.7062;-0.0171;-0.0369;-0.0163
0000801667;5.5498;-15.6724;-3.6847;-0.0112;-0.0372;-0.0119
0000801675;5.5426;-15.7778;-3.6488;-0.0129;-0.0310;-0.0120
0000801683;5.7628;-15.6748;-3.6655;-0.0128;-0.0268;-0.0112
0000801691;5.5689;-15.8257;-3.7134;-0.0105;-0.0360;-0.0175
0000801699;5.7102;-15.7275;-3.7110;-0.0111;-0.0284;-0.0143
0000801707;5.6910;-15.7443;-3.6033;-0.0108;-0.0292;-0.0121
0000801715;5.5881;-15.7778;-3.6272;-0.0121;-0.0321;-0.0109
0000801723;5.7317;-15.6078;-3.6943;-0.0108;-0.0290;-0.0105
0000801731;5.7652;-15.6437;-3.5961;-0.0101;-0.0322;-0.0172
0000801739;5.8179;-15.6700;-3.6105;-0.0033;-0.0374;-0.0179
0000801747;5.7197;-15.6724;-3.6464;-0.0071;-0.0276;-0.0116
0000801755;5.6934;-15.6700;-3.5530;-0.0095;-0.0257;-0.0124
0000801763;5.6551;-15.7036;-3.6775;-0.0073;-0.0369;-0.0157
0000801771;5.7006;-15.6222;-3.6847;-0.0065;-0.0293;-0.0152
0000801779;5.7700;-15.5695;-3.7110;-0.0124;-0.0276;-0.0087
0000801787;5.8442;-15.6389;-3.6536;-0.0165;-0.0342;-0.0108
0000801795;5.5881;-15.6796;-3.6990;-0.0133;-0.0288;-0.0076
0000801803;5.5354;-15.7203;-3.6679;-0.0104;-0.0373;-0.0188
0000801811;5.6383;-15.6246;-3.6583;-0.0113;-0.0330;-0.0153
0000801819;5.9137;-15.6174;-3.6392;-0.0083;-0.0302;-0.0153
0000801827;5.6743;-15.6485;-3.7134;-0.0139;-0.0262;-0.0129
0000801835;5.6431;-15.8281;-3.6966;-0.0149;-0.0328;-0.0152
0000801843;5.5282;-15.6796;-3.6296;-0.0104;-0.0365;-0.0164
0000801851;5.7604;-15.6389;-3.7230;-0.0128;-0.0306;-0.0108
0000801859;5.7102;-15.7060;-3.6392;-0.0155;-0.0330;-0.0160
0000801867;5.7988;-15.6150;-3.6009;-0.0123;-0.0356;-0.0171
0000801875;5.7533;-15.6126;-3.7062;-0.0176;-0.0345;-0.0177
0000801883;5.5689;-15.7179;-3.5506;-0.0116;-0.0402;-0.0211
0000801891;5.7748;-15.5958;-3.6152;-0.0143;-0.0310;-0.0124
0000801899;5.6862;-15.7203;-3.5769;-0.0204;-0.0304;-0.0143
0000801907;5.7102;-15.7491;-3.6679;-0.0120;-0.0396;-0.0180
0000801915;5.8802;-15.6150;-3.6009;-0.0117;-0.0349;-0.0136
0000801923;5.6743;-15.6054;-3.6966;-0.0165;-0.0288;-0.0105
0000801931;5.7964;-15.5575;-3.6966;-0.0169;-0.0341;-0.0136
0000801939;5.7102;-15.7347;-3.7182;-0.0125;-0.0350;-0.0203
0000801947;5.6383;-15.7179;-3.6559;-0.0135;-0.0404;-0.0136
0000801955;5.7509;-15.6102;-3.6895;-0.0081;-0.0446;-0.0181
0000801963;5.6623;-15.7826;-3.6990;-0.0036;-0.0496;-0.0196
0000802049;5.7197;-15.6796;-3.5793;-0.0141;-0.0309;-0.0140
0000802057;5.7365;-15.8281;-3.5937;-0.0159;-0.0349;-0.0144
0000802065;5.8993;-15.4809;-3.6631;-0.0101;-0.0373;-0.0160
0000802073;5.7628;-15.6533;-3.6847;-0.0189;-0.0281;-0.0108
0000802081;5.6096;-15.5575;-3.7709;-0.0215;-0.0301;-0.0172
0000802089;5.8059;-15.7179;-3.7230;-0.0265;-0.0261;-0.0091
0000802097;5.7030;-15.6629;-3.6655;-0.0264;-0.0325;-0.0144
0000802105;5.6360;-15.7131;-3.6488;-0.0209;-0.0349;-0.0153
0000802113;5.6982;-15.7874;-3.5698;-0.0196;-0.0306;-0.0081
0000802121;5.7365;-15.7275;-3.7350;-0.0139;-0.0360;-0.0097
0000802129;5.8035;-15.6006;-3.6823;-0.0167;-0.0285;-0.0093
0000802137;5.6551;-15.5695;-3.7230;-0.0111;-0.0356;-0.0175
0000802145;5.7006;-15.6485;-3.6799;-0.0105;-0.0361;-0.0147
0000802153;5.8155;-15.4809;-3.6847;-0.0203;-0.0260;-0.0080
0000802161;5.8275;-15.6054;-3.7373;-0.0254;-0.0266;-0.0063
0000802169;5.8059;-15.6940;-3.7206;-0.0204;-0.0342;-0.0119
0000802177;5.5809;-15.7131;-3.6296;-0.0215;-0.0264;-0.0089
0000802185;5.7509;-15.6413;-3.6559;-0.0163;-0.0305;-0.0100
0000802193;5.6982;-15.7036;-3.6679;-0.0151;-0.0261;-0.0105
0000802201;5.8658;-15.5934;-3.6799;-0.0156;-0.0316;-0.0135
0000802209;5.6623;-15.5743;-3.6655;-0.0112;-0.0337;-0.0124
0000802217;5.6814;-15.6078;-3.6105;-0.0169;-0.0265;-0.0080
0000802225;5.5905;-15.7922;-3.6607;-0.0136;-0.0316;-0.0172
0000802233;5.6623;-15.8209;-3.5817;-0.0129;-0.0269;-0.0087
0000802241;5.7604;-15.5958;-3.6224;-0.0145;-0.0280;-0.0129
0000802249;5.6671;-15.7658;-3.5650;-0.0068;-0.0346;-0.0179
0000802257;5.5761;-15.7131;-3.5793;-0.0120;-0.0282;-0.0104
0000802265;5.5952;-15.8017;-3.6320;-0.0076;-0.0305;-0.0149
0000802273;5.8610;-15.6629;-3.6464;-0.0095;-0.0310;-0.0152
0000802281;5.5162;-15.6078;-3.6631;-0.0113;-0.0308;-0.0113
0000802289;5.6838;-15.7419;-3.7062;-0.0124;-0.0341;-0.0143
0000802297;5.7581;-15.6341;-3.6320;-0.0091;-0.0357;-0.0111
0000802305;5.7030;-15.5791;-3.6631;-0.0120;-0.0333;-0.0120
0000802313;5.6647;-15.6988;-3.6847;-0.0117;-0.0350;-0.0175
0000802321;5.6623;-15.6629;-3.7278;-0.0093;-0.0425;-0.0207
0000802329;5.7604;-15.6533;-3.6943;-0.0116;-0.0390;-0.0188
0000802337;5.6527;-15.7060;-3.6009;-0.0071;-0.0424;-0.0195
0000802345;5.6551;-15.7347;-3.8068;-0.0092;-0.0352;-0.0156
0000802353;5.6240;-15.6868;-3.7254;-0.0105;-0.0340;-0.0160
0000802361;5.7509;-15.7131;-3.5913;-0.0079;-0.0357;-0.0159
0000802369;5.7174;-15.5479;-3.7326;-0.0048;-0.0385;-0.0228
0000802377;5.6144;-15.6892;-3.6129;-0.0123;-0.0316;-0.0128
0000802385;5.5905;-15.7658;-3.6536;-0.0128;-0.0325;-0.0155
0000802393;5.7317;-15.6437;-3.6176;-0.0093;-0.0401;-0.0260
0000802401;5.7221;-15.6509;-3.6751;-0.0132;-0.0377;-0.0200
0000802409;5.8107;-15.6533;-3.7038;-0.0131;-0.0325;-0.0187
0000802417;5.6838;-15.7299;-3.7206;-0.0117;-0.0381;-0.0193
0000802425;5.4971;-15.7155;-3.6392;-0.0139;-0.0322;-0.0117
0000802433;5.8419;-15.5671;-3.6344;-0.0103;-0.0400;-0.0197
0000802441;5.6671;-15.7108;-3.6009;-0.0124;-0.0370;-0.0165
0000802449;5.6192;-15.7945;-3.5937;-0.0109;-0.0358;-0.0173
0000802457;5.7126;-15.7347;-3.6631;-0.0024;-0.0396;-0.0221
0000802465;5.7126;-15.6389;-3.6607;-0.0067;-0.0313;-0.0181
0000802473;5.8179;-15.5839;-3.7062;-0.0121;-0.0337;-0.0124
0000802481;5.6910;-15.5982;-3.6272;-0.0080;-0.0418;-0.0225
0000802489;5.7078;-15.6557;-3.6703;-0.0120;-0.0346;-0.0104
0000802497;5.6527;-15.5384;-3.6200;-0.0148;-0.0321;-0.0135
0000802505;5.7604;-15.5886;-3.6368;-0.0149;-0.0317;-0.0117
0000802513;5.6958;-15.7515;-3.6105;-0.0144;-0.0300;-0.0112
0000802521;5.6240;-15.8640;-3.6320;-0.0128;-0.0338;-0.0107
0000802529;5.7844;-15.7850;-3.6416;-0.0145;-0.0326;-0.0123
0000802537;5.7796;-15.7084;-3.6200;-0.0125;-0.0321;-0.0139
0000802545;5.7892;-15.6270;-3.6488;-0.0137;-0.0320;-0.0153
0000802553;5.8562;-15.5096;-3.8283;-0.0218;-0.0272;-0.0129
0000802561;5.8538;-15.5216;-3.8858;-0.0285;-0.0217;-0.0168
0000802569;5.6336;-15.7371;-3.7876;-0.0326;-0.0169;-0.0179
0000802577;5.7054;-15.6413;-3.6727;-0.0393;-0.0128;-0.0176
0000802585;5.6838;-15.6677;-3.7350;-0.0336;-0.0099;-0.0151
0000802593;5.6838;-15.5599;-3.7397;-0.0396;-0.0032;-0.0145
0000802684;5.6647;-15.5264;-3.4907;-0.1226;0.0132;-0.0213
0000802692;5.7724;-15.4953;-3.4979;-0.1282;0.0165;-0.0153
0000802700;5.9568;-15.4522;-3.4692;-0.1427;0.0253;-0.0055
0000802708;6.0334;-15.4761;-3.3471;-0.1575;0.0266;-0.0127
0000802716;5.9089;-15.5312;-3.3351;-0.1624;0.0244;-0.0056
0000802724;5.7724;-15.6533;-3.3471;-0.1737;0.0168;-0.0057
0000802732;5.8466;-15.6030;-3.4237;-0.1743;0.0163;0.0035
0000802740;5.8730;-15.8329;-3.5075;-0.1767;0.0209;0.0131
0000802748;6.0334;-15.7012;-3.4836;-0.1632;0.0222;0.0140
0000802756;5.9209;-15.7754;-3.5602;-0.1564;0.0316;0.0297
0000802764;6.2225;-15.6126;-3.5003;-0.1561;0.0473;0.0468
0000802772;6.0908;-15.5671;-3.5578;-0.1563;0.0612;0.0526
0000802780;5.9328;-15.4905;-3.6129;-0.1659;0.0810;0.0657
0000802788;5.9065;-15.5288;-3.5985;-0.1801;0.0935;0.0691
0000802796;6.1028;-15.4234;-3.5841;-0.1958;0.0986;0.0689
0000802804;5.9209;-15.5527;-3.5338;-0.2062;0.1062;0.0674
0000802812;5.8514;-15.6341;-3.5913;-0.2101;0.1035;0.0613
0000802820;5.7557;-15.6844;-3.6105;-0.2202;0.1127;0.0746
0000802828;5.6934;-15.6174;-3.6009;-0.2174;0.1130;0.0853
0000802836;5.8227;-15.4713;-3.6583;-0.2109;0.1134;0.1022
0000802844;5.9304;-15.2247;-3.6344;-0.2181;0.1186;0.1255
0000802852;5.9783;-15.2894;-3.7206;-0.2305;0.1283;0.1435
0000802860;6.1411;-15.2630;-3.7326;-0.2450;0.1306;0.1427
0000802868;5.9903;-15.5791;-3.9528;-0.2519;0.1311;0.1391
0000802876;6.0071;-15.4665;-3.7804;-0.2695;0.1316;0.1384
0000802884;6.0549;-15.6677;-3.8834;-0.2746;0.1294;0.1378
0000802892;6.0717;-15.5096;-3.8355;-0.2805;0.1396;0.1503
0000802900;5.7174;-15.5144;-3.8547;-0.2860;0.1496;0.1689
0000802908;5.5689;-15.5432;-4.0773;-0.2832;0.1496;0.1856
0000802916;5.3127;-15.5886;-4.3646;-0.2795;0.1504;0.2069
0000802924;5.2457;-15.4689;-4.4077;-0.2817;0.1428;0.2245
0000802932;5.3223;-15.6964;-4.4772;-0.2765;0.1300;0.2217
0000802940;5.7341;-15.4713;-4.5203;-0.2730;0.1208;0.2142
0000802948;5.6958;-15.8065;-4.6064;-0.2603;0.1126;0.1993
0000802956;5.5306;-15.9861;-4.5155;-0.2405;0.1199;0.1807
0000802964;5.5665;-15.9478;-4.5466;-0.2137;0.1159;0.1587
0000802972;5.4971;-15.9621;-4.5945;-0.1903;0.1214;0.1528
0000802980;5.4755;-15.8975;-4.6112;-0.1633;0.1266;0.1480
0000802988;5.2625;-15.7371;-4.9153;-0.1414;0.1351;0.1407
0000802996;5.2098;-15.7036;-4.8626;-0.1267;0.1374;0.1342
0000803004;5.1380;-15.5671;-5.0757;-0.1220;0.1356;0.1259
0000803012;5.2529;-15.4019;-5.0470;-0.1234;0.1270;0.1288
0000803020;5.0925;-15.2798;-5.1787;-0.1192;0.1067;0.1184
0000803028;4.9847;-15.4378;-5.2816;-0.1235;0.0926;0.1140
0000803036;5.1667;-15.3397;-5.2361;-0.1006;0.0766;0.1058
0000803044;5.0709;-15.3181;-5.2337;-0.0766;0.0722;0.0887
0000803052;5.1212;-15.2870;-5.1020;-0.0658;0.0528;0.0899
0000803060;5.4205;-15.2367;-4.9249;-0.0504;0.0566;0.0987
0000803068;5.6312;-15.3708;-4.8387;-0.0262;0.0702;0.1062
0000803076;5.7293;-15.3277;-4.9057;-0.0129;0.0777;0.1147
0000803084;5.8347;-15.4570;-4.7214;-0.0087;0.0895;0.1246
0000803092;6.0190;-15.4785;-4.4245;-0.0043;0.1062;0.1475
0000803100;6.0717;-15.5934;-4.3431;-0.0024;0.1234;0.1625
0000803108;6.1555;-15.6461;-4.3311;0.0262;0.1243;0.1748
0000803116;6.3351;-15.7012;-4.2689;0.0592;0.1279;0.1795
0000803124;6.0358;-15.9286;-4.2258;0.0903;0.1270;0.1875
0000803132;5.9328;-15.6246;-4.1108;0.1234;0.1092;0.1911
0000803140;5.6096;-15.5575;-4.3359;0.1384;0.0831;0.1927
0000803148;5.2696;-15.6796;-4.1396;0.1123;0.0733;0.2057
0000803156;5.1595;-15.5312;-4.1300;0.1078;0.0568;0.2110
0000803164;5.1308;-15.4234;-3.9792;0.1150;0.0332;0.2096
0000803172;5.1092;-15.7802;-3.7876;0.0995;0.0061;0.2182
0000803180;5.0135;-15.9765;-3.7493;0.1123;-0.0075;0.2280
0000803188;5.0159;-16.0842;-3.4022;0.1543;-0.0208;0.2289
0000803196;5.2050;-16.2471;-3.3639;0.1673;-0.0302;0.2369
0000803204;5.2768;-16.7020;-3.5219;0.2220;-0.0512;0.2376
0000803212;5.2960;-16.8480;-3.7397;0.2763;-0.0553;0.2385
0000803220;5.5689;-16.7953;-3.7469;0.3204;-0.0641;0.2439
0000803228;5.4229;-16.9725;-3.8810;0.3464;-0.0751;0.2593
0000803236;5.2648;-17.0084;-4.1755;0.3934;-0.0979;0.2593
0000803324;3.6224;-17.0563;-4.6926;0.6574;-0.4618;0.2117
0000803333;3.6296;-16.8121;-4.8243;0.7171;-0.5477;0.2202
0000803342;3.6464;-16.4530;-4.8626;0.7514;-0.6308;0.2276
0000803351;4.0486;-16.0292;-4.7381;0.7500;-0.6768;0.2407
0000803360;4.2066;-15.7538;-4.6639;0.7438;-0.7210;0.2507
0000803369;4.7716;-15.5216;-4.4508;0.7032;-0.7364;0.2707
0000803378;5.4157;-15.5072;-4.3072;0.6803;-0.7456;0.2866
0000803387;5.6336;-15.9119;-4.0270;0.6538;-0.7186;0.3163
0000803396;5.9137;-16.2064;-3.7661;0.6716;-0.7015;0.3365
0000803405;5.9256;-16.3955;-3.6488;0.7013;-0.6856;0.3451
0000803414;5.6982;-16.4889;-3.6272;0.7509;-0.6752;0.3557
0000803423;5.2960;-16.6014;-3.5698;0.8103;-0.6711;0.3588
0000803432;5.0566;-16.6110;-3.5626;0.8454;-0.6716;0.3780
0000803441;4.8171;-16.2854;-3.5602;0.8883;-0.6989;0.3966
0000803450;4.4077;-16.3237;-3.5219;0.8993;-0.7197;0.4301
0000803459;4.3503;-16.1273;-3.4979;0.9102;-0.7661;0.4644
0000803468;4.1899;-15.9933;-3.4596;0.8859;-0.7927;0.5133
0000803477;4.0941;-15.9957;-3.5027;0.8973;-0.8387;0.5534
0000803486;4.3167;-15.9023;-3.4907;0.8892;-0.8589;0.6022
0000803495;4.4748;-15.8113;-3.4596;0.8909;-0.8669;0.6277
0000803504;4.5849;-16.0220;-3.4046;0.8831;-0.8647;0.6197
0000803513;4.5729;-16.1178;-3.2537;0.9056;-0.8545;0.6031
0000803522;4.8411;-16.0675;-3.0861;0.9397;-0.8250;0.5697
0000803531;4.6567;-16.1202;-2.9185;0.9533;-0.8037;0.5514
0000803540;4.8578;-15.8233;-2.9688;0.9639;-0.7755;0.5105
0000803549;4.7956;-15.6629;-3.0406;0.9630;-0.7429;0.4712
0000803558;4.5945;-15.5312;-3.0718;0.9471;-0.6955;0.4457
0000803567;4.3311;-15.4450;-3.1915;0.9326;-0.6491;0.3856
0000803576;4.0749;-15.1290;-2.7629;0.9021;-0.6118;0.3218
0000803585;3.4788;-15.3085;-2.4253;0.8607;-0.5977;0.2675
0000803594;3.2322;-15.7562;-2.2960;0.8462;-0.5798;0.2098
0000803603;3.2274;-15.8448;-2.4517;0.8470;-0.5192;0.1789
0000803612;3.4309;-15.9765;-2.1213;0.8687;-0.4735;0.1368
0000803621;3.7900;-15.9047;-1.8890;0.8946;-0.4166;0.0729
0000803630;4.0893;-15.4833;-1.3862;0.9056;-0.3279;0.0029
0000803639;4.0007;-15.5599;-1.0726;0.9129;-0.2689;-0.0897
0000803648;3.9169;-15.2606;-0.8571;0.8925;-0.2361;-0.1683
0000803657;3.7852;-14.9374;-0.5698;0.8716;-0.2149;-0.2178
0000803666;3.3495;-14.6836;0.0144;0.8338;-0.1887;-0.2491
0000803675;3.3710;-14.5280;0.1365;0.7442;-0.1536;-0.2703
0000803684;3.6679;-14.0827;-0.1796;0.6446;-0.1037;-0.2943
0000803693;3.4884;-13.7116;0.0168;0.5079;-0.0278;-0.2928
0000803702;3.3447;-13.6517;0.4286;0.3677;0.0424;-0.2734
0000803711;3.0143;-13.8816;0.6225;0.2181;0.0987;-0.2350
0000803720;2.2889;-14.3652;0.3472;0.0709;0.1519;-0.1951
0000803729;1.6544;-14.9302;0.2322;-0.0282;0.1709;-0.1799
0000803738;1.5155;-15.4737;0.7015;-0.0942;0.1745;-0.2037
0000803747;1.8794;-15.7730;0.8978;-0.0865;0.1559;-0.2380
0000803756;2.4995;-16.2040;1.0080;-0.0517;0.1752;-0.2550
0000803765;3.5530;-16.0459;0.9840;-0.0180;0.2212;-0.2575
0000803774;4.4173;-15.9789;0.8523;-0.0144;0.2896;-0.2698
0000803783;4.9057;-16.2135;0.8930;-0.0570;0.3683;-0.3345
0000803792;4.3263;-16.8576;0.8811;-0.1511;0.4233;-0.4475
0000803801;4.0318;-17.4777;0.7039;-0.2438;0.4558;-0.6126
0000803810;3.2753;-18.2390;0.7326;-0.2651;0.4768;-0.7653
0000803819;2.6624;-18.8136;0.8068;-0.1974;0.4558;-0.8587
0000803828;2.8635;-18.6628;1.2258;-0.1030;0.4431;-0.9130
0000803837;3.1987;-18.5168;1.7765;-0.0244;0.4206;-0.9317
0000803846;3.8642;-17.9828;1.7430;-0.0173;0.4181;-0.9288
0000803855;4.4724;-17.6117;0.9697;-0.0309;0.4427;-0.9511
0000803864;4.9895;-17.4920;0.5483;-0.0754;0.4932;-0.9667
0000803873;5.4277;-17.5184;0.0215;-0.1150;0.5303;-0.9798
0000803882;5.3032;-17.7051;-0.5483;-0.1194;0.5494;-1.0184
0000803891;5.4708;-17.6596;-0.9313;-0.0618;0.5550;-1.0837
0000803900;5.3917;-17.8823;-0.9242;0.0181;0.5368;-1.1405
0000803909;5.4755;-17.7315;-0.8739;0.1351;0.4978;-1.1946
0000803918;5.4851;-17.3484;-0.8499;0.2469;0.4486;-1.1987
0000803927;5.3103;-16.8719;-0.5890;0.3456;0.4020;-1.1979
0000803936;4.8435;-16.2878;-0.4884;0.4028;0.3380;-1.1858
0000803945;4.5250;-15.7874;-0.7494;0.4281;0.2667;-1.1712
0000803954;4.2641;-15.3133;-0.8787;0.4604;0.2066;-1.1227
0000804040;3.3710;-14.3149;0.9098;0.3540;-0.7544;-0.4225
0000804049;3.2896;-14.6334;1.5203;0.4335;-0.8485;-0.3749
0000804058;3.2010;-15.2391;1.7621;0.4908;-0.9040;-0.3091
0000804067;3.0023;-15.8831;1.8268;0.5645;-0.9294;-0.2388
0000804076;3.1388;-16.3213;1.5945;0.6233;-0.9202;-0.1665
0000804085;3.4141;-16.7857;1.1037;0.7163;-0.8833;-0.0743
0000804094;4.1875;-16.8767;0.6847;0.8484;-0.7910;0.0585
0000804103;5.0159;-16.4697;0.1437;0.9615;-0.6626;0.2141
0000804112;5.8706;-16.0364;-1.4030;1.0660;-0.4786;0.3655
0000804121;9.0692;-15.8209;-5.0542;1.1611;0.1988;0.5173
0000804130;10.5680;-14.3724;-4.4005;1.0569;0.5229;0.5845
0000804139;12.9574;-12.3661;-1.0654;0.9499;0.6614;0.4739
0000804148;14.5879;-10.4507;-0.7398;0.8764;0.6763;0.3692
0000804157;13.5033;-7.7979;-0.4453;0.6682;0.6594;0.3766
0000804166;9.7348;-6.0406;-0.9505;0.2737;0.5810;0.4185
0000804175;5.4085;-7.4531;-1.0487;-0.2422;0.4162;0.4124
0000804184;0.2610;-10.5345;-0.0886;-0.6434;0.0945;0.3693
0000804193;-3.2968;-15.0930;0.1820;-0.8587;-0.3103;0.2530
0000804202;-4.1372;-20.3459;0.5267;-0.8671;-0.6687;0.0777
0000804211;-1.2258;-23.6595;0.7015;-0.4572;-0.9074;-0.1172
0000804220;4.0582;-23.1352;0.7877;0.1338;-0.9948;-0.2365
0000804229;8.1882;-20.3435;0.8284;0.5442;-0.9663;-0.3312
0000804238;10.9583;-17.0994;0.3567;0.6311;-0.8609;-0.4301
0000804247;12.1841;-14.7267;0.1724;0.4944;-0.7067;-0.5321
0000804256;11.3557;-13.9055;0.3687;0.2932;-0.5331;-0.5644
0000804265;9.4068;-14.0755;0.7015;0.1206;-0.3576;-0.5316
0000804274;6.7469;-14.6597;0.7805;0.0462;-0.2530;-0.4790
0000804283;4.7046;-15.4953;0.7015;-0.0024;-0.2046;-0.3936
0000804292;3.5889;-16.1824;0.6560;-0.0252;-0.1990;-0.3357
0000804301;3.7469;-16.9414;0.9361;-0.0281;-0.2338;-0.2914
0000804310;4.7956;-17.4801;1.1612;-0.0025;-0.2582;-0.2671
0000804319;5.9328;-18.1145;1.2402;0.0593;-0.2654;-0.2505
0000804328;6.6679;-18.2127;1.3264;0.1435;-0.2641;-0.2414
0000804337;7.0030;-17.7722;0.8428;0.2288;-0.2435;-0.2314
0000804346;6.8642;-16.8648;0.5195;0.2551;-0.2086;-0.1917
0000804355;6.4476;-16.1393;0.6440;0.2256;-0.1885;-0.1756
0000804364;5.9304;-16.1944;1.0080;0.1535;-0.1940;-0.1701
0000804373;5.8658;-16.3452;1.3001;0.0875;-0.2048;-0.1831
0000804382;5.9544;-16.8791;1.7238;0.0766;-0.2405;-0.2124
0000804391;6.2321;-17.4082;1.7933;0.0898;-0.2510;-0.2185
0000804400;6.2728;-17.9541;1.4365;0.1454;-0.2501;-0.2237
0000804409;6.6343;-18.1241;1.5490;0.2157;-0.2200;-0.2022
0000804418;6.9049;-17.8560;1.8555;0.2730;-0.1872;-0.1579
0000804427;6.9288;-17.7554;1.7980;0.3068;-0.1539;-0.1167
0000804436;6.6535;-17.7003;1.8100;0.3464;-0.1271;-0.0777
0000804445;6.6942;-17.7171;1.7358;0.3749;-0.1061;-0.0604
0000804454;6.5601;-17.3651;1.7023;0.4045;-0.1284;-0.0669
0000804463;6.6415;-17.0850;1.8459;0.4034;-0.1456;-0.0755
0000804472;6.7780;-16.9462;2.0087;0.3780;-0.1411;-0.0702
0000804481;6.8331;-17.1305;2.0135;0.3716;-0.1398;-0.0675
0000804490;6.9097;-17.5782;2.2697;0.3749;-0.1287;-0.0518
0000804499;6.9695;-17.9493;2.1811;0.4211;-0.1346;-0.0469
0000804508;6.8809;-18.0690;2.4636;0.4586;-0.1315;-0.0338
0000804517;6.9504;-18.3300;2.5019;0.5088;-0.1448;-0.0372
0000804526;6.8761;-18.4737;2.3631;0.5568;-0.1637;-0.0353
0000804535;6.7516;-18.6987;2.7845;0.5709;-0.1861;-0.0276
0000804544;6.8522;-18.8711;2.7390;0.5899;-0.2106;-0.0149
0000804553;6.8642;-19.2326;2.7653;0.6311;-0.2306;-0.0107
0000804562;7.0342;-19.2590;3.2489;0.6620;-0.2418;0.0139
0000804571;6.9360;-19.5774;3.4141;0.6881;-0.2479;0.0245
0000804580;6.7852;-19.9700;3.6152;0.7213;-0.2602;0.0177
0000804589;6.7636;-20.0874;3.9576;0.7853;-0.2936;-0.0095
0000804598;6.7756;-20.0490;3.7397;0.8344;-0.3258;-0.0428
0000804607;6.6607;-20.2238;3.5985;0.8809;-0.3541;-0.0717
0000804616;7.1347;-19.8838;3.9361;0.9306;-0.3740;-0.1015
0000804625;7.6423;-19.8743;3.9433;0.9523;-0.3772;-0.1128
0000804634;8.1020;-19.7067;3.7062;0.9557;-0.3691;-0.1291
0000804643;8.0134;-19.6444;3.5650;0.9815;-0.3540;-0.1454
0000804652;8.1116;-19.4170;3.5458;1.0098;-0.3385;-0.1520
0000804661;8.0014;-19.0818;3.2346;1.0493;-0.3285;-0.1707
0000804749;8.2169;-16.5272;3.3471;1.0313;-0.0765;-0.2579
0000804758;8.0900;-16.4506;3.3208;1.0272;-0.0412;-0.2851
0000804767;8.2696;-15.8520;3.2561;1.0111;-0.0008;-0.3003
0000804776;8.2145;-15.5240;3.2801;0.9828;0.0436;-0.3172
0000804785;8.2696;-15.3732;3.3782;0.9542;0.0895;-0.3337
0000804794;8.3462;-15.1337;3.3471;0.9113;0.1435;-0.3435
0000804803;8.1930;-15.0811;3.5362;0.8679;0.1883;-0.3605
0000804812;8.5904;-14.6812;3.3495;0.8270;0.2423;-0.3772
0000804821;8.3869;-14.7794;3.5530;0.7897;0.2860;-0.3913
0000804830;8.5832;-14.5232;3.4644;0.7454;0.3447;-0.4014
0000804839;8.5545;-14.4538;3.3639;0.6852;0.3997;-0.4024
0000804848;8.3270;-14.4083;3.3591;0.6374;0.4409;-0.3950
0000804857;8.2768;-14.3077;3.5721;0.5862;0.4879;-0.3892
0000804866;8.1451;-14.2838;3.5745;0.5437;0.5156;-0.3862
0000804875;8.0493;-14.4442;3.7206;0.5231;0.5445;-0.3892
0000804884;7.9009;-14.3125;3.8499;0.4999;0.5704;-0.4101
0000804893;7.5992;-14.5113;3.9768;0.4786;0.5854;-0.4421
0000804902;7.5489;-14.6334;3.9265;0.4429;0.6081;-0.4786
0000804911;7.5705;-14.7124;4.0486;0.4159;0.6223;-0.5188
0000804920;7.6471;-14.7579;4.1396;0.3758;0.6394;-0.5449
0000804929;7.6375;-14.9087;4.1731;0.3479;0.6551;-0.5658
0000804938;7.8434;-14.8728;4.2904;0.3404;0.6676;-0.5919
0000804947;7.8602;-14.8297;4.3191;0.3183;0.6983;-0.6054
0000804956;7.8362;-14.7507;4.3766;0.3070;0.7208;-0.6118
0000804965;7.5082;-14.7674;4.6495;0.2984;0.7429;-0.6249
0000804974;7.3382;-14.6621;4.5442;0.2819;0.7665;-0.6178
0000804983;7.1898;-14.7387;4.4365;0.2555;0.7874;-0.6241
0000804992;7.0222;-14.7076;4.3024;0.2346;0.7907;-0.6262
0000805001;6.7038;-14.7650;4.3503;0.2048;0.7969;-0.6229
0000805010;6.9983;-14.6046;4.5418;0.1985;0.7925;-0.6182
0000805019;6.8474;-14.5903;4.4580;0.1812;0.7870;-0.5950
0000805028;6.6319;-14.5184;4.4484;0.1728;0.7762;-0.5742
0000805037;6.8450;-14.2958;4.4197;0.1564;0.7798;-0.5440
0000805046;6.7588;-14.0851;4.5250;0.1560;0.7763;-0.4975
0000805055;6.6798;-14.0492;4.3191;0.1398;0.7767;-0.4592
0000805064;6.4189;-14.1138;4.4412;0.1070;0.7819;-0.4158
0000805073;6.3925;-14.0252;4.3479;0.0842;0.7718;-0.3830
0000805082;6.4212;-14.0875;4.1827;0.0673;0.7605;-0.3655
0000805091;6.4165;-14.0492;4.1468;0.0572;0.7466;-0.3444
0000805100;6.5697;-13.6924;4.3670;0.0574;0.7276;-0.3309
0000805109;6.2058;-13.9247;4.1539;0.0514;0.7143;-0.3281
0000805118;6.1028;-13.7260;3.9624;0.0438;0.6941;-0.3191
0000805127;6.0980;-13.3357;4.0893;0.0180;0.6652;-0.3115
0000805136;6.2034;-13.2136;4.0127;-0.0200;0.6386;-0.2946
0000805145;6.1555;-13.0963;4.0510;-0.0529;0.6067;-0.2871
0000805154;6.3542;-13.0628;4.0893;-0.0958;0.5868;-0.2650
0000805163;6.3710;-13.1178;4.0079;-0.1283;0.5593;-0.2469
0000805172;6.3710;-13.1897;3.9265;-0.1623;0.5380;-0.2248
0000805181;6.1339;-13.2016;3.8475;-0.1863;0.5184;-0.2205
0000805190;6.0573;-13.2280;3.7613;-0.2134;0.5076;-0.2121
0000805199;6.0597;-13.2447;3.8068;-0.2326;0.4779;-0.2258
0000805208;5.9735;-13.3166;3.7637;-0.2377;0.4466;-0.2403
0000805217;6.4069;-13.0819;3.9073;-0.2474;0.4174;-0.2651
0000805226;6.1579;-13.2615;4.0941;-0.2574;0.3872;-0.2694
0000805235;6.3973;-13.0436;4.0151;-0.2741;0.3557;-0.2778
0000805244;6.4332;-13.1897;4.0845;-0.3004;0.3399;-0.2714
0000805253;6.5505;-13.3549;4.0797;-0.3421;0.3275;-0.2474
0000805262;6.7445;-13.3405;4.0558;-0.3665;0.3242;-0.2148
0000805271;6.5242;-13.5248;3.9121;-0.4034;0.3319;-0.1537
0000805280;6.4069;-13.6541;3.8427;-0.4166;0.3340;-0.1131
0000805289;6.2920;-13.7954;3.9241;-0.4266;0.3265;-0.0659
0000805298;6.1459;-14.0803;3.9241;-0.4259;0.2987;-0.0484
0000805307;6.2225;-13.9462;3.9983;-0.4054;0.2738;-0.0461
0000805316;6.0166;-13.9917;3.9792;-0.3780;0.2190;-0.0640
0000805325;6.0956;-13.8169;3.9983;-0.3764;0.1807;-0.0873
0000805334;6.1292;-13.7355;4.1899;-0.3709;0.1312;-0.1291
0000805343;6.1244;-13.7284;4.1563;-0.3864;0.0945;-0.1466
0000805352;6.3877;-13.7523;4.3024;-0.4076;0.0654;-0.1592
0000805361;6.4811;-14.1689;4.3910;-0.4266;0.0544;-0.1611
0000805370;6.8331;-14.3149;4.3120;-0.4349;0.0420;-0.1488
0000805379;6.9983;-14.4418;4.2114;-0.4485;0.0513;-0.1282
0000805388;7.1850;-14.6262;4.1084;-0.4293;0.0482;-0.1132
0000805475;6.8426;-14.9757;4.3311;-0.4222;0.0749;-0.1379
0000805484;6.9145;-14.7914;4.2377;-0.3980;0.0549;-0.1380
0000805493;6.7205;-14.8848;4.2210;-0.3814;0.0346;-0.1399
0000805502;6.9384;-14.7172;4.1396;-0.3758;0.0357;-0.1282
0000805511;7.0294;-14.7387;4.0630;-0.3689;0.0366;-0.1304
0000805520;7.2401;-14.6693;4.0654;-0.3689;0.0504;-0.1094
0000805529;7.2975;-14.6214;4.0294;-0.3661;0.0654;-0.0983
0000805538;7.4699;-14.3173;3.9121;-0.3676;0.0983;-0.0845
0000805547;7.4747;-14.3963;3.9911;-0.3744;0.1043;-0.0935
0000805556;7.1730;-14.7579;3.8571;-0.3821;0.1255;-0.0934
0000805565;7.3334;-14.4825;3.7972;-0.3936;0.1260;-0.1085
0000805574;7.0533;-14.6214;3.8211;-0.4006;0.1376;-0.1202
0000805583;7.0773;-14.6549;3.8140;-0.4082;0.1452;-0.1314
0000805592;6.9743;-14.7770;3.8283;-0.4021;0.1442;-0.1372
0000805601;6.9959;-14.7411;3.7421;-0.4121;0.1459;-0.1328
0000805610;6.6535;-14.9446;3.7086;-0.4157;0.1340;-0.1258
0000805619;6.8738;-14.9733;3.4381;-0.4132;0.1247;-0.1151
0000805628;6.9240;-15.1146;3.6464;-0.4202;0.1434;-0.0954
0000805637;6.8905;-15.2966;3.6129;-0.4001;0.1600;-0.0735
0000805646;6.8211;-15.2104;3.5674;-0.3812;0.1588;-0.0617
0000805655;6.8450;-15.2152;3.6320;-0.3793;0.1536;-0.0424
0000805664;6.9695;-15.0164;3.4117;-0.3593;0.1561;-0.0401
0000805673;6.7684;-15.1146;3.4788;-0.3544;0.1575;-0.0301
0000805682;6.6990;-15.0308;3.4955;-0.3659;0.1616;-0.0217
0000805691;6.8977;-14.9111;3.4237;-0.3756;0.1520;-0.0119
0000805700;6.6726;-15.1122;3.4955;-0.3746;0.1322;-0.0230
0000805709;6.6511;-15.0547;3.3064;-0.3688;0.1371;-0.0240
0000805718;6.6655;-15.1026;3.2657;-0.3657;0.1200;-0.0309
0000805727;6.6846;-15.0404;3.1532;-0.3548;0.1103;-0.0338
0000805736;6.8211;-14.8991;3.1651;-0.3455;0.1071;-0.0457
0000805745;6.7062;-14.9949;3.1005;-0.3504;0.0950;-0.0468
0000805754;6.8905;-15.0835;3.0694;-0.3653;0.0894;-0.0557
0000805763;7.0509;-15.1409;3.0765;-0.3600;0.0658;-0.0450
0000805772;6.8091;-15.0404;2.9928;-0.3427;0.0497;-0.0424
0000805781;6.5649;-15.2870;2.9353;-0.3222;0.0469;-0.0389
0000805790;6.6367;-15.0883;2.9042;-0.3216;0.0308;-0.0221
0000805799;6.3662;-15.1744;2.9497;-0.3260;0.0055;0.0053
0000805808;6.5410;-15.0907;2.8084;-0.3295;0.0045;0.0328
0000805817;6.8307;-14.7483;2.7509;-0.3220;-0.0079;0.0520
0000805826;6.6583;-15.0715;2.7270;-0.3110;-0.0203;0.0650
0000805835;6.5194;-15.0859;2.7701;-0.3332;-0.0326;0.0682
0000805844;6.5888;-14.9350;2.5881;-0.3183;-0.0614;0.0530
0000805853;6.6655;-14.8824;2.6217;-0.3215;-0.0773;0.0433
0000805862;6.4979;-14.7962;2.7342;-0.3268;-0.1031;0.0344
0000805871;6.5553;-14.9231;2.4948;-0.3547;-0.1108;0.0400
0000805880;6.7325;-14.8225;2.5857;-0.3684;-0.1268;0.0421
0000805889;6.7564;-14.9997;2.6432;-0.3840;-0.1506;0.0460
0000805898;6.6559;-15.2559;2.7150;-0.3761;-0.1575;0.0568
0000805907;6.8019;-15.0787;2.5379;-0.3592;-0.1651;0.0565
0000805916;6.7660;-15.1984;2.5498;-0.3571;-0.1571;0.0741
0000805925;6.8187;-15.3516;2.5259;-0.3736;-0.1496;0.0734
0000805934;6.8785;-15.4594;2.5714;-0.3673;-0.1398;0.0741
0000805943;7.0940;-15.3205;2.6624;-0.3316;-0.1402;0.0646
0000805952;6.9336;-15.2415;2.6025;-0.3210;-0.1210;0.0641
0000805961;7.0773;-15.1290;2.5043;-0.3148;-0.1300;0.0524
0000805970;6.7780;-15.1098;2.5450;-0.3123;-0.1199;0.0458
0000805979;6.8474;-15.1361;2.4469;-0.3259;-0.1287;0.0357
0000805988;6.8570;-15.0404;2.4493;-0.3383;-0.1160;0.0334
0000805997;6.8618;-15.0763;2.4828;-0.3136;-0.1078;0.0321
0000806006;7.0030;-15.0907;2.4038;-0.3211;-0.0910;0.0398
0000806015;7.0940;-15.2319;2.2841;-0.3291;-0.0771;0.0268
0000806024;7.3885;-15.3756;2.2889;-0.3493;-0.0811;0.0028
0000806033;7.4196;-15.4402;2.3655;-0.3476;-0.0763;-0.0135
0000806042;7.3023;-15.4785;2.2793;-0.3323;-0.0770;-0.0306
0000806051;7.2425;-15.6916;2.2817;-0.3607;-0.0869;-0.0414
0000806060;7.0916;-15.9765;2.2386;-0.3896;-0.0849;-0.0456
0000806069;7.0677;-15.9789;2.3703;-0.3768;-0.0858;-0.0466
0000806078;6.8833;-16.1872;2.6360;-0.3589;-0.0955;-0.0432
0000806087;6.7229;-16.4099;2.4900;-0.3668;-0.0957;-0.0297
0000806096;6.7684;-16.3811;2.5091;-0.3353;-0.0993;-0.0149
0000806239;7.0797;-15.7826;2.4828;-0.0171;-0.0012;0.0614
0000806248;6.9743;-15.5240;2.4325;0.0044;0.0039;0.0529
0000806257;7.1060;-15.5001;2.3822;-0.0017;0.0155;0.0576
0000806266;6.9073;-15.7251;2.2482;-0.0076;0.0123;0.0570
0000806275;7.0006;-15.5312;2.2529;0.0141;0.0250;0.0533
0000806284;6.9145;-15.5408;2.5738;0.0273;0.0208;0.0525
0000806293;6.8570;-15.6293;2.5091;0.0211;0.0089;0.0502
0000806302;6.8570;-15.4881;2.3846;0.0325;0.0009;0.0333
0000806311;6.8953;-15.5120;2.3487;0.0061;-0.0147;0.0337
0000806320;6.4667;-15.6988;2.3942;0.0140;-0.0290;0.0293
0000806329;6.5434;-15.4474;2.3703;-0.0003;-0.0332;0.0328
0000806338;6.5194;-15.3420;2.2601;-0.0065;-0.0537;0.0314
0000806347;6.4404;-15.4522;2.4181;-0.0224;-0.0574;0.0378
0000806356;6.4524;-15.4761;2.4660;-0.0272;-0.0781;0.0346
0000806365;6.5745;-15.6054;2.3439;-0.0706;-0.0969;0.0437
0000806374;6.6319;-15.7730;2.2386;-0.0805;-0.0983;0.0600
0000806383;6.7612;-15.8233;2.4325;-0.0706;-0.1159;0.0600
0000806392;6.9528;-15.6700;2.4205;-0.0793;-0.1311;0.0553
0000806401;6.8953;-15.7299;2.4229;-0.0802;-0.1264;0.0566
0000806410;6.8570;-15.7754;2.4780;-0.0786;-0.1288;0.0449
0000806419;6.8019;-15.7227;2.4181;-0.0806;-0.1332;0.0421
0000806428;6.8977;-15.6437;2.2410;-0.1003;-0.1254;0.0358
0000806437;6.8187;-15.5934;2.2218;-0.1063;-0.1108;0.0336
0000806446;6.9264;-15.5934;2.1117;-0.1243;-0.0963;0.0301
0000806455;6.9528;-15.6509;2.0806;-0.1402;-0.0669;0.0281
0000806464;7.1994;-15.6581;2.2314;-0.1416;-0.0529;0.0095
0000806473;7.1826;-15.9167;2.1979;-0.1463;-0.0173;0.0103
0000806482;6.9911;-16.2135;2.2601;-0.1396;0.0001;0.0035
0000806491;6.8738;-16.5368;2.4086;-0.1275;0.0302;0.0156
0000806500;7.0342;-16.5822;2.5331;-0.1160;0.0614;0.0318
0000806509;6.9767;-16.7618;2.5379;-0.0945;0.0894;0.0545
0000806518;6.9336;-16.5008;2.4493;-0.0879;0.1231;0.0869
0000806527;6.9504;-16.4051;2.3128;-0.0743;0.1354;0.0922
0000806536;6.8139;-16.0459;2.1979;-0.0765;0.1540;0.0925
0000806545;6.7971;-15.7610;1.9321;-0.0777;0.1527;0.0689
0000806554;6.5314;-15.5719;1.5323;-0.0959;0.1488;0.0630
0000806563;6.4787;-15.4091;1.3815;-0.1103;0.1203;0.0540
0000806572;6.0980;-15.5479;1.4629;-0.1054;0.0715;0.0396
0000806581;5.6743;-15.7586;1.3862;-0.1151;0.0216;0.0404
0000806590;5.5737;-15.8161;0.9864;-0.0954;-0.0516;0.0317
0000806599;5.0015;-15.7108;1.0965;-0.1503;-0.0863;0.0545
0000806608;4.7621;-15.8089;1.1779;-0.1532;-0.1202;0.0693
0000806617;5.1882;-15.7898;1.4150;-0.1524;-0.1565;0.0600
0000806626;6.0142;-15.6892;1.4916;-0.1446;-0.1783;0.0356
0000806635;6.7109;-15.4713;1.5993;-0.1090;-0.1927;-0.0160
0000806644;7.3095;-15.4115;1.7621;-0.0959;-0.1699;-0.0564
0000806653;7.9104;-15.5479;1.9058;-0.0734;-0.1430;-0.1003
0000806662;8.6239;-15.6605;2.0877;-0.0757;-0.1102;-0.1266
0000806671;8.7532;-15.9861;1.9728;-0.0821;-0.0863;-0.1472
0000806680;8.8705;-15.9909;1.7526;-0.0914;-0.0553;-0.1470
0000806689;8.4132;-16.1154;1.6352;-0.1210;0.0031;-0.1206
0000806698;7.4843;-16.3332;1.7765;-0.1366;0.0266;-0.1070
0000806707;6.9480;-16.1010;1.5419;-0.1695;0.0486;-0.0975
0000806716;6.3901;-16.0148;1.5490;-0.1795;0.0370;-0.1059
0000806725;5.7533;-15.9717;1.4078;-0.2050;0.0199;-0.1053
0000806734;5.3151;-15.8760;1.2306;-0.2182;-0.0080;-0.1228
0000806743;5.4372;-15.7634;1.2785;-0.2321;-0.0394;-0.1272
0000806752;5.6048;-15.8113;1.2019;-0.2352;-0.0789;-0.1319
0000806761;5.6240;-16.1202;1.1516;-0.2328;-0.1037;-0.1066
0000806770;6.1723;-16.0723;1.3815;-0.2376;-0.1150;-0.0548
0000806779;6.5553;-16.4673;1.3551;-0.2332;-0.1050;0.0117
0000806788;7.1970;-16.6876;1.5299;-0.2221;-0.0759;0.0640
0000806797;7.4699;-16.9557;1.6400;-0.1917;-0.0313;0.1102
0000806806;7.4077;-17.0084;1.6520;-0.1571;-0.0015;0.1206
0000806815;7.5920;-17.0060;1.6041;-0.1368;0.0325;0.1207
0000806824;7.4986;-16.8121;1.4940;-0.0642;0.0506;0.0875
0000806833;7.4005;-16.1728;1.4389;-0.0091;0.0822;0.0525
0000806842;7.0581;-15.9933;1.3001;-0.0244;0.0847;0.0068
0000806851;7.1898;-15.7036;0.9984;-0.0428;0.0949;-0.0281
0000806860;7.3167;-15.3756;1.0127;-0.0596;0.0962;-0.0670
0000806869;7.2951;-15.1864;1.1516;-0.0830;0.1037;-0.0735
0000806957;6.7947;-16.3500;1.7573;0.0003;0.0208;0.0183
0000806966;6.8163;-16.1034;1.8627;0.0100;0.0232;0.0301
0000806975;6.8402;-16.1992;1.5107;-0.0025;0.0230;0.0320
0000806984;6.9360;-15.9813;1.6712;-0.0017;0.0297;0.0318
0000806993;6.9360;-15.7371;1.4557;-0.0167;0.0272;0.0172
0000807002;6.7660;-15.7131;1.4078;-0.0325;0.0222;0.0117
0000807011;6.7253;-15.6485;1.4581;-0.0482;0.0117;0.0080
0000807020;6.5338;-15.7658;1.4054;-0.0562;-0.0093;0.0020
0000807029;6.4596;-15.7969;1.3072;-0.0831;-0.0262;0.0029
0000807038;6.2345;-15.8807;1.2258;-0.0805;-0.0625;-0.0020
0000807047;6.5074;-15.6174;1.4293;-0.0790;-0.0849;-0.0036
0000807056;6.3566;-15.9933;1.3503;-0.1029;-0.1057;0.0125
0000807065;6.2201;-16.1130;1.2426;-0.0957;-0.1300;0.0111
0000807074;6.1651;-16.2542;1.4078;-0.0962;-0.1515;0.0204
0000807083;6.2537;-16.4266;1.4317;-0.0897;-0.1736;0.0249
0000807092;6.3183;-16.1848;1.2761;-0.0661;-0.1871;0.0270
0000807101;6.5434;-16.1513;1.3144;-0.0699;-0.1889;0.0422
0000807110;6.7109;-16.4984;1.1540;-0.0757;-0.1985;0.0429
0000807119;6.7516;-16.2542;1.2761;-0.0634;-0.1993;0.0428
0000807128;6.7062;-16.1202;1.3072;-0.0257;-0.2089;0.0341
0000807137;6.6798;-16.1776;1.2641;-0.0390;-0.1990;0.0354
0000807146;6.7373;-16.2207;1.1875;-0.0278;-0.2112;0.0304
0000807155;6.7756;-16.2447;1.2737;-0.0240;-0.1957;0.0292
0000807164;6.8905;-16.2040;1.1588;-0.0334;-0.1966;0.0181
0000807173;6.8378;-16.1178;1.2929;-0.0123;-0.1869;0.0157
0000807182;6.8666;-16.0076;1.4102;-0.0121;-0.1805;0.0176
0000807191;6.9839;-16.1034;1.2163;-0.0221;-0.1799;0.0137
0000807200;6.8474;-16.3045;1.1851;-0.0333;-0.1723;0.0175
0000807209;6.7397;-16.3309;1.3647;-0.0181;-0.1648;0.0095
0000807218;6.6176;-16.2614;1.3719;0.0053;-0.1673;-0.0085
0000807227;6.6846;-16.1704;1.4078;0.0068;-0.1568;0.0045
0000807236;6.7564;-16.2878;1.3168;-0.0079;-0.1528;0.0112
0000807245;6.6559;-16.3165;1.3072;0.0159;-0.1422;0.0052
0000807254;6.6248;-16.0866;1.2594;0.0183;-0.1354;0.0049
0000807263;6.7157;-16.0005;1.4437;0.0385;-0.1288;0.0045
0000807272;6.7900;-15.9502;1.4557;0.0240;-0.1260;0.0087
0000807281;6.4835;-16.2375;1.1444;0.0121;-0.1175;0.0017
0000807290;6.5625;-16.0244;1.1636;0.0193;-0.1334;-0.0017
0000807299;6.6367;-15.9214;1.2809;0.0035;-0.1282;0.0053
0000807308;6.4620;-16.0412;1.2665;0.0159;-0.1418;-0.0100
0000807317;6.3494;-16.0627;1.3479;0.0023;-0.1571;-0.0028
0000807326;6.3111;-16.1680;1.3120;-0.0037;-0.1731;0.0025
0000807335;6.1842;-16.1393;1.3934;0.0069;-0.2002;0.0024
0000807344;6.1292;-16.1656;1.4078;0.0007;-0.2222;0.0044
0000807353;6.3159;-15.9382;1.2881;0.0084;-0.2578;0.0032
0000807362;6.0238;-15.9957;1.4054;0.0137;-0.2902;0.0084
0000807371;6.1555;-15.9645;1.5179;0.0211;-0.3164;0.0225
0000807380;6.0214;-15.9238;1.3934;0.0187;-0.3589;0.0334
0000807389;6.1148;-16.0148;1.2737;-0.0012;-0.3873;0.0538
0000807398;5.9759;-16.2087;1.3168;-0.0028;-0.4222;0.0510
0000807407;6.1531;-16.1393;1.4437;0.0003;-0.4510;0.0622
0000807416;6.1483;-15.9334;1.4964;0.0099;-0.4891;0.0734
0000807425;6.3470;-16.0651;1.4485;-0.0057;-0.5121;0.0871
0000807434;6.2920;-16.1082;1.3838;-0.0007;-0.5444;0.0901
0000807443;6.3566;-16.0364;1.3384;-0.0125;-0.5566;0.1017
0000807452;6.4787;-15.9717;1.4988;-0.0084;-0.5828;0.0990
0000807461;6.5218;-16.0914;1.4605;-0.0165;-0.6095;0.1009
0000807470;6.5098;-16.0890;1.4174;-0.0115;-0.6170;0.1054
0000807479;6.7612;-15.9023;1.4126;-0.0145;-0.6255;0.1081
0000807488;6.7349;-16.0531;1.3743;-0.0172;-0.6384;0.1090
0000807497;6.8235;-16.1058;1.4389;-0.0269;-0.6427;0.1138
0000807506;6.7445;-16.2159;1.3408;-0.0103;-0.6499;0.1053
0000807515;6.8283;-16.1034;1.3072;-0.0101;-0.6452;0.1139
0000807524;7.1108;-16.2255;1.3312;-0.0161;-0.6482;0.1062
0000807533;6.9432;-16.3213;1.3503;0.0092;-0.6379;0.1087
0000807542;6.9935;-16.2566;1.3336;0.0125;-0.6374;0.1096
0000807551;7.0485;-16.2638;1.1468;0.0157;-0.6243;0.1091
0000807560;7.0294;-16.1728;1.3168;0.0402;-0.6209;0.1043
0000807569;6.9552;-16.1561;1.2809;0.0474;-0.5962;0.1096
0000807578;7.3502;-15.7898;1.3503;0.0424;-0.5769;0.1183
0000807587;7.2257;-16.0675;1.2881;0.0302;-0.5605;0.1096
0000807679;7.0150;-16.0627;1.4198;0.0129;-0.3340;0.0504
0000807688;7.1587;-16.0100;1.4293;0.0217;-0.3214;0.0456
0000807697;7.2449;-15.8783;1.3791;0.0109;-0.2927;0.0530
0000807706;7.1228;-16.0220;1.4102;0.0068;-0.2802;0.0530
0000807715;7.0461;-16.0962;1.4006;-0.0015;-0.2657;0.0440
0000807724;7.0126;-16.0986;1.4916;0.0039;-0.2479;0.0336
0000807733;7.0054;-16.0555;1.5036;0.0061;-0.2411;0.0274
0000807742;6.9887;-16.0795;1.5802;0.0024;-0.2136;0.0293
0000807751;6.9528;-16.0412;1.4988;0.0123;-0.2008;0.0276
0000807760;7.0988;-15.8855;1.5083;0.0011;-0.1811;0.0364
0000807769;6.9671;-16.0890;1.4293;-0.0149;-0.1656;0.0253
0000807778;7.1994;-15.9813;1.4533;-0.0140;-0.1468;0.0258
0000807787;6.9983;-16.0890;1.3767;-0.0254;-0.1272;0.0213
0000807796;7.2185;-15.8999;1.3599;-0.0277;-0.1252;0.0079
0000807805;7.0437;-15.9526;1.4174;-0.0345;-0.1075;0.0140
0000807814;6.8738;-16.1609;1.4269;-0.0374;-0.1003;0.0080
0000807823;6.7876;-16.1034;1.4796;-0.0373;-0.0866;0.0101
0000807832;6.9456;-16.0603;1.3838;-0.0377;-0.0769;0.0091
0000807841;6.6870;-16.1178;1.4246;-0.0402;-0.0601;0.0145
0000807850;6.9408;-15.9119;1.4772;-0.0265;-0.0641;0.0160
0000807859;6.8211;-16.1154;1.2570;-0.0524;-0.0512;0.0111
0000807868;6.8067;-16.2207;1.3623;-0.0432;-0.0408;0.0025
0000807877;6.6607;-16.2087;1.4581;-0.0321;-0.0400;-0.0071
0000807886;6.9049;-15.9933;1.4485;-0.0318;-0.0360;-0.0103
0000807895;6.7564;-16.0914;1.4509;-0.0342;-0.0185;-0.0005
0000807904;6.7086;-16.0316;1.4078;-0.0313;-0.0176;-0.0039
0000807913;6.7445;-16.0292;1.4389;-0.0420;0.0007;0.0051
0000807922;6.9719;-15.9430;1.4317;-0.0417;0.0067;0.0055
0000807931;6.7876;-16.1417;1.3743;-0.0474;0.0148;0.0100
0000807940;6.8139;-16.0842;1.4700;-0.0441;0.0212;0.0032
0000807949;6.7852;-16.2040;1.4629;-0.0492;0.0344;0.0092
0000807958;6.8570;-16.2087;1.4581;-0.0358;0.0338;0.0019
0000807967;6.8067;-16.0052;1.4557;-0.0336;0.0381;0.0008
0000807976;6.6774;-16.3500;1.4150;-0.0360;0.0573;0.0060
0000807985;6.8283;-16.0531;1.4126;-0.0269;0.0588;-0.0079
0000807994;6.8690;-16.1178;1.3384;-0.0252;0.0701;0.0008
0000808003;6.8019;-16.1058;1.4772;-0.0141;0.0687;-0.0096
0000808012;6.6918;-16.1369;1.4006;-0.0099;0.0793;-0.0108
0000808021;6.7062;-16.0938;1.4485;-0.0072;0.0815;-0.0071
0000808030;6.7636;-16.0986;1.5083;-0.0011;0.0813;-0.0093
0000808039;6.7876;-16.1728;1.4198;-0.0109;0.0890;-0.0111
0000808048;6.7133;-16.0819;1.4150;-0.0087;0.0925;-0.0212
0000808057;6.7516;-16.0747;1.4676;-0.0024;0.0950;-0.0171
0000808066;6.6702;-16.1920;1.4126;-0.0020;0.0978;-0.0135
0000808075;6.4715;-16.4170;1.3862;0.0123;0.0966;-0.0234
0000808084;6.6583;-16.1585;1.4174;0.0155;0.1055;-0.0167
0000808093;6.5074;-16.2782;1.3384;0.0261;0.1033;-0.0205
0000808102;6.6870;-16.1465;1.3312;0.0348;0.1018;-0.0200
0000808111;6.7253;-16.2111;1.3264;0.0368;0.1110;-0.0216
0000808120;6.5625;-16.3763;1.2665;0.0474;0.1082;-0.0189
0000808129;6.6200;-16.2207;1.3001;0.0445;0.1178;-0.0152
0000808138;6.7301;-16.0316;1.3623;0.0514;0.1096;-0.0226
0000808147;6.8378;-15.9214;1.2737;0.0382;0.1164;-0.0237
0000808156;6.6200;-16.0268;1.3048;0.0405;0.1202;-0.0209
0000808165;6.6631;-15.9119;1.1923;0.0352;0.1170;-0.0224
0000808174;6.5721;-16.0340;1.3384;0.0330;0.1184;-0.0196
0000808183;6.5242;-15.9789;1.3144;0.0300;0.1104;-0.0240
0000808192;6.6487;-15.9526;1.3360;0.0246;0.1179;-0.0193
0000808201;6.5266;-15.9502;1.3886;0.0258;0.1111;-0.0200
0000808210;6.6080;-15.9717;1.4222;0.0112;0.1159;-0.0157
0000808219;6.7181;-15.9190;1.3479;0.0139;0.1108;-0.0264
0000808228;6.5697;-15.9478;1.4030;0.0065;0.1182;-0.0245
0000808237;6.5050;-16.1106;1.3048;0.0073;0.1055;-0.0262
0000808246;6.5218;-16.1297;1.3838;0.0052;0.1061;-0.0342
0000808255;6.5170;-16.0028;1.4317;0.0021;0.1037;-0.0286
0000808264;6.4404;-16.0268;1.4126;0.0016;0.0970;-0.0297
0000808273;6.5625;-16.0244;1.4006;-0.0073;0.0931;-0.0238
0000808282;6.3853;-16.0364;1.4724;-0.0027;0.0810;-0.0281
0000808291;6.5841;-15.9885;1.3575;-0.0105;0.0766;-0.0242
0000808300;6.4955;-15.9885;1.4222;-0.0151;0.0725;-0.0213
0000808309;6.4691;-15.9286;1.4078;-0.0184;0.0632;-0.0195
0000808318;6.4715;-15.9574;1.3360;-0.0277;0.0597;-0.0201
0000808406;6.3518;-16.1848;1.5969;-0.0173;0.0469;-0.0091
0000808415;6.4165;-16.0555;1.4796;-0.0183;0.0369;-0.0120
0000808424;6.3087;-16.1848;1.4389;-0.0177;0.0192;-0.0234
0000808433;6.5242;-15.9071;1.4820;-0.0240;0.0181;-0.0189
0000808442;6.5146;-15.9478;1.5443;-0.0301;0.0205;-0.0145
0000808451;6.5481;-15.8879;1.5562;-0.0272;0.0096;-0.0185
0000808460;6.7205;-15.8113;1.5347;-0.0304;0.0092;-0.0111
0000808469;6.6319;-15.7802;1.5897;-0.0288;0.0085;-0.0097
0000808478;6.7756;-15.8568;1.5060;-0.0288;0.0112;-0.0076
0000808487;6.6391;-15.9621;1.4892;-0.0293;0.0149;0.0009
0000808496;6.4069;-16.2064;1.5275;-0.0246;0.0139;-0.0005
0000808505;6.6966;-16.0531;1.5538;-0.0238;0.0109;-0.0039
0000808514;6.5098;-16.0747;1.5012;-0.0192;0.0139;-0.0008
0000808523;6.4979;-16.1345;1.5850;-0.0173;0.0075;-0.0084
0000808532;6.5386;-16.0340;1.6616;-0.0237;0.0141;0.0029
0000808541;6.6295;-16.0268;1.5754;-0.0177;0.0116;-0.0044
0000808550;6.6679;-16.0795;1.6712;-0.0207;0.0121;-0.0007
0000808559;6.5098;-16.0819;1.6448;-0.0197;0.0096;-0.0063
0000808568;6.4548;-16.1872;1.5945;-0.0261;0.0164;-0.0031
0000808577;6.6655;-16.0747;1.5179;-0.0163;0.0123;-0.0075
0000808586;6.5050;-16.1417;1.5443;-0.0172;0.0173;-0.0048
0000808595;6.5050;-16.2878;1.5874;-0.0108;0.0200;-0.0107
0000808604;6.7109;-16.0005;1.5874;-0.0109;0.0284;-0.0069
0000808613;6.5553;-16.1896;1.5538;-0.0060;0.0302;-0.0009
0000808622;6.6511;-15.9574;1.5299;-0.0065;0.0308;-0.0055
0000808631;6.6607;-16.0220;1.5131;0.0020;0.0244;-0.0115
0000808640;6.4643;-16.2375;1.5036;0.0027;0.0340;-0.0031
0000808649;6.6008;-16.0292;1.5490;0.0045;0.0232;-0.0124
0000808658;6.4979;-16.1585;1.5467;0.0029;0.0366;-0.0052
0000808667;6.6343;-15.9621;1.4461;0.0051;0.0306;-0.0129
0000808676;6.6176;-16.1010;1.5131;0.0013;0.0356;-0.0057
0000808685;6.5841;-16.1273;1.4916;0.0131;0.0305;-0.0123
0000808694;6.6056;-16.0986;1.6257;0.0131;0.0361;-0.0059
0000808703;6.5098;-16.2518;1.5012;0.0199;0.0341;-0.0159
0000808712;6.4931;-16.0938;1.5203;0.0313;0.0273;-0.0187
0000808721;6.6200;-15.9957;1.3982;0.0218;0.0321;-0.0089
0000808730;6.5793;-15.8736;1.5155;0.0192;0.0264;-0.0119
0000808739;6.3901;-16.1130;1.4700;0.0172;0.0258;-0.0103
0000808748;6.4955;-15.8568;1.4461;0.0205;0.0152;-0.0140
0000808757;6.5314;-15.9526;1.4557;0.0077;0.0165;-0.0071
0000808766;6.5146;-15.9837;1.4940;0.0055;0.0057;-0.0181
0000808775;6.5481;-16.0435;1.4820;0.0041;0.0101;-0.0036
0000808784;6.5505;-15.9167;1.5921;0.0085;0.0065;-0.0088
0000808793;6.4763;-16.1609;1.4868;0.0019;0.0064;-0.0039
0000808802;6.4883;-16.1585;1.5850;0.0075;-0.0003;-0.0064
0000808811;6.4667;-16.0627;1.5658;0.0057;0.0017;0.0012
0000808820;6.6200;-16.0340;1.4629;0.0088;-0.0085;-0.0092
0000808829;6.4212;-16.0675;1.5586;0.0029;-0.0045;-0.0072
0000808838;6.4189;-15.9693;1.3958;0.0016;-0.0108;-0.0124
0000808847;6.5314;-15.9741;1.4341;0.0015;-0.0188;-0.0073
0000808856;6.5290;-15.8927;1.3982;-0.0080;-0.0220;-0.0012
0000808865;6.4667;-15.9597;1.4054;-0.0041;-0.0358;-0.0083
0000808874;6.3686;-16.0076;1.4557;-0.0111;-0.0346;0.0023
0000808883;6.4452;-15.9957;1.4222;-0.0133;-0.0392;0.0077
0000808892;6.5936;-16.0316;1.4198;-0.0143;-0.0412;0.0060
0000808901;6.4907;-15.9837;1.4700;-0.0116;-0.0408;0.0132
0000808910;6.6080;-16.0076;1.5131;-0.0064;-0.0488;0.0117
0000808919;6.4859;-16.0435;1.5443;-0.0107;-0.0506;0.0072
0000808928;6.5218;-16.0627;1.4461;-0.0039;-0.0544;0.0033
0000808937;6.5625;-16.0842;1.5203;-0.0179;-0.0484;0.0080
0000808946;6.4811;-16.0699;1.4461;-0.0161;-0.0548;-0.0004
0000808955;6.4835;-16.0675;1.4317;-0.0222;-0.0512;0.0044
0000808964;6.5625;-15.9741;1.4796;-0.0216;-0.0534;0.0035
0000808973;6.6008;-16.0483;1.4581;-0.0234;-0.0497;0.0084
0000808982;6.6631;-16.0028;1.4988;-0.0278;-0.0418;0.0139
0000808991;6.6870;-16.0172;1.4341;-0.0222;-0.0440;0.0069
0000809000;6.6176;-15.9478;1.4078;-0.0325;-0.0346;0.0133
0000809009;6.4787;-16.0771;1.5682;-0.0237;-0.0369;0.0072
0000809018;6.3758;-16.1585;1.5155;-0.0349;-0.0313;0.0137
0000809027;6.4069;-16.1226;1.4748;-0.0333;-0.0365;0.0115
0000809036;6.5098;-15.9837;1.4724;-0.0289;-0.0268;0.0172
0000809124;6.4572;-16.0627;1.4078;-0.0466;0.0148;0.0265
0000809133;6.3997;-16.1824;1.4246;-0.0434;0.0093;0.0191
0000809142;6.5673;-16.0651;1.4796;-0.0518;0.0221;0.0246
0000809151;6.3805;-16.0364;1.5131;-0.0518;0.0132;0.0233
0000809160;6.3087;-16.1273;1.4772;-0.0496;0.0103;0.0207
0000809169;6.5170;-15.9454;1.4030;-0.0485;0.0200;0.0245
0000809178;6.3829;-16.1249;1.3982;-0.0504;0.0196;0.0197
0000809187;6.2680;-16.2710;1.4437;-0.0517;0.0171;0.0205
0000809196;6.3303;-16.2494;1.4485;-0.0485;0.0168;0.0232
0000809205;6.3470;-16.1465;1.4916;-0.0557;0.0157;0.0245
0000809214;6.4500;-16.0388;1.5802;-0.0506;0.0225;0.0356
0000809223;6.3207;-16.1704;1.5538;-0.0450;0.0187;0.0308
0000809232;6.2632;-16.1537;1.4868;-0.0448;0.0254;0.0284
0000809241;6.4069;-16.1345;1.4581;-0.0425;0.0262;0.0245
0000809250;6.5529;-16.0220;1.4557;-0.0506;0.0413;0.0285
0000809259;6.4907;-16.0890;1.4317;-0.0520;0.0365;0.0230
0000809268;6.4308;-16.1441;1.3599;-0.0542;0.0390;0.0203
0000809277;6.4428;-15.9526;1.4988;-0.0570;0.0453;0.0188
0000809286;6.4476;-16.0316;1.3024;-0.0556;0.0420;0.0232
0000809295;6.4332;-15.9190;1.3743;-0.0601;0.0430;0.0188
0000809304;6.4117;-16.0172;1.4222;-0.0497;0.0412;0.0159
0000809313;6.3710;-16.2064;1.4892;-0.0512;0.0353;0.0155
0000809322;6.3231;-16.2471;1.3910;-0.0456;0.0368;0.0167
0000809331;6.4236;-16.1920;1.4796;-0.0424;0.0334;0.0173
0000809340;6.5074;-16.0220;1.3719;-0.0506;0.0400;0.0254
0000809349;6.3470;-16.0890;1.3479;-0.0388;0.0365;0.0187
0000809358;6.2632;-16.2111;1.4461;-0.0393;0.0393;0.0205
0000809367;6.4739;-16.0675;1.4964;-0.0328;0.0349;0.0188
0000809376;6.2537;-16.0819;1.3982;-0.0348;0.0409;0.0215
0000809385;6.3398;-16.0052;1.3192;-0.0281;0.0321;0.0088
0000809394;6.3734;-16.0364;1.4222;-0.0288;0.0417;0.0165
0000809403;6.4811;-16.0268;1.4198;-0.0325;0.0337;0.0136
0000809412;6.2848;-16.0627;1.3575;-0.0230;0.0369;0.0151
0000809421;6.3590;-16.0244;1.4054;-0.0203;0.0401;0.0157
0000809430;6.3231;-16.0435;1.3743;-0.0172;0.0320;0.0101
0000809437;6.3542;-16.0316;1.4126;-0.0171;0.0302;0.0111
0000809445;6.0501;-16.2159;1.4413;-0.0241;0.0360;0.0209
0000809453;6.1699;-16.0579;1.5179;-0.0234;0.0397;0.0185
0000809461;6.0478;-16.1656;1.5443;-0.0192;0.0268;0.0123
0000809469;6.2106;-16.1321;1.3958;-0.0201;0.0285;0.0156
0000809477;6.2106;-16.0747;1.3838;-0.0203;0.0301;0.0201
0000809485;6.1196;-16.0220;1.4533;-0.0217;0.0276;0.0222
0000809493;6.2369;-15.9813;1.4700;-0.0265;0.0215;0.0196
0000809501;6.2225;-15.9334;1.4413;-0.0257;0.0173;0.0177
0000809509;6.1770;-16.0459;1.3575;-0.0274;0.0155;0.0171
0000809517;6.1555;-16.1561;1.3647;-0.0181;0.0084;0.0195
0000809525;6.3207;-16.1226;1.4222;-0.0245;0.0165;0.0241
0000809533;6.3207;-16.0890;1.3360;-0.0233;0.0091;0.0218
0000809541;6.3255;-16.1656;1.3264;-0.0250;0.0133;0.0285
0000809549;6.2034;-16.0890;1.3072;-0.0226;0.0059;0.0290
