time;acc_x;acc_y;acc_z;gyro_x;gyro_y;gyro_z
0000309976;-1.2594;-0.1963;-1.5203;-0.0040;-0.0328;-0.0128
0000309984;-1.2641;-0.3472;-1.4988;-0.0096;-0.0264;-0.0123
0000309991;-1.1013;-0.2610;-1.5802;-0.0101;-0.0293;-0.0147
0000309999;-1.0151;-0.2370;-1.5802;-0.0104;-0.0281;-0.0089
0000310008;-1.1085;-0.2610;-1.5107;-0.0079;-0.0322;-0.0139
0000310016;-1.0918;-0.2274;-1.5802;-0.0083;-0.0296;-0.0111
0000310028;-1.2139;-0.2059;-1.6209;-0.0083;-0.0373;-0.0124
0000310036;-1.2186;-0.1484;-1.4868;-0.0115;-0.0281;-0.0116
0000310047;-1.1588;-0.1221;-1.5371;-0.0073;-0.0270;-0.0185
0000310055;-1.2402;-0.3017;-1.5131;-0.0156;-0.0253;-0.0136
0000310067;-1.2426;-0.2753;-1.6352;-0.0161;-0.0284;-0.0139
0000310075;-1.1636;-0.1556;-1.5562;-0.0197;-0.0257;-0.0136
0000310083;-1.0175;-0.0168;-1.4724;-0.0127;-0.0326;-0.0215
0000310094;-1.2186;-0.2083;-1.4868;-0.0179;-0.0292;-0.0165
0000310102;-1.0127;-0.1532;-1.5802;-0.0207;-0.0250;-0.0120
0000310114;-1.1277;-0.2394;-1.5490;-0.0234;-0.0208;-0.0141
0000310122;-1.1085;-0.1939;-1.5371;-0.0248;-0.0237;-0.0120
0000310189;-1.2163;-0.2346;-1.5443;-0.0208;-0.0288;-0.0089
0000310197;-1.1085;-0.1365;-1.4916;-0.0123;-0.0305;-0.0149
0000310209;-1.2402;-0.3232;-1.5251;-0.0109;-0.0256;-0.0120
0000310217;-1.1396;-0.2634;-1.4772;-0.0188;-0.0173;-0.0072
0000310228;-1.1013;-0.2610;-1.5850;-0.0163;-0.0151;-0.0100
0000310236;-1.3288;-0.2897;-1.5706;-0.0129;-0.0199;-0.0169
0000310248;-1.4700;-0.4597;-1.5443;-0.0129;-0.0340;-0.0179
0000310256;-1.1827;-0.2634;-1.5969;-0.0112;-0.0362;-0.0105
0000310267;-1.1803;-0.2634;-1.4676;-0.0097;-0.0428;-0.0127
0000310275;-1.1756;-0.3017;-1.5179;-0.0173;-0.0316;-0.0085
0000310287;-1.1971;-0.2897;-1.5874;-0.0179;-0.0238;-0.0061
0000310295;-1.0080;-0.0599;-1.5682;-0.0148;-0.0310;-0.0164
0000310303;-0.9768;0.0742;-1.5634;-0.0129;-0.0276;-0.0100
0000310314;-1.1660;-0.2274;-1.5347;-0.0195;-0.0322;-0.0189
0000310322;-1.2186;-0.2203;-1.5083;-0.0193;-0.0288;-0.0103
0000310334;-1.1492;-0.2753;-1.4940;-0.0135;-0.0322;-0.0164
0000310342;-1.2163;-0.3783;-1.5419;-0.0148;-0.0305;-0.0091
0000310353;-1.1540;-0.1604;-1.4605;-0.0169;-0.0282;-0.0076
0000310361;-1.2426;-0.4046;-1.5299;-0.0168;-0.0285;-0.0107
0000310373;-1.0870;-0.0766;-1.5203;-0.0169;-0.0264;-0.0088
0000310381;-1.1947;-0.2873;-1.5155;-0.0156;-0.0230;-0.0059
0000310449;-1.1037;-0.2538;-1.5562;-0.0008;-0.0386;-0.0109
0000310457;-1.2067;-0.3208;-1.6137;-0.0076;-0.0306;-0.0064
0000310469;-1.2354;-0.2562;-1.5514;-0.0085;-0.0340;-0.0089
0000310477;-1.2450;-0.1867;-1.5874;-0.0045;-0.0345;-0.0172
0000310488;-1.1109;-0.1915;-1.5706;-0.0155;-0.0340;-0.0104
0000310496;-1.0678;-0.0814;-1.5562;-0.0103;-0.0278;-0.0112
0000310504;-1.0415;-0.1317;-1.4844;-0.0183;-0.0241;-0.0096
0000310516;-1.0008;-0.1221;-1.5682;-0.0173;-0.0268;-0.0073
0000310524;-1.1851;-0.1628;-1.5443;-0.0083;-0.0377;-0.0143
0000310535;-1.1444;-0.2921;-1.4772;-0.0153;-0.0229;-0.0112
0000310543;-1.0319;-0.1604;-1.5443;-0.0137;-0.0258;-0.0120
0000310555;-1.1827;-0.1125;-1.5443;-0.0165;-0.0288;-0.0113
0000310563;-1.2665;-0.2873;-1.4964;-0.0131;-0.0324;-0.0155
0000310574;-1.0965;-0.1963;-1.5395;-0.0157;-0.0249;-0.0200
0000310582;-1.2163;-0.3424;-1.5514;-0.0128;-0.0197;-0.0164
0000310594;-1.1420;-0.1197;-1.5299;-0.0140;-0.0282;-0.0175
0000310602;-1.2210;-0.2610;-1.5371;-0.0217;-0.0200;-0.0155
0000310613;-1.0774;-0.1820;-1.5083;-0.0196;-0.0232;-0.0215
0000310621;-1.0678;-0.2873;-1.4868;-0.0213;-0.0157;-0.0189
0000310633;-1.0223;-0.4884;-1.4700;-0.0338;-0.0436;-0.0308
0000310641;-0.9649;-0.3160;-1.5107;-0.0328;-0.0300;-0.0241
0000310709;-1.3072;-0.3903;-1.5419;-0.0286;-0.0281;-0.0208
0000310717;-1.1803;-0.3448;-1.6233;-0.0163;-0.0321;-0.0225
0000310725;-1.0534;-0.2083;-1.5275;-0.0193;-0.0273;-0.0129
0000310737;-1.0965;-0.3017;-1.5826;-0.0136;-0.0244;-0.0147
0000310745;-1.2330;-0.1460;-1.5323;-0.0084;-0.0183;-0.0195
0000310756;-1.2594;-0.4238;-1.5179;-0.0053;-0.0280;-0.0181
0000310764;-1.2019;-0.1796;-1.5179;-0.0113;-0.0229;-0.0143
0000310776;-1.2091;-0.3304;-1.5323;-0.0091;-0.0289;-0.0156
0000310784;-1.2929;-0.2658;-1.6185;-0.0117;-0.0225;-0.0120
0000310795;-1.3838;-0.3687;-1.5490;-0.0117;-0.0236;-0.0137
0000310803;-1.1492;-0.2945;-1.5586;-0.0017;-0.0225;-0.0137
0000310815;-1.1732;-0.1939;-1.5083;0.0005;-0.0325;-0.0141
0000310823;-1.2617;-0.3663;-1.6496;-0.0072;-0.0314;-0.0104
0000310834;-1.1157;-0.2682;-1.5658;-0.0061;-0.0382;-0.0135
0000310842;-0.9313;-0.2514;-1.7693;-0.0107;-0.0396;-0.0171
0000310854;-1.0989;-0.2466;-1.5443;-0.0103;-0.0234;-0.0063
0000310862;-1.2881;-0.2083;-1.5730;-0.0040;-0.0325;-0.0156
0000310870;-1.2043;-0.1197;-1.4940;-0.0071;-0.0272;-0.0097
0000310881;-1.2737;-0.2035;-1.4533;-0.0092;-0.0294;-0.0049
0000310889;-1.2091;-0.1844;-1.5083;-0.0088;-0.0376;-0.0140
0000310901;-1.1013;-0.0718;-1.5443;-0.0063;-0.0382;-0.0117
0000310909;-1.1995;-0.3424;-1.5395;-0.0068;-0.0277;-0.0085
0000310977;-1.2594;-0.3711;-1.5969;0.0020;-0.0313;-0.0164
0000310985;-1.1325;-0.1724;-1.5562;-0.0052;-0.0222;-0.0099
0000310997;-1.2498;-0.3711;-1.6496;-0.0012;-0.0181;-0.0161
0000311005;-1.1564;-0.1748;-1.5634;-0.0067;-0.0197;-0.0125
0000311016;-1.1779;-0.1987;-1.5921;-0.0032;-0.0322;-0.0148
0000311024;-1.1468;-0.3304;-1.5490;-0.0095;-0.0265;-0.0113
0000311036;-1.2139;-0.2322;-1.5155;-0.0075;-0.0269;-0.0175
0000311044;-1.1636;-0.3017;-1.5754;-0.0032;-0.0306;-0.0188
0000311055;-1.2665;-0.3065;-1.5012;-0.0035;-0.0264;-0.0167
0000311063;-1.2115;-0.2825;-1.5514;0.0000;-0.0357;-0.0184
0000311071;-1.2067;-0.2849;-1.5562;-0.0029;-0.0348;-0.0129
0000311083;-1.0367;-0.2131;-1.6281;-0.0023;-0.0304;-0.0165
0000311091;-1.0223;-0.0646;-1.5443;-0.0101;-0.0261;-0.0151
0000311102;-1.2665;-0.3591;-1.6496;-0.0080;-0.0238;-0.0133
0000311110;-1.0989;-0.1987;-1.6137;-0.0009;-0.0272;-0.0160
0000311122;-1.2570;-0.1772;-1.6065;-0.0013;-0.0328;-0.0180
0000311130;-1.2546;-0.2538;-1.5993;-0.0057;-0.0325;-0.0119
0000311141;-1.0774;-0.0311;-1.6496;-0.0085;-0.0406;-0.0161
0000311149;-1.2163;-0.1413;-1.5107;-0.0027;-0.0453;-0.0165
0000311161;-1.2067;-0.1580;-1.6281;-0.0049;-0.0528;-0.0195
0000311169;-1.0942;-0.2131;-1.5850;-0.0121;-0.0425;-0.0135
0000311237;-1.2426;-0.2993;-1.6568;-0.0092;-0.0496;-0.0249
0000311245;-1.1085;-0.1820;-1.5682;-0.0137;-0.0461;-0.0209
0000311257;-1.2953;-0.3280;-1.5754;-0.0187;-0.0545;-0.0215
0000311265;-1.2402;-0.4022;-1.5778;-0.0191;-0.0454;-0.0246
0000311276;-1.1253;-0.2873;-1.4724;-0.0127;-0.0368;-0.0163
0000311284;-1.2617;-0.1580;-1.5754;-0.0140;-0.0402;-0.0160
0000311292;-1.2354;-0.3208;-1.5754;-0.0125;-0.0457;-0.0148
0000311304;-1.1899;-0.2849;-1.5107;-0.0077;-0.0622;-0.0121
0000311312;-1.1205;-0.2227;-1.5897;-0.0015;-0.0662;-0.0165
0000311324;-1.2665;-0.3663;-1.5802;-0.0040;-0.0678;-0.0173
0000311332;-1.3934;-0.4070;-1.6305;-0.0057;-0.0608;-0.0108
0000311343;-1.1779;-0.2993;-1.5634;-0.0072;-0.0509;-0.0103
0000311351;-1.1851;-0.1580;-1.5443;-0.0123;-0.0530;-0.0125
0000311363;-0.9720;-0.0215;-1.5706;-0.0123;-0.0548;-0.0151
0000311371;-1.1732;-0.1556;-1.5323;-0.0101;-0.0572;-0.0177
0000311382;-1.2163;-0.2035;-1.5730;-0.0121;-0.0597;-0.0200
0000311390;-1.0534;-0.2131;-1.5658;-0.0136;-0.0532;-0.0191
0000311402;-1.1037;-0.2179;-1.5514;-0.0109;-0.0533;-0.0187
0000311410;-1.3048;-0.2634;-1.5538;-0.0084;-0.0581;-0.0159
0000311422;-1.1468;-0.1460;-1.4844;-0.0055;-0.0598;-0.0196
0000311430;-1.0870;-0.2586;-1.4940;-0.0103;-0.0500;-0.0179
0000311438;-1.1971;-0.3208;-1.5323;-0.0105;-0.0474;-0.0151
0000311506;-1.0151;-0.2227;-1.5706;0.0003;-0.0481;-0.0187
0000311514;-1.2330;-0.3256;-1.5897;-0.0067;-0.0376;-0.0148
0000311525;-1.2043;-0.2394;-1.5371;-0.0059;-0.0426;-0.0187
0000311533;-1.2594;-0.3065;-1.5443;-0.0068;-0.0408;-0.0232
0000311545;-1.2809;-0.3017;-1.6544;-0.0131;-0.0349;-0.0168
0000311553;-1.3647;-0.2921;-1.5443;-0.0071;-0.0353;-0.0199
0000311564;-1.3527;-0.2538;-1.5945;-0.0151;-0.0405;-0.0172
0000311572;-1.3671;-0.2682;-1.5897;-0.0131;-0.0490;-0.0128
0000311584;-1.1875;-0.2801;-1.5371;-0.0101;-0.0600;-0.0117
0000311592;-1.1827;-0.3017;-1.5706;-0.0119;-0.0590;-0.0049
0000311603;-1.2091;-0.2538;-1.6448;-0.0053;-0.0529;-0.0016
0000311611;-1.0319;-0.2634;-1.5443;-0.0076;-0.0450;0.0005
0000311623;-1.0343;-0.2634;-1.5036;-0.0089;-0.0262;-0.0043
0000311631;-1.1181;-0.1748;-1.5060;-0.0135;-0.0165;-0.0124
0000311639;-1.0247;-0.0838;-1.5275;-0.0141;-0.0156;-0.0136
0000311650;-1.1875;-0.2705;-1.4700;-0.0113;-0.0197;-0.0201
0000311658;-1.1420;-0.2658;-1.4676;-0.0169;-0.0137;-0.0156
0000311670;-0.9481;-0.1221;-1.5251;-0.0199;-0.0035;-0.0127
0000311678;-1.1157;-0.1772;-1.4389;-0.0229;0.0009;-0.0163
0000311690;-1.1372;-0.0934;-1.5083;-0.0185;-0.0037;-0.0201
0000311698;-1.1708;-0.2059;-1.4676;-0.0222;-0.0008;-0.0115
0000311765;-1.0199;-0.1987;-1.5658;-0.0119;-0.0115;0.0067
0000311773;-1.0558;-0.3711;-1.4844;-0.0099;-0.0039;0.0020
0000311784;-1.0127;-0.0766;-1.5083;-0.0089;0.0037;-0.0019
0000311792;-1.1301;-0.1413;-1.5802;-0.0084;-0.0004;-0.0041
0000311804;-1.3336;-0.3041;-1.7406;-0.0083;-0.0113;-0.0107
0000311812;-1.2234;-0.2035;-1.6017;-0.0081;-0.0132;-0.0101
0000311823;-1.1372;-0.0383;-1.7142;-0.0073;-0.0256;-0.0143
0000311831;-1.4198;-0.0982;-1.5921;-0.0148;-0.0316;-0.0040
0000311839;-1.3336;-0.0958;-1.6712;-0.0145;-0.0453;-0.0072
0000311851;-1.1756;-0.0431;-1.6831;-0.0201;-0.0436;-0.0017
0000311859;-1.0080;-0.1197;-1.6999;-0.0192;-0.0476;-0.0111
0000311870;-0.9601;0.0551;-1.7717;-0.0252;-0.0410;-0.0111
0000311878;-0.9768;0.0383;-1.6999;-0.0268;-0.0384;-0.0081
0000311890;-1.0534;-0.0575;-1.6951;-0.0316;-0.0440;-0.0184
0000311898;-1.3527;-0.1844;-1.7142;-0.0328;-0.0544;-0.0268
0000311909;-1.1708;-0.1915;-1.6233;-0.0436;-0.0544;-0.0286
0000311917;-1.1181;-0.0886;-1.6712;-0.0365;-0.0550;-0.0329
0000311929;-1.1205;-0.1149;-1.7573;-0.0388;-0.0593;-0.0298
0000311937;-1.2546;-0.2538;-1.6640;-0.0408;-0.0597;-0.0217
0000311949;-1.1995;-0.3184;-1.5323;-0.0356;-0.0645;-0.0211
0000311957;-0.9673;-0.1460;-1.6472;-0.0366;-0.0570;-0.0163
0000312025;-1.2186;-0.6584;-1.2522;0.0075;-0.0690;0.0029
0000312033;-1.0223;-0.4262;-1.3503;0.0237;-0.0670;0.0013
0000312041;-1.0894;-0.4884;-1.2977;0.0242;-0.0601;0.0103
0000312052;-1.0247;-0.3807;-1.3623;0.0360;-0.0390;0.0177
0000312060;-1.1612;-0.4645;-1.2115;0.0400;-0.0417;0.0125
0000312072;-1.2186;-0.5195;-1.2665;0.0465;-0.0385;0.0216
0000312080;-1.2234;-0.3400;-1.1684;0.0481;-0.0390;0.0250
0000312091;-1.2019;-0.4788;-1.3024;0.0506;-0.0326;0.0332
0000312099;-1.1899;-0.4693;-1.2857;0.0584;-0.0265;0.0304
0000312111;-1.0918;-0.3208;-1.4581;0.0577;-0.0068;0.0354
0000312119;-1.1540;-0.3998;-1.4030;0.0686;-0.0088;0.0285
0000312130;-1.2330;-0.1532;-1.6065;0.0652;-0.0064;0.0300
0000312138;-1.1444;0.0215;-1.4988;0.0636;-0.0108;0.0233
0000312146;-1.2881;-0.2179;-1.5347;0.0707;-0.0237;0.0183
0000312158;-1.1277;-0.1915;-1.5203;0.0653;-0.0241;0.0191
0000312166;-1.1205;-0.1772;-1.5730;0.0566;-0.0172;0.0208
0000312177;-1.2306;-0.2849;-1.5897;0.0589;-0.0072;0.0176
0000312185;-1.1540;-0.1844;-1.7119;0.0490;-0.0004;0.0193
0000312197;-0.9433;0.1293;-1.7669;0.0346;-0.0011;0.0149
0000312205;-1.1229;0.0742;-1.7478;0.0326;-0.0044;0.0088
0000312217;-1.1229;0.1125;-1.8004;0.0132;-0.0132;0.0001
0000312225;-1.1013;0.0622;-1.8268;0.0008;-0.0056;-0.0057
0000312293;-1.5706;0.3543;-1.7885;-0.1116;-0.0205;-0.0773
0000312301;-1.5610;0.2466;-1.7454;-0.1220;-0.0584;-0.0750
0000312309;-1.3527;0.2490;-1.7861;-0.1248;-0.1047;-0.0707
0000312320;-1.0080;0.3280;-1.7454;-0.1358;-0.1246;-0.0338
0000312328;-0.9218;0.1820;-1.4964;-0.1414;-0.1224;-0.0164
0000312340;-0.6800;0.1101;-1.5012;-0.1435;-0.0874;0.0071
0000312348;-0.8787;0.0670;-1.5275;-0.1352;-0.0666;0.0059
0000312359;-0.8763;0.0431;-1.6376;-0.1224;-0.0544;0.0151
0000312367;-1.1660;-0.2466;-1.7095;-0.1011;-0.0794;0.0024
0000312379;-1.3623;-0.8045;-1.7837;-0.0685;-0.1172;-0.0027
0000312387;-1.2091;-0.9313;-1.7957;-0.0324;-0.1524;-0.0149
0000312398;-1.3384;-1.0798;-1.7526;0.0037;-0.1700;-0.0284
0000312406;-1.0989;-0.7781;-1.6113;0.0248;-0.1776;-0.0452
0000312414;-1.1636;-0.8356;-1.4844;0.0329;-0.1564;-0.0560
0000312426;-1.0271;-0.5028;-1.4509;0.0390;-0.1182;-0.0757
0000312434;-1.0678;-0.3376;-1.2785;0.0349;-0.0998;-0.0857
0000312445;-1.2043;-0.2849;-1.2689;0.0207;-0.0805;-0.0798
0000312453;-1.2905;-0.2203;-1.3360;0.0181;-0.0833;-0.0826
0000312465;-1.5562;-0.2921;-1.4509;0.0057;-0.0935;-0.0725
0000312473;-1.4772;-0.2346;-1.4174;0.0036;-0.1151;-0.0698
0000312485;-1.4293;-0.3424;-1.3312;0.0091;-0.1418;-0.0597
0000312493;-1.3695;-0.3160;-1.2833;0.0012;-0.1466;-0.0514
0000312561;-1.1061;-0.5411;-1.3838;0.0509;-0.0825;-0.0147
0000312569;-0.9577;-0.5411;-1.3216;0.0585;-0.0681;-0.0117
0000312580;-1.0247;-0.5219;-1.3886;0.0782;-0.0534;-0.0229
0000312588;-1.0463;-0.4741;-1.3312;0.0791;-0.0350;-0.0268
0000312596;-1.0439;-0.3208;-1.3767;0.0849;-0.0309;-0.0309
0000312608;-1.1325;-0.2442;-1.4341;0.0789;-0.0201;-0.0285
0000312616;-1.0511;-0.1484;-1.3671;0.0723;-0.0153;-0.0376
0000312627;-0.8715;0.0096;-1.4916;0.0578;0.0008;-0.0477
0000312635;-0.7973;0.1245;-1.4293;0.0420;0.0297;-0.0525
0000312647;-0.9529;0.0144;-1.4509;0.0221;0.0681;-0.0581
0000312655;-0.8619;0.0072;-1.3312;-0.0071;0.0990;-0.0644
0000312667;-0.9720;-0.0120;-1.5179;-0.0434;0.1502;-0.0577
0000312675;-0.9577;0.0335;-1.5969;-0.0838;0.1812;-0.0445
0000312686;-1.1779;0.0168;-1.6161;-0.1250;0.2121;-0.0297
0000312694;-1.2234;0.0718;-1.6305;-0.1543;0.2266;-0.0085
0000312702;-1.5562;-0.1245;-1.5060;-0.1692;0.2276;-0.0005
0000312714;-1.3288;-0.1269;-1.5323;-0.1943;0.2332;0.0191
0000312722;-1.2905;-0.1389;-1.6664;-0.2086;0.2402;0.0297
0000312733;-1.4030;-0.4501;-1.6807;-0.2172;0.2419;0.0187
0000312741;-1.1133;-0.1700;-1.8723;-0.2189;0.2313;0.0133
0000312753;-1.1684;-0.4549;-1.7741;-0.2136;0.2209;-0.0072
0000312761;-0.8260;-0.3663;-1.6831;-0.2180;0.2269;-0.0161
0000312829;-1.5131;-0.5195;-1.3958;-0.1069;0.2190;0.0205
0000312837;-1.3120;-0.3567;-1.4030;-0.1025;0.2102;0.0278
0000312849;-1.2186;-0.3184;-1.5610;-0.0894;0.1917;0.0230
0000312857;-1.1396;-0.3208;-1.6065;-0.0794;0.1796;0.0176
0000312865;-0.9122;-0.2634;-1.5083;-0.0739;0.1731;0.0159
0000312876;-0.7638;-0.0838;-1.4557;-0.0711;0.1980;0.0199
0000312884;-0.5698;-0.0527;-1.4174;-0.0702;0.2157;0.0141
0000312896;-0.7829;-0.0120;-1.5874;-0.0602;0.2398;0.0065
0000312904;-1.1779;-0.1844;-1.6065;-0.0532;0.2382;-0.0013
0000312915;-1.1444;-0.0694;-1.5850;-0.0445;0.2200;-0.0048
0000312923;-1.1684;-0.2705;-1.5251;-0.0406;0.2118;-0.0147
0000312935;-1.1516;-0.4286;-1.6185;-0.0241;0.2010;-0.0225
0000312943;-1.0774;-0.5483;-1.6161;-0.0071;0.1909;-0.0274
0000312954;-0.9242;-0.7542;-1.5802;0.0282;0.1937;-0.0308
0000312962;-0.7326;-0.7015;-1.6999;0.0485;0.2052;-0.0261
0000312974;-0.8260;-0.8236;-1.7310;0.1001;0.2192;-0.0357
0000312982;-0.7973;-0.8404;-1.6065;0.1362;0.2298;-0.0493
0000312990;-0.9912;-1.0918;-1.7621;0.1764;0.2302;-0.0621
0000313001;-1.0367;-1.1157;-1.7334;0.2232;0.2285;-0.0659
0000313009;-0.9864;-0.9697;-1.8172;0.2594;0.2224;-0.0790
0000313021;-0.9816;-0.8859;-1.9393;0.3082;0.2282;-0.0943
0000313029;-1.0511;-0.8715;-1.9944;0.3420;0.2329;-0.1007
0000313097;-1.3168;-1.3408;-2.4828;0.6470;0.1543;-0.1467
0000313105;-1.2713;-1.2498;-2.6576;0.6909;0.1448;-0.1603
0000313117;-1.1540;-1.0582;-2.6791;0.7464;0.1054;-0.1616
0000313125;-1.4413;-1.1061;-2.6001;0.7646;0.0895;-0.1567
0000313133;-1.3934;-1.0989;-2.5450;0.8047;0.0674;-0.1568
0000313145;-1.4629;-0.9577;-2.7916;0.8573;0.0354;-0.1616
0000313153;-1.5969;-0.9361;-2.8323;0.8763;0.0233;-0.1596
0000313165;-1.6113;-0.7877;-2.7533;0.8950;-0.0433;-0.1823
0000313173;-1.6903;-0.6608;-2.8850;0.8839;-0.0678;-0.1952
0000313184;-1.4748;-0.1724;-2.7773;0.8403;-0.0997;-0.2161
0000313192;-1.5012;0.2825;-2.7078;0.7755;-0.0971;-0.2256
0000313204;-1.3336;1.0798;-2.7821;0.6756;-0.0870;-0.2437
0000313212;-1.1732;1.4102;-2.6528;0.6030;-0.1073;-0.2495
0000313223;-1.2641;1.6544;-2.7414;0.4724;-0.1170;-0.2606
0000313231;-1.1660;1.7430;-2.6456;0.3725;-0.1128;-0.2775
0000313243;-1.2402;1.8004;-2.5043;0.2478;-0.1128;-0.3111
0000313251;-1.0175;1.8435;-2.5115;0.1900;-0.0909;-0.3421
0000313259;-1.0199;1.4533;-2.6863;0.1422;-0.0436;-0.3677
0000313270;-0.8523;0.9409;-2.7940;0.1031;0.0049;-0.4154
0000313278;-0.5842;0.5507;-2.6791;0.0913;0.0128;-0.4409
0000313290;-0.6081;-0.2873;-2.7892;0.1026;0.0338;-0.4684
0000313298;-0.4597;-0.8236;-2.9832;0.1268;0.0468;-0.4655
0000313365;-2.6001;-0.3184;-3.4596;0.2667;0.0493;-0.4947
0000313373;-2.8467;-0.5674;-3.2944;0.2663;0.0458;-0.5135
0000313385;-2.9257;-0.4525;-3.4740;0.2567;0.0452;-0.5717
0000313393;-2.7629;-0.5698;-3.7182;0.2320;0.0444;-0.6107
0000313401;-2.3320;-0.5243;-4.0103;0.2241;0.0522;-0.6594
0000313413;-2.2051;-0.7254;-4.1108;0.2074;0.0839;-0.6887
0000313421;-2.1763;-1.0319;-4.3144;0.1815;0.1294;-0.7434
0000313433;-2.1500;-1.1827;-4.6926;0.1677;0.2010;-0.8262
0000313441;-2.4517;-1.5275;-4.8530;0.1605;0.2545;-0.8641
0000313453;-2.7892;-2.1668;-5.2529;0.1458;0.3012;-0.9441
0000313461;-3.8140;-2.0614;-5.3702;0.1486;0.3561;-1.0485
0000313473;-4.6495;-1.9225;-5.5641;0.1343;0.3068;-1.2542
0000313481;-4.9057;-2.2410;-5.5210;0.1343;0.1451;-1.3988
0000313492;-4.3718;-2.8084;-5.4157;0.1347;-0.0230;-1.5773
0000313500;-3.4860;-3.1125;-5.1858;0.1479;-0.0617;-1.6764
0000313508;-2.4732;-3.5171;-5.4157;0.1616;-0.0593;-1.7503
0000313520;-1.3240;-4.0510;-5.3247;0.2302;0.0015;-1.8263
0000313528;-0.7590;-4.2593;-5.5593;0.2855;0.0794;-1.8453
0000313539;0.2729;-4.3359;-5.7341;0.3651;0.1584;-1.8041
0000313547;0.4645;-4.1635;-5.7988;0.4138;0.2358;-1.7613
0000313559;0.2179;-3.6440;-5.4995;0.4531;0.4486;-1.6515
0000313567;-0.3472;-3.1699;-5.4061;0.4543;0.5677;-1.5783
0000313635;-3.5075;-3.6655;-4.0486;0.3052;0.3828;-1.1157
0000313643;-3.3926;-3.6033;-3.7828;0.2769;0.3012;-1.1234
0000313655;-2.7366;-3.3926;-3.4979;0.2320;0.2244;-1.1024
0000313663;-2.4205;-3.5482;-3.3184;0.1992;0.2028;-1.0471
0000313671;-2.0566;-3.8403;-3.0933;0.1819;0.1965;-0.9790
0000313683;-1.5371;-4.0893;-3.2753;0.1604;0.1856;-0.8376
0000313691;-1.6831;-4.4772;-3.3782;0.1490;0.1800;-0.7316
0000313703;-1.7861;-4.8746;-3.2992;0.1303;0.1733;-0.5868
0000313711;-1.9321;-4.9057;-3.5147;0.1210;0.1648;-0.4836
0000313723;-2.1261;-4.7094;-3.6799;0.1210;0.1061;-0.3238
0000313731;-2.4229;-4.3167;-3.9552;0.1354;0.0506;-0.2114
0000313743;-2.5307;-3.7972;-3.7445;0.1711;-0.0493;-0.0430
0000313751;-2.8084;-3.8475;-3.7014;0.2256;-0.1254;0.0544
0000313762;-2.7533;-4.1037;-4.9105;0.3604;-0.2193;0.1868
0000313770;-2.6384;-4.8770;-5.7604;0.5195;-0.2843;0.2810
0000313778;-2.1332;-6.1220;-5.5809;0.6494;-0.3623;0.3190
0000313790;-0.4070;-7.2592;-5.5498;0.7818;-0.3163;0.3580
0000313798;0.1413;-7.7189;-5.4588;0.8493;-0.2246;0.3953
0000313809;0.6177;-7.1299;-4.7860;0.8589;-0.0180;0.4282
0000313817;0.4166;-5.7197;-4.4388;0.8087;0.1500;0.3809
0000313829;-1.3192;-2.1332;-3.9863;0.7294;0.2787;0.2868
0000313837;-3.3998;-0.9361;-3.8427;0.6700;0.2605;0.1653
0000313904;-1.8172;-7.2903;-4.9129;0.6789;-0.3561;-0.1108
0000313912;-1.8866;-5.9783;-4.7645;0.6510;-0.2710;-0.0718
0000313920;-2.1524;-4.5705;-4.4317;0.5958;-0.2392;-0.0494
0000313932;-2.8970;-2.9904;-4.3215;0.4675;-0.2491;-0.0493
0000313940;-3.0933;-2.3774;-4.2090;0.3672;-0.2746;-0.0617
0000313952;-3.3615;-2.5833;-4.0055;0.2554;-0.3437;-0.0588
0000313960;-3.6895;-3.4213;-4.1348;0.2088;-0.3576;-0.0360
0000313972;-4.1396;-4.6855;-4.3479;0.1933;-0.4040;-0.0012
0000313980;-4.5274;-5.6838;-4.4939;0.2112;-0.4379;0.0388
0000313992;-4.4915;-6.5098;-4.4700;0.2605;-0.5029;0.1279
0000314000;-4.2449;-6.5769;-4.5490;0.3014;-0.5549;0.2034
0000314012;-3.5745;-6.0501;-4.8722;0.3079;-0.6059;0.3092
0000314020;-2.9808;-5.4253;-4.7884;0.2950;-0.6322;0.3549
0000314032;-2.4038;-4.6902;-4.4197;0.2010;-0.6233;0.3765
0000314040;-2.2290;-4.4077;-4.1204;0.1140;-0.5797;0.3734
0000314048;-2.0135;-3.9097;-4.0893;0.0089;-0.5196;0.3293
0000314060;-2.2913;-4.0151;-4.0773;-0.1307;-0.4409;0.2268
0000314068;-2.2960;-4.2617;-4.1276;-0.2109;-0.4126;0.1523
0000314080;-2.6647;-4.9368;-4.0079;-0.2944;-0.3726;0.0377
0000314088;-2.8204;-5.4492;-4.1659;-0.3265;-0.3778;-0.0099
0000314155;-2.9281;-6.1483;-3.9289;-0.2053;-0.4493;0.1703
0000314163;-3.2226;-6.1603;-3.8044;-0.1993;-0.4611;0.1655
0000314175;-3.8978;-6.3901;-3.4596;-0.1732;-0.4800;0.1344
0000314183;-4.0534;-6.3231;-3.2801;-0.1677;-0.5197;0.1063
0000314195;-4.6160;-6.7014;-2.7916;-0.1104;-0.6139;0.0424
0000314203;-4.8267;-6.7995;-2.4708;-0.0718;-0.6664;0.0020
0000314211;-4.7453;-7.0581;-2.1979;-0.0346;-0.7265;-0.0502
0000314223;-4.5777;-7.2209;-1.8483;0.0330;-0.7506;-0.1323
0000314231;-4.3000;-7.1730;-1.9752;0.0586;-0.7469;-0.1844
0000314242;-4.6376;-7.0485;-1.8483;0.0957;-0.7521;-0.2458
0000314250;-4.8004;-7.2856;-1.8555;0.1054;-0.7650;-0.2843
0000314262;-5.3223;-7.1395;-2.1069;0.1199;-0.8183;-0.3176
0000314270;-5.5091;-6.8977;-2.1428;0.1160;-0.9050;-0.3234
0000314282;-5.4540;-6.3997;-2.1213;0.0993;-1.0516;-0.3356
0000314290;-4.9656;-5.7006;-2.3894;0.0722;-1.1318;-0.3680
0000314302;-3.5937;-4.4843;-2.5929;-0.0288;-1.1602;-0.4700
0000314310;-2.7007;-4.0725;-2.5426;-0.1007;-1.1528;-0.5480
0000314322;-1.3551;-2.9113;-4.0294;-0.2931;-0.9479;-0.6699
0000314330;-1.0080;-2.0016;-4.7884;-0.4728;-0.7361;-0.7197
0000314342;-0.4764;0.0742;-3.8642;-0.6046;-0.6262;-0.6359
0000314350;0.3567;0.4597;-2.0710;-0.6301;-0.6161;-0.5279
0000314358;1.0104;-0.1173;-0.8236;-0.6015;-0.5520;-0.4138
0000314425;-4.2760;-5.4348;-2.4086;-0.1496;-1.1099;-0.1747
0000314433;-2.6576;-3.5386;-1.8723;-0.2501;-1.0268;-0.2128
0000314445;-1.0104;-1.9201;-1.3264;-0.4158;-0.8597;-0.1977
0000314453;-0.7877;-1.9632;-1.5299;-0.5192;-0.7436;-0.1426
0000314465;-1.3695;-3.4740;-1.4509;-0.6154;-0.6049;-0.0566
0000314473;-2.5786;-4.8171;-1.4246;-0.6233;-0.5436;-0.0261
0000314485;-5.1284;-6.7109;-1.2857;-0.5474;-0.5396;-0.0474
0000314493;-6.7828;-7.4412;-1.1923;-0.4498;-0.6282;-0.0786
0000314505;-7.8578;-7.5824;-1.1181;-0.2858;-0.8095;-0.1077
0000314513;-7.7883;-7.2065;-1.0415;-0.1916;-0.9232;-0.1110
0000314525;-6.0454;-5.9999;-0.9505;-0.0985;-1.0289;-0.1390
0000314533;-5.2696;-5.4684;-0.7781;-0.0636;-1.0198;-0.1474
0000314545;-4.7262;-4.9105;-0.6129;-0.0568;-0.9816;-0.1334
0000314553;-4.6902;-4.6064;-0.2394;-0.0671;-0.9681;-0.1415
0000314561;-5.1068;-4.3167;-0.0479;-0.0889;-0.9348;-0.1559
0000314573;-6.2082;-4.3167;0.0575;-0.1350;-0.9529;-0.1828
0000314581;-6.6846;-4.3694;0.1724;-0.1645;-0.9971;-0.2058
0000314593;-7.2401;-4.5155;0.5818;-0.1808;-1.0861;-0.2617
0000314601;-7.1228;-4.4963;0.5914;-0.1811;-1.1451;-0.2843
0000314613;-7.1467;-4.6639;0.9625;-0.1796;-1.2157;-0.2888
0000314621;-7.1323;-4.5107;1.3288;-0.1813;-1.2642;-0.2777
0000314689;-8.1834;-4.4436;2.5379;-0.4267;-1.8409;-0.0826
0000314697;-7.9799;-4.3694;2.7007;-0.4626;-1.8708;-0.0746
0000314709;-7.7931;-4.7716;2.6911;-0.5167;-1.8916;-0.0877
0000314717;-7.6614;-4.9057;2.7845;-0.5399;-1.8842;-0.0895
0000314729;-7.2592;-5.2744;2.6935;-0.5708;-1.8951;-0.0954
0000314737;-7.1108;-5.5737;2.5570;-0.5786;-1.9191;-0.0966
0000314745;-6.6080;-5.8993;2.6288;-0.5729;-1.9720;-0.1116
0000314757;-5.6431;-6.3542;2.5091;-0.5661;-1.9894;-0.1640
0000314765;-5.1667;-6.7732;2.6312;-0.5397;-1.9534;-0.1940
0000314777;-4.4436;-6.8594;2.4780;-0.4988;-1.9263;-0.2302
0000314785;-4.0079;-6.5673;2.5139;-0.4918;-1.9167;-0.2397
0000314797;-3.6799;-6.6176;2.6432;-0.4760;-1.8810;-0.2698
0000314805;-3.4261;-6.5745;2.5211;-0.4523;-1.8688;-0.3144
0000314817;-3.3662;-6.7373;2.4301;-0.4106;-1.8097;-0.3984
0000314825;-3.1627;-6.8594;2.4900;-0.3814;-1.7842;-0.4349
0000314837;-2.5402;-6.9480;2.6264;-0.3317;-1.7256;-0.4579
0000314845;-2.3296;-6.8761;2.4972;-0.3004;-1.6635;-0.4627
0000314857;-1.5754;-6.8594;2.3056;-0.2697;-1.5679;-0.4584
0000314865;-1.3503;-6.9216;2.2889;-0.2555;-1.4917;-0.4509
0000314873;-1.1396;-6.8402;2.4588;-0.2362;-1.4294;-0.4517
0000314885;-1.0582;-6.5960;2.8060;-0.2249;-1.3058;-0.4463
0000314893;-1.1803;-6.3590;2.8443;-0.2169;-1.2414;-0.4413
0000314960;-0.4357;-6.8977;3.6009;-0.1446;-0.8260;-0.2924
0000314968;-0.3950;-6.9599;3.6224;-0.1338;-0.7661;-0.2643
0000314980;-0.2203;-6.9647;3.8475;-0.1307;-0.6831;-0.2369
0000314989;-0.2322;-7.2233;4.0199;-0.1155;-0.6458;-0.2105
0000315002;-0.2227;-7.2568;3.8355;-0.0934;-0.5798;-0.1600
0000315011;-0.5100;-7.3310;3.9409;-0.0811;-0.5421;-0.1152
0000315024;-0.8236;-7.2472;4.0342;-0.0504;-0.5148;-0.0774
0000315033;-1.1923;-7.3502;4.1156;-0.0313;-0.4955;-0.0699
0000315046;-1.3240;-7.3550;4.2617;-0.0144;-0.4688;-0.0822
0000315055;-1.1684;-7.3119;4.5394;-0.0036;-0.4510;-0.1017
0000315064;-0.8643;-7.5585;4.6088;0.0161;-0.4225;-0.1223
0000315077;-0.6512;-7.6375;4.6663;0.0394;-0.3684;-0.1323
0000315086;-0.6321;-7.8913;4.7692;0.0709;-0.3512;-0.1416
0000315099;-0.9864;-8.0397;4.7094;0.1112;-0.2687;-0.1331
0000315108;-0.7230;-7.6638;5.0159;0.1224;-0.2586;-0.1439
0000315121;-1.3216;-7.6567;5.1619;0.1502;-0.2314;-0.1307
0000315130;-1.3216;-7.4268;5.1116;0.1687;-0.2220;-0.1307
0000315143;-1.8842;-7.6782;5.2792;0.1716;-0.2403;-0.1468
0000315152;-1.5012;-7.3526;5.1978;0.1788;-0.2403;-0.1668
0000315165;-1.8340;-7.6734;5.3271;0.2081;-0.2157;-0.1645
0000315174;-1.5969;-7.7093;5.1930;0.2277;-0.2280;-0.1515
0000315183;-1.5754;-7.7428;5.2098;0.2550;-0.2463;-0.1343
0000315251;-0.9768;-6.8378;4.9321;0.3246;-0.1629;-0.2439
0000315260;-0.7207;-6.8402;4.9560;0.3328;-0.1303;-0.2722
0000315273;-0.7757;-7.3143;4.9560;0.3376;-0.0938;-0.2828
0000315282;-0.7135;-7.4124;5.0159;0.3401;-0.0802;-0.2753
0000315295;-0.5794;-7.0653;4.7645;0.3884;-0.0412;-0.2164
0000315304;-0.5602;-6.9025;4.6735;0.4237;-0.0064;-0.1841
0000315317;-0.7901;-6.8522;4.7788;0.4257;0.0201;-0.1784
0000315326;-0.7590;-6.7876;4.9440;0.4271;0.0338;-0.1853
0000315335;-0.7542;-6.6319;4.8818;0.4273;0.0373;-0.1976
0000315348;-0.8068;-6.4715;4.9704;0.4116;0.0640;-0.2160
0000315357;-0.7183;-6.4404;4.7166;0.4155;0.0871;-0.2386
0000315370;-0.7997;-6.5074;4.8770;0.3794;0.0670;-0.2771
0000315379;-0.7518;-6.4811;4.9225;0.3597;0.0702;-0.3035
0000315395;-1.1157;-6.8211;4.9512;0.3613;0.1180;-0.3106
0000315404;-1.1995;-6.8785;4.9632;0.3776;0.1278;-0.3155
0000315417;-0.8116;-6.7038;4.8674;0.3946;0.1235;-0.3082
0000315426;-0.7829;-6.6679;4.8507;0.3968;0.1119;-0.3082
0000315435;-0.8691;-6.6774;4.9009;0.3984;0.1386;-0.3122
0000315447;-0.9912;-6.6391;4.9033;0.3794;0.1448;-0.3180
0000315456;-0.9912;-6.6272;4.9823;0.3756;0.1316;-0.3146
0000315525;-1.0606;-6.5481;5.1212;0.2451;0.1239;-0.2622
0000315534;-1.0558;-6.5362;5.1715;0.2161;0.1255;-0.2675
0000315546;-1.3264;-6.6104;5.1595;0.1928;0.1116;-0.2746
0000315555;-1.1205;-6.5745;5.3463;0.1879;0.1095;-0.2677
0000315568;-1.4820;-6.6607;5.2744;0.1776;0.1043;-0.2241
0000315577;-1.4389;-6.6702;5.3606;0.1612;0.0857;-0.2098
0000315589;-1.5443;-6.7947;5.5234;0.1531;0.0895;-0.1998
0000315598;-1.3910;-6.6918;5.4109;0.1414;0.0642;-0.1928
0000315607;-1.4174;-6.6056;5.3726;0.1423;0.0553;-0.2024
0000315620;-1.3312;-6.6798;5.3606;0.1131;0.0384;-0.2148
0000315629;-1.3192;-6.8211;5.2098;0.0893;0.0420;-0.2238
0000315641;-0.9744;-6.7804;5.2457;0.0762;0.0762;-0.2300
0000315650;-1.0151;-6.7469;5.2170;0.0702;0.0878;-0.2353
0000315663;-0.9792;-6.7900;5.2194;0.0541;0.0743;-0.2214
0000315672;-1.2881;-6.7636;5.2625;0.0502;0.1158;-0.1978
0000315684;-1.2737;-6.9264;5.1715;0.0589;0.1166;-0.1502
0000315693;-1.3623;-6.8594;5.0302;0.0731;0.0803;-0.1278
0000315702;-1.3240;-6.7804;5.2146;0.0819;0.0707;-0.1135
0000315715;-1.5275;-7.1611;5.3032;0.1311;0.0977;-0.1003
0000315724;-1.4653;-7.1898;4.8842;0.1391;0.0939;-0.1086
0000315736;-1.5945;-7.2257;4.9488;0.1427;0.0793;-0.1227
0000315745;-1.3288;-7.2544;4.9656;0.1360;0.0946;-0.1175
0000315815;-1.8364;-6.9504;5.1691;0.1817;0.1480;-0.0246
0000315824;-1.7047;-6.9336;4.9488;0.1700;0.1407;-0.0402
0000315836;-1.7526;-7.1299;5.3056;0.1692;0.1471;-0.0448
0000315845;-1.6041;-6.9264;5.1787;0.1723;0.1294;-0.0472
0000315854;-1.6592;-7.0509;5.1092;0.1873;0.1446;-0.0357
0000315867;-1.7047;-6.7995;4.9895;0.1799;0.1062;-0.0337
0000315876;-1.7023;-6.7708;4.9847;0.1880;0.0989;-0.0288
0000315888;-1.8603;-6.8307;5.1715;0.1889;0.1033;-0.0103
0000315897;-1.7621;-6.7325;5.0302;0.1807;0.0954;-0.0004
0000315910;-1.6640;-6.5242;4.8195;0.1823;0.0815;-0.0013
0000315919;-1.6281;-6.6463;5.0326;0.1739;0.0771;0.0084
0000315931;-1.7095;-6.6128;4.9368;0.1653;0.0665;0.0053
0000315940;-1.9106;-6.7445;5.0326;0.1491;0.0654;0.0151
0000315949;-2.0758;-6.7900;5.0039;0.1471;0.0798;0.0281
0000315962;-2.1093;-6.6822;4.8100;0.1342;0.0743;0.0601
0000315971;-2.2936;-6.5003;4.6040;0.1339;0.0666;0.0815
0000315983;-2.2362;-6.3734;4.6950;0.1398;0.0361;0.1130
0000315992;-2.2362;-6.3446;4.7166;0.1340;-0.0131;0.1302
0000316005;-2.3320;-6.3710;4.9823;0.1266;0.0024;0.1391
0000316014;-2.2003;-6.2632;5.1739;0.1192;0.0384;0.1348
0000316023;-1.8483;-6.3087;5.1188;0.1031;0.0703;0.1208
0000316035;-1.4413;-6.3518;4.9392;0.0733;0.0843;0.0898
0000316044;-1.0965;-6.2489;4.7477;0.0624;0.1167;0.0899
0000316113;-1.3934;-6.5122;4.9129;0.1170;0.2681;0.1246
0000316122;-1.5802;-6.6128;4.8339;0.1107;0.2254;0.1071
0000316134;-1.1325;-6.5553;4.8650;0.1010;0.2066;0.0951
0000316143;-1.4102;-6.6559;4.8985;0.1013;0.2340;0.0929
0000316156;-1.6352;-6.6415;5.0015;0.1045;0.2593;0.1122
0000316165;-1.8435;-6.5721;5.2098;0.1184;0.2537;0.1162
0000316174;-1.7621;-6.5697;5.1978;0.1142;0.2386;0.1360
0000316186;-1.8459;-6.5577;5.2409;0.1200;0.2016;0.1576
0000316195;-1.8866;-6.5936;5.1595;0.1178;0.1829;0.1593
0000316208;-1.7430;-6.2632;5.0781;0.1391;0.1869;0.1619
0000316217;-1.9489;-6.2273;5.0973;0.1498;0.2033;0.1514
0000316229;-2.1979;-6.2130;4.9632;0.1565;0.1699;0.1240
0000316238;-2.3200;-6.5553;4.6352;0.1667;0.1231;0.1066
0000316247;-2.2697;-6.3853;4.7333;0.1755;0.1095;0.1065
0000316260;-2.5929;-6.6463;4.8842;0.2032;0.0942;0.1320
0000316269;-2.4541;-6.5673;4.7453;0.2198;0.0806;0.1547
0000316281;-2.0997;-6.4260;4.7764;0.2253;0.0818;0.1540
0000316290;-2.0758;-6.3782;4.6950;0.2257;0.1099;0.1604
0000316303;-2.1739;-6.2058;4.7597;0.2097;0.1484;0.1494
0000316312;-2.0782;-6.1699;4.7597;0.1877;0.1474;0.1350
0000316324;-1.7597;-5.8945;4.7669;0.1502;0.1327;0.1096
0000316333;-1.8004;-5.7868;4.9321;0.1142;0.1564;0.0999
0000316342;-1.6305;-5.7604;4.8387;0.0922;0.1647;0.0877
0000316410;-2.0686;-5.7748;4.6878;-0.1264;0.0663;0.2968
0000316419;-1.6999;-5.5809;4.7597;-0.1512;0.0669;0.3104
0000316431;-1.9130;-5.6767;4.5011;-0.1831;0.1005;0.3199
0000316440;-1.8986;-6.0047;4.5945;-0.1988;0.1001;0.3243
0000316453;-1.8507;-6.1148;4.3215;-0.2044;0.0433;0.3154
0000316462;-1.9369;-6.4620;4.4029;-0.2050;0.0644;0.3198
0000316474;-1.8244;-6.9456;4.3551;-0.1803;0.0978;0.3301
0000316483;-1.7717;-7.0509;4.2306;-0.1556;0.0819;0.3349
0000316492;-1.7047;-7.1228;4.2090;-0.1256;0.1006;0.3412
0000316505;-1.2833;-7.1635;4.3120;-0.0965;0.0882;0.3405
0000316514;-1.4437;-6.8426;4.1875;-0.0717;0.1793;0.3504
0000316526;-1.8747;-6.6224;4.3790;-0.0564;0.2627;0.3459
0000316535;-2.3224;-6.3614;4.5514;-0.0390;0.2637;0.3381
0000316548;-2.7509;-6.1076;4.6495;-0.0369;0.2401;0.3148
0000316557;-2.7366;-5.9424;4.8267;-0.0392;0.2681;0.3048
0000316569;-2.6791;-6.0454;4.8411;-0.0508;0.3051;0.3046
0000316578;-2.1907;-5.9113;4.4939;-0.0782;0.2346;0.2882
0000316587;-2.2817;-5.9209;4.3814;-0.0995;0.2249;0.2851
0000316600;-2.5067;-5.5665;4.5107;-0.1384;0.3239;0.3148
0000316609;-2.7725;-5.4133;4.6040;-0.1644;0.3120;0.3399
0000316621;-2.8706;-5.4037;4.7692;-0.2009;0.2244;0.3497
0000316630;-2.4780;-5.3726;4.8674;-0.2209;0.1502;0.3240
0000316699;-2.8802;-4.6759;5.0685;-0.5419;0.2455;0.2461
0000316708;-3.2130;-4.7860;4.9895;-0.5993;0.2477;0.2097
0000316720;-3.3998;-5.1356;4.9368;-0.6761;0.2301;0.1689
0000316729;-3.3136;-5.4372;4.7669;-0.7185;0.2028;0.1464
0000316738;-2.7390;-5.8012;4.6878;-0.7456;0.1864;0.1399
0000316751;-1.7621;-6.4883;4.3167;-0.7525;0.1763;0.1605
0000316760;-1.3479;-6.6870;4.2737;-0.7409;0.2041;0.1504
0000316772;-1.9848;-7.0150;4.2042;-0.7212;0.2836;0.1396
0000316781;-2.1668;-6.7109;4.2880;-0.7163;0.2819;0.1230
0000316794;-2.7677;-6.2776;4.1180;-0.7075;0.2002;0.1111
0000316803;-3.2010;-6.1531;4.1300;-0.7063;0.1567;0.0994
0000316815;-3.3519;-5.6407;4.3455;-0.7119;0.0837;0.0881
0000316824;-3.3136;-5.1691;4.3239;-0.7298;0.0409;0.1026
0000316833;-3.2370;-5.0733;4.3000;-0.7504;-0.0011;0.1003
0000316846;-2.8587;-4.9009;4.2353;-0.8331;-0.0236;0.0879
0000316855;-2.6815;-4.7692;4.1731;-0.8934;-0.0441;0.0835
0000316866;-2.7629;-4.9943;4.1587;-0.9466;-0.1086;0.0590
0000316875;-2.6456;-5.2577;4.0582;-0.9983;-0.1462;0.0518
0000316889;-2.6911;-5.7269;4.1228;-1.0517;-0.2072;0.0485
0000316898;-2.4205;-6.1890;3.9983;-1.0461;-0.2402;0.0554
0000316967;-2.0686;-6.5745;4.2784;-0.8759;-0.1459;-0.0717
0000316976;-2.0877;-6.5601;4.2832;-0.8355;-0.1295;-0.0849
0000316988;-1.9082;-6.3231;4.3215;-0.8006;-0.0983;-0.1322
0000316997;-1.9130;-6.2417;4.1492;-0.7817;-0.0747;-0.1871
0000317006;-1.6688;-6.1220;3.9648;-0.7665;-0.0261;-0.2292
0000317019;-1.5490;-6.0956;3.8427;-0.7296;0.0384;-0.2906
0000317028;-1.5347;-6.1770;3.5338;-0.7155;0.0750;-0.3308
0000317040;-1.9513;-6.1770;3.3591;-0.6845;0.0943;-0.3852
0000317049;-2.5546;-6.2656;3.3830;-0.6652;0.0625;-0.4490
0000317062;-3.2681;-6.3614;3.4141;-0.6210;-0.0032;-0.5057
0000317071;-3.7278;-6.6918;3.4572;-0.5725;-0.0432;-0.5120
0000317083;-4.2114;-6.9719;3.5195;-0.4747;-0.0774;-0.4716
0000317092;-4.0701;-6.7157;3.5003;-0.4042;-0.0805;-0.4124
0000317105;-4.1539;-6.6248;3.4093;-0.3083;-0.0683;-0.2911
0000317114;-4.2186;-6.5577;3.5195;-0.2526;-0.0719;-0.2017
0000317123;-4.1875;-6.2944;3.4884;-0.2169;-0.0898;-0.1136
0000317135;-4.4173;-6.3039;3.7996;-0.1916;-0.1331;0.0069
0000317144;-4.0845;-6.0789;3.9361;-0.1761;-0.1705;0.0842
0000317157;-3.5889;-5.9975;3.9983;-0.1591;-0.2236;0.1648
0000317166;-3.3279;-6.1148;4.0079;-0.1537;-0.2352;0.2049
0000317178;-2.6815;-6.1746;4.0342;-0.1427;-0.2268;0.2342
0000317187;-2.4421;-6.2273;3.9552;-0.1322;-0.1944;0.2449
0000317256;-2.1021;-6.5314;3.8259;-0.1943;0.0598;0.1017
0000317265;-2.5091;-6.7493;3.8666;-0.1993;0.0897;0.0927
0000317277;-2.4517;-6.3231;3.8762;-0.2141;0.1087;0.0654
0000317286;-2.6887;-6.4763;3.8427;-0.2176;0.1167;0.0513
0000317295;-2.6791;-6.1962;3.8331;-0.2421;0.1255;0.0358
0000317308;-2.4756;-6.0501;3.7900;-0.2918;0.1138;0.0109
0000317317;-2.5738;-6.2560;3.6631;-0.3267;0.0990;-0.0268
0000317329;-2.5857;-6.4907;3.6607;-0.3545;0.0917;-0.0685
0000317338;-2.6887;-6.7038;3.6919;-0.3732;0.0822;-0.0985
0000317351;-2.8252;-6.9671;3.7254;-0.3805;0.0580;-0.1399
0000317360;-2.7725;-7.1084;3.6416;-0.3738;0.0440;-0.1585
0000317372;-3.1268;-7.4029;3.5865;-0.3632;0.0360;-0.1619
0000317381;-3.1939;-7.3933;3.7134;-0.3471;0.0225;-0.1490
0000317394;-3.4764;-7.3885;3.7757;-0.3226;0.0040;-0.1286
0000317403;-3.2657;-6.9384;3.7685;-0.3022;-0.0197;-0.1005
0000317412;-3.5267;-6.7516;3.7709;-0.2942;-0.0390;-0.0669
0000317424;-3.7589;-6.6702;3.8858;-0.2916;-0.0847;-0.0322
0000317433;-3.6679;-6.6367;4.0223;-0.2891;-0.1315;-0.0207
0000317446;-3.2202;-6.4141;4.0414;-0.2918;-0.1761;0.0141
0000317455;-3.2226;-6.6966;4.0606;-0.2959;-0.1901;0.0346
0000317467;-2.8683;-6.8211;4.1276;-0.2954;-0.1981;0.0574
0000317476;-2.5738;-6.8067;4.2066;-0.2931;-0.1899;0.0773
0000317545;-2.1668;-7.5729;4.8937;-0.0586;-0.1948;0.1752
0000317554;-2.2075;-7.4603;4.7716;-0.0276;-0.1849;0.1583
0000317566;-2.0566;-7.2305;4.6232;0.0109;-0.1597;0.1075
0000317575;-2.1117;-7.2281;4.6088;0.0449;-0.1568;0.0612
0000317584;-2.2075;-7.2927;4.4460;0.0544;-0.1657;0.0445
0000317597;-1.7645;-7.2425;4.4149;0.0662;-0.1492;0.0229
0000317606;-1.8387;-7.2377;4.3958;0.0633;-0.1140;0.0193
0000317618;-1.3096;-6.6679;4.5562;0.0428;-0.0289;0.0083
0000317627;-1.5682;-6.4907;4.1803;0.0448;0.0414;-0.0216
0000317640;-1.9752;-6.4117;3.7781;0.0033;0.0629;-0.0361
0000317649;-2.1668;-6.4380;3.7110;-0.0313;0.0454;-0.0338
0000317661;-2.4876;-6.6032;3.7589;-0.0675;0.0076;-0.0357
0000317670;-2.6863;-6.6774;3.7828;-0.0986;-0.0124;-0.0268
0000317679;-2.7605;-6.8450;3.8116;-0.1130;-0.0107;-0.0221
0000317692;-2.9592;-6.9599;3.7828;-0.1246;-0.0104;-0.0266
0000317701;-2.9880;-7.1371;3.7804;-0.1166;-0.0188;-0.0372
0000317713;-3.1508;-7.3622;3.7182;-0.1074;-0.0482;-0.0400
0000317722;-2.9209;-7.5896;3.7565;-0.0738;-0.0721;-0.0456
0000317735;-2.7749;-7.7093;3.7804;-0.0302;-0.0773;-0.0406
0000317744;-2.8802;-7.7716;3.8259;0.0097;-0.0761;-0.0396
0000317756;-2.8108;-7.6926;4.0486;0.0588;-0.0751;-0.0462
0000317765;-2.9880;-7.7812;4.0486;0.0910;-0.0678;-0.0456
0000317834;-2.4828;-7.1180;4.2162;0.2403;-0.0513;-0.0871
0000317843;-2.3607;-6.9049;4.3598;0.2393;-0.0372;-0.0911
0000317852;-2.4828;-6.9097;4.2497;0.2477;-0.0388;-0.1013
0000317864;-2.6097;-6.9145;4.4125;0.2393;-0.0330;-0.1021
0000317873;-2.5642;-6.7732;4.3167;0.2382;-0.0402;-0.1118
0000317886;-2.4445;-6.5362;4.3670;0.2204;-0.0388;-0.1186
0000317895;-2.4588;-6.6607;4.4532;0.2050;-0.0437;-0.1223
0000317907;-2.3607;-6.5984;4.3646;0.1784;-0.0409;-0.1256
0000317916;-2.2122;-6.4763;4.5155;0.1640;-0.0338;-0.1262
0000317929;-2.1715;-6.3303;4.3862;0.1412;-0.0353;-0.1295
0000317938;-2.4181;-6.7708;4.3934;0.1188;-0.0262;-0.1231
0000317950;-2.3774;-6.6080;4.4987;0.1021;-0.0293;-0.1220
0000317959;-2.4421;-6.6631;4.4029;0.0859;-0.0246;-0.1199
0000317968;-2.5211;-6.7445;4.5107;0.0729;-0.0345;-0.1155
0000317981;-2.4732;-6.6583;4.4843;0.0578;-0.0381;-0.1087
0000317990;-2.5546;-6.7684;4.4293;0.0477;-0.0417;-0.1035
0000318002;-2.5905;-6.9647;4.3981;0.0338;-0.0385;-0.0994
0000318011;-2.6528;-7.0126;4.3862;0.0153;-0.0310;-0.0887
0000318024;-2.5809;-6.9480;4.3574;0.0073;-0.0461;-0.0709
0000318033;-2.6983;-7.0581;4.4077;0.0108;-0.0508;-0.0711
0000318045;-2.5450;-7.0174;4.3359;-0.0011;-0.0584;-0.0636
0000318054;-2.5019;-6.9552;4.2713;-0.0084;-0.0586;-0.0544
0000318123;-2.4086;-6.4691;4.6112;-0.1226;-0.0602;-0.0041
0000318132;-2.3320;-7.3191;4.3503;-0.1651;-0.0180;0.0087
0000318141;-2.0279;-6.5841;4.0486;-0.1764;-0.0262;0.0127
0000318153;-2.2793;-6.2824;4.1228;-0.1982;-0.0420;0.0044
0000318162;-2.3200;-6.0885;4.2737;-0.2293;-0.0534;-0.0201
0000318175;-2.3104;-6.5505;4.3622;-0.2863;-0.0229;-0.0237
0000318184;-2.5043;-6.8283;4.2066;-0.3106;-0.0025;-0.0108
0000318196;-2.5474;-6.9408;4.2329;-0.3214;-0.0105;0.0039
0000318205;-2.5642;-7.1299;4.2162;-0.3171;-0.0264;0.0117
0000318218;-2.5259;-7.3095;4.1851;-0.3023;-0.0504;0.0183
0000318227;-2.6815;-7.4603;4.2234;-0.2884;-0.0622;0.0305
0000318239;-2.6408;-7.5753;4.2856;-0.2637;-0.0803;0.0365
0000318248;-2.6169;-7.6519;4.1683;-0.2545;-0.0869;0.0370
0000318257;-2.6217;-7.5250;4.3670;-0.2399;-0.0938;0.0350
0000318270;-2.5642;-7.2736;4.3790;-0.2224;-0.1058;0.0296
0000318279;-2.6911;-7.2089;4.3598;-0.2094;-0.1278;0.0172
0000318291;-2.5666;-7.0677;4.4796;-0.1978;-0.1474;0.0092
0000318300;-2.7102;-7.3119;4.4197;-0.1932;-0.1655;-0.0120
0000318314;-2.3343;-7.3598;4.3503;-0.1671;-0.1699;-0.0296
0000318323;-2.1332;-7.3478;4.4077;-0.1617;-0.1508;-0.0378
0000318336;-2.1500;-7.5753;4.3048;-0.1332;-0.1186;-0.0544
0000318345;-2.1644;-7.5178;4.2808;-0.1240;-0.0902;-0.0514
0000318415;-2.3703;-7.6806;4.4963;0.0261;-0.1029;-0.1146
0000318424;-2.2386;-7.4244;4.5442;0.0425;-0.0954;-0.1160
0000318437;-2.2936;-7.3837;4.4652;0.0620;-0.0851;-0.1156
0000318446;-2.3559;-7.4771;4.6040;0.0771;-0.0822;-0.1138
0000318455;-2.4756;-7.2927;4.6639;0.0882;-0.0771;-0.1055
0000318467;-2.5714;-7.4771;4.6902;0.1112;-0.0850;-0.1066
0000318476;-2.4828;-7.5465;4.5681;0.1370;-0.1038;-0.1220
0000318489;-2.5570;-7.6136;4.6160;0.1584;-0.1046;-0.1307
0000318498;-2.3487;-7.5561;4.5945;0.1665;-0.0978;-0.1234
0000318510;-2.2242;-7.4891;4.5466;0.1779;-0.0898;-0.1263
0000318519;-2.1524;-7.4077;4.5107;0.1675;-0.0681;-0.1134
0000318532;-1.8866;-7.0222;4.5203;0.1600;-0.0485;-0.1031
0000318541;-2.0470;-7.1347;4.5490;0.1420;-0.0357;-0.0846
0000318550;-2.1907;-7.1635;4.3910;0.1346;-0.0301;-0.0751
0000318562;-2.2170;-7.0773;4.3886;0.1127;-0.0187;-0.0634
0000318571;-2.2290;-7.0246;4.5179;0.1014;-0.0184;-0.0588
0000318584;-2.2362;-7.0844;4.4508;0.0730;-0.0104;-0.0382
0000318593;-2.1332;-6.9959;4.5083;0.0580;-0.0063;-0.0264
0000318605;-2.5379;-7.2449;4.4532;0.0185;0.0128;-0.0127
0000318614;-2.1907;-6.8402;4.6807;-0.0215;0.0217;0.0103
0000318627;-2.4780;-7.2808;4.3958;-0.0344;0.0226;0.0265
0000318636;-2.3655;-7.2640;4.4652;-0.0473;0.0076;0.0270
0000318706;-2.5163;-7.1850;4.2641;-0.1090;0.0061;0.0125
0000318715;-2.6528;-7.4651;4.2832;-0.0970;-0.0060;0.0032
0000318724;-2.5402;-7.4268;4.3646;-0.0995;-0.0048;0.0063
0000318737;-2.3870;-7.4508;4.3215;-0.0915;-0.0095;0.0001
0000318746;-2.4253;-7.4771;4.3551;-0.0741;-0.0207;-0.0136
0000318758;-2.4588;-7.5441;4.3862;-0.0644;-0.0032;-0.0099
0000318767;-2.6193;-7.4699;4.2832;-0.0584;0.0088;-0.0096
0000318780;-2.8850;-7.6471;4.2832;-0.0320;-0.0128;-0.0161
0000318789;-2.7725;-7.5561;4.2713;-0.0232;-0.0280;-0.0225
0000318801;-2.7509;-7.5154;4.3000;-0.0027;-0.0421;-0.0305
0000318810;-2.5857;-7.4675;4.2832;0.0189;-0.0560;-0.0390
0000318823;-2.6001;-7.4699;4.2234;0.0422;-0.0646;-0.0334
0000318832;-2.5115;-7.2161;4.1803;0.0548;-0.0693;-0.0354
0000318841;-2.6719;-7.4005;4.3646;0.0765;-0.0938;-0.0410
0000318853;-2.8706;-7.4484;4.4365;0.1088;-0.1152;-0.0481
0000318862;-2.7605;-7.5130;4.4772;0.1310;-0.1267;-0.0596
0000318875;-2.7294;-7.5800;4.4867;0.1537;-0.1375;-0.0734
0000318884;-2.6336;-7.6782;4.4532;0.1796;-0.1411;-0.0814
0000318896;-2.3152;-7.3837;4.4484;0.1908;-0.1371;-0.0807
0000318905;-2.2745;-7.3310;4.3239;0.1960;-0.1266;-0.0814
0000318918;-2.3104;-7.0677;4.3239;0.1860;-0.1214;-0.0751
0000318927;-2.1572;-6.8331;4.4005;0.1779;-0.1116;-0.0787
0000318997;-2.3774;-7.2712;4.4963;0.0473;-0.0397;-0.0502
0000319006;-2.3727;-7.3502;4.3742;0.0477;-0.0449;-0.0644
0000319015;-2.1787;-7.3478;4.2952;0.0430;-0.0341;-0.0577
0000319028;-2.3655;-7.2784;4.3335;0.0422;-0.0364;-0.0614
0000319037;-2.3272;-7.2209;4.4077;0.0410;-0.0364;-0.0725
0000319049;-2.5283;-7.0988;4.3144;0.0370;-0.0414;-0.0779
0000319058;-2.4876;-6.9552;4.4053;0.0308;-0.0546;-0.0793
0000319071;-2.5929;-7.1275;4.4724;0.0209;-0.0787;-0.0765
0000319080;-2.6839;-7.0701;4.5059;0.0137;-0.0910;-0.0743
0000319092;-2.5163;-7.1084;4.5825;-0.0115;-0.1030;-0.0605
0000319101;-2.3104;-7.0916;4.5586;-0.0392;-0.0902;-0.0353
0000319114;-2.1428;-7.0413;4.5274;-0.0769;-0.0758;-0.0100
0000319123;-2.0183;-6.8929;4.6136;-0.0995;-0.0697;0.0052
0000319132;-1.9872;-6.8570;4.6424;-0.1266;-0.0574;0.0184
0000319144;-2.1644;-7.1204;4.5490;-0.1588;-0.0381;0.0556
0000319153;-2.0901;-7.1730;4.6208;-0.1723;-0.0185;0.0646
0000319166;-2.1021;-7.1084;4.6663;-0.1859;0.0007;0.0834
0000319175;-2.2434;-7.3957;4.5346;-0.1880;0.0147;0.0809
0000319187;-2.1955;-7.2927;4.4484;-0.1992;0.0442;0.0870
0000319196;-2.2889;-7.4388;4.3407;-0.2036;0.0592;0.0846
0000319209;-2.3200;-7.3478;4.3598;-0.2141;0.0703;0.0685
0000319218;-2.3032;-7.2784;4.3167;-0.2293;0.0785;0.0610
0000319227;-2.5187;-7.3574;4.1635;-0.2325;0.0690;0.0510
0000319297;-2.6264;-7.6567;4.2138;-0.2418;0.0012;-0.0057
0000319306;-2.6408;-7.7285;4.1970;-0.2365;-0.0016;-0.0001
0000319319;-2.4924;-7.6112;4.3048;-0.2153;-0.0160;-0.0096
0000319328;-2.3870;-7.5010;4.4125;-0.2142;-0.0079;-0.0036
0000319340;-2.3798;-7.4316;4.2449;-0.2028;-0.0128;-0.0032
0000319349;-2.6217;-7.5729;4.3838;-0.1883;-0.0297;-0.0104
0000319362;-2.6336;-7.7189;4.4724;-0.1648;-0.0636;-0.0169
0000319371;-2.6025;-7.7740;4.4700;-0.1434;-0.0731;-0.0108
0000319383;-2.5235;-7.9775;4.5562;-0.1111;-0.0831;-0.0241
0000319392;-2.5091;-8.0780;4.4772;-0.0794;-0.0905;-0.0433
0000319405;-2.5618;-7.9966;4.5298;-0.0485;-0.1030;-0.0719
0000319414;-2.2290;-7.6686;4.5825;-0.0216;-0.1196;-0.0949
0000319423;-2.5690;-7.8745;4.7573;-0.0017;-0.1431;-0.1114
0000319435;-2.5379;-7.6854;4.8483;0.0197;-0.1832;-0.1256
0000319444;-2.2697;-7.4196;4.8961;0.0135;-0.1941;-0.1232
0000319457;-1.9728;-7.2927;5.1571;0.0117;-0.1901;-0.1219
0000319466;-2.0686;-7.3981;5.0566;0.0121;-0.1853;-0.1200
0000319478;-1.8555;-7.6136;5.0063;0.0011;-0.1568;-0.0889
0000319487;-1.8124;-7.8338;4.9368;0.0035;-0.1226;-0.0674
0000319500;-1.8004;-8.1379;4.7788;0.0268;-0.0701;-0.0392
0000319509;-1.6975;-7.9727;4.5442;0.0485;-0.0290;-0.0285
0000319579;-3.0358;-8.1906;4.1204;0.2490;0.0941;-0.1188
0000319588;-2.8730;-8.0661;4.0175;0.2751;0.0537;-0.1448
0000319597;-2.5666;-7.8721;4.1755;0.2807;0.0350;-0.1504
0000319610;-2.3248;-7.3598;4.0821;0.2722;0.0176;-0.1583
0000319619;-2.3008;-7.1491;4.1994;0.2615;0.0011;-0.1604
0000319631;-2.4134;-6.8474;4.3287;0.2194;-0.0063;-0.1451
0000319640;-2.3870;-6.7540;4.2641;0.1935;-0.0149;-0.1344
0000319653;-2.3727;-6.8354;4.4365;0.1435;-0.0173;-0.1144
0000319662;-2.2458;-6.7612;4.3383;0.1115;-0.0129;-0.1013
0000319674;-2.3152;-6.9887;4.3742;0.0745;-0.0221;-0.0930
0000319683;-2.3463;-7.0797;4.4173;0.0508;-0.0101;-0.0755
0000319692;-2.4612;-7.2688;4.3359;0.0337;-0.0147;-0.0690
0000319705;-2.3056;-7.2712;4.3191;0.0105;-0.0120;-0.0561
0000319714;-2.3870;-7.2880;4.4293;-0.0004;-0.0165;-0.0520
0000319726;-2.5426;-7.4771;4.4532;-0.0032;-0.0195;-0.0401
0000319735;-2.3415;-7.3837;4.5083;-0.0103;-0.0127;-0.0304
0000319748;-2.4205;-7.4412;4.5131;-0.0049;-0.0139;-0.0261
0000319757;-2.3679;-7.5633;4.4197;0.0100;-0.0155;-0.0310
0000319769;-2.4421;-7.5705;4.3527;0.0199;-0.0048;-0.0304
0000319778;-2.3607;-7.5537;4.4939;0.0232;0.0024;-0.0374
0000319792;-2.6073;-7.6782;4.4724;0.0378;0.0044;-0.0381
0000319801;-2.3990;-7.6279;4.4484;0.0444;0.0097;-0.0373
0000319810;-2.2673;-7.3430;4.4724;0.0434;0.0209;-0.0345
0000319879;-2.4708;-7.2137;4.3191;-0.0420;-0.0260;0.0044
0000319888;-2.5809;-7.2927;4.3239;-0.0512;-0.0428;0.0060
0000319900;-2.3463;-7.2664;4.3407;-0.0713;-0.0345;0.0224
0000319909;-2.4421;-7.4005;4.3287;-0.0771;-0.0414;0.0228
0000319922;-2.5115;-7.5968;4.3359;-0.0910;-0.0457;0.0286
0000319931;-2.5235;-7.5465;4.3958;-0.0986;-0.0436;0.0313
0000319943;-2.4660;-7.3813;4.4388;-0.0995;-0.0569;0.0296
0000319952;-2.6456;-7.6471;4.4604;-0.1014;-0.0659;0.0242
0000319965;-2.4565;-7.4795;4.4436;-0.1038;-0.0679;0.0305
0000319974;-2.4708;-7.5992;4.3886;-0.1037;-0.0727;0.0297
0000319983;-2.3942;-7.5346;4.4748;-0.0963;-0.0677;0.0265
0000319995;-2.3487;-7.6662;4.4987;-0.0913;-0.0690;0.0241
0000320004;-2.3200;-7.6447;4.4412;-0.0922;-0.0565;0.0308
0000320017;-2.3583;-7.7476;4.5131;-0.0810;-0.0566;0.0204
0000320026;-2.3296;-7.6734;4.4460;-0.0694;-0.0528;0.0131
0000320038;-2.2889;-7.6662;4.4724;-0.0516;-0.0489;0.0101
0000320047;-2.3343;-7.7907;4.4460;-0.0440;-0.0422;0.0115
0000320060;-2.3152;-7.6519;4.4867;-0.0350;-0.0412;0.0024
0000320069;-2.3176;-7.4747;4.3790;-0.0249;-0.0378;0.0003
0000320081;-2.3774;-7.5178;4.4939;-0.0141;-0.0338;-0.0003
0000320088;-2.3679;-7.6088;4.5274;-0.0109;-0.0352;-0.0005
0000320096;-2.3272;-7.5896;4.4700;-0.0088;-0.0294;-0.0052
0000320164;-2.5067;-7.5729;4.4700;0.0148;-0.0286;-0.0276
0000320172;-2.4229;-7.5010;4.5442;0.0177;-0.0258;-0.0274
