time;acc_x;acc_y;acc_z;gyro_x;gyro_y;gyro_z
0000245335;-0.6273;0.1245;-1.5107;-0.0538;0.0051;-0.0532
0000245344;-0.6225;0.1772;-1.5562;-0.0324;-0.0096;-0.0634
0000245351;-0.7422;0.0886;-1.5395;-0.0285;-0.0095;-0.0609
0000245359;-0.6345;0.1532;-1.4413;-0.0225;-0.0145;-0.0655
0000245368;-0.5842;0.2825;-1.4772;-0.0012;-0.0304;-0.0649
0000245376;-0.7757;0.0479;-1.4605;0.0063;-0.0310;-0.0626
0000245388;-0.7015;0.1772;-1.4198;0.0242;-0.0396;-0.0537
0000245396;-0.8212;0.1365;-1.4222;0.0273;-0.0402;-0.0434
0000245407;-0.7374;0.2514;-1.4772;0.0332;-0.0489;-0.0352
0000245415;-0.6464;0.4453;-1.3791;0.0336;-0.0552;-0.0340
0000245423;-0.7350;0.4932;-1.4365;0.0245;-0.0566;-0.0222
0000245490;-0.7350;0.1030;-1.4605;-0.0967;-0.0440;0.0068
0000245498;-0.7590;0.1389;-1.4198;-0.1023;-0.0297;0.0187
0000245509;-0.5602;0.0742;-1.4916;-0.0943;-0.0156;0.0260
0000245517;-0.6632;0.0455;-1.5490;-0.0798;-0.0100;0.0252
0000245529;-0.8954;-0.1867;-1.7789;-0.0496;-0.0188;0.0152
0000245537;-0.8667;-0.0359;-1.5826;-0.0289;-0.0317;0.0204
0000245548;-0.7590;-0.0575;-1.5419;0.0056;-0.0602;0.0282
0000245556;-0.7087;0.1006;-1.5012;0.0188;-0.0513;0.0232
0000245568;-0.6033;0.2969;-1.3264;0.0280;-0.0596;0.0125
0000245576;-0.5602;0.4597;-1.2809;0.0310;-0.0677;0.0199
0000245584;-0.4429;0.4477;-1.3575;0.0280;-0.0645;0.0205
0000245595;-0.4046;0.4764;-1.2905;0.0244;-0.0517;0.0325
0000245603;-0.6321;0.3591;-1.2498;0.0139;-0.0477;0.0326
0000245615;-0.6752;0.4693;-1.2594;0.0019;-0.0400;0.0377
0000245623;-0.6656;0.4142;-1.2761;-0.0039;-0.0450;0.0330
0000245634;-0.5339;0.3998;-1.2139;-0.0143;-0.0493;0.0349
0000245642;-0.5076;0.5938;-1.3719;-0.0073;-0.0506;0.0248
0000245654;-0.4860;0.5148;-1.4126;-0.0103;-0.0588;0.0132
0000245662;-0.6776;0.2945;-1.1660;0.0032;-0.0552;-0.0016
0000245670;-0.5052;0.5746;-1.2785;0.0029;-0.0364;-0.0035
0000245681;-0.5195;0.3400;-1.2474;-0.0048;-0.0270;0.0003
0000245689;-0.2753;0.3783;-1.4150;-0.0043;-0.0362;0.0035
0000245757;-0.8739;0.5531;-1.3958;-0.0693;0.0097;-0.0059
0000245765;-0.8380;0.4884;-1.4461;-0.0753;0.0157;-0.0133
0000245776;-0.5219;0.3304;-1.5850;-0.0721;0.0225;-0.0324
0000245784;-0.4884;0.3663;-1.4940;-0.0698;0.0374;-0.0394
0000245796;-0.3160;0.1891;-1.3862;-0.0565;0.0280;-0.0556
0000245804;-0.2394;0.1700;-1.4676;-0.0402;0.0105;-0.0585
0000245815;-0.0287;0.2993;-1.5371;-0.0269;0.0137;-0.0750
0000245823;-0.1269;0.1844;-1.5060;-0.0175;0.0265;-0.0793
0000245831;-0.1796;0.2227;-1.4198;-0.0092;0.0337;-0.0881
0000245843;-0.4932;-0.0120;-1.2833;0.0093;0.0389;-0.0947
0000245851;-0.4405;0.1149;-1.3647;0.0184;0.0441;-0.0943
0000245862;-0.5148;0.2753;-1.3719;0.0414;0.0238;-0.0969
0000245870;-0.6297;0.3735;-1.4557;0.0566;0.0171;-0.0895
0000245882;-0.8595;0.3926;-1.3288;0.0681;-0.0208;-0.0858
0000245890;-0.7015;0.6800;-1.3695;0.0785;-0.0433;-0.0879
0000245901;-0.6895;0.6345;-1.2282;0.0799;-0.0657;-0.0921
0000245909;-0.6704;0.7135;-1.3072;0.0781;-0.0681;-0.0803
0000245917;-0.6057;0.9194;-1.2953;0.0569;-0.0593;-0.0725
0000245929;-0.7829;0.8595;-1.2115;0.0328;-0.0590;-0.0669
0000245937;-0.7422;0.6752;-1.1636;0.0169;-0.0553;-0.0701
0000245949;-0.4788;0.6919;-1.2546;-0.0084;-0.0128;-0.0655
0000245957;-0.6177;0.6177;-1.3551;-0.0228;0.0044;-0.0650
0000246025;-0.5387;-0.0670;-1.6831;0.0208;0.0400;-0.0939
0000246033;-0.5076;0.1341;-1.6664;0.0209;0.0398;-0.1062
0000246044;-0.5507;0.1317;-1.6424;0.0080;0.0163;-0.0971
0000246052;-0.6704;0.1197;-1.6137;0.0156;-0.0015;-0.0929
0000246064;-0.5722;0.2514;-1.6017;0.0241;0.0093;-0.0802
0000246072;-0.9768;0.3352;-1.6185;0.0144;0.0238;-0.0793
0000246080;-0.8452;0.4238;-1.5969;0.0117;0.0284;-0.0755
0000246091;-0.9361;0.5746;-1.5610;0.0043;0.0011;-0.0733
0000246099;-1.0726;0.5650;-1.6496;-0.0055;-0.0147;-0.0810
0000246111;-1.1133;0.4956;-1.6161;-0.0218;-0.0164;-0.0935
0000246119;-0.9170;0.7709;-1.4653;-0.0241;-0.0181;-0.1009
0000246130;-0.6369;0.6345;-1.4988;-0.0418;-0.0365;-0.0917
0000246138;-0.5914;0.3926;-1.5490;-0.0530;-0.0358;-0.0775
0000246150;-0.7494;0.1820;-1.4796;-0.0569;-0.0191;-0.0612
0000246158;-0.5722;0.4214;-1.4605;-0.0667;-0.0048;-0.0528
0000246169;-0.5938;0.1413;-1.5036;-0.0689;0.0136;-0.0366
0000246177;-0.7398;0.0718;-1.5203;-0.0723;0.0175;-0.0306
0000246185;-0.9720;-0.0024;-1.5730;-0.0675;0.0127;-0.0199
0000246197;-1.1372;-0.0766;-1.5969;-0.0699;-0.0033;-0.0155
0000246205;-1.0415;0.0886;-1.6305;-0.0737;-0.0172;-0.0128
0000246217;-1.1516;-0.0910;-1.5826;-0.0634;-0.0242;-0.0157
0000246225;-1.2139;-0.2969;-1.5012;-0.0626;-0.0261;-0.0181
0000246293;-0.9888;0.1700;-1.5874;0.0641;-0.0529;-0.0496
0000246301;-0.9337;0.2945;-1.5993;0.0544;-0.0703;-0.0442
0000246312;-0.7997;0.4741;-1.5107;0.0473;-0.0807;-0.0284
0000246320;-0.8978;0.2227;-1.3312;0.0392;-0.0754;-0.0230
0000246332;-0.5435;0.5531;-1.4006;0.0292;-0.0699;-0.0147
0000246340;-0.5004;0.4956;-1.4365;0.0148;-0.0590;-0.0057
0000246351;-0.4860;0.3567;-1.4868;0.0028;-0.0464;0.0076
0000246359;-0.6847;0.3998;-1.5036;-0.0091;-0.0376;0.0172
0000246367;-0.6512;0.2394;-1.5419;-0.0067;-0.0436;0.0153
0000246379;-0.7542;0.1963;-1.5921;-0.0125;-0.0442;0.0252
0000246387;-0.6249;0.2514;-1.6041;-0.0157;-0.0384;0.0330
0000246398;-0.6536;0.0694;-1.5323;-0.0096;-0.0384;0.0321
0000246406;-0.7302;0.1772;-1.6065;-0.0097;-0.0318;0.0273
0000246418;-0.7661;0.0694;-1.5107;-0.0076;-0.0212;0.0197
0000246426;-0.8691;0.1748;-1.5993;-0.0067;-0.0093;0.0165
0000246437;-0.9313;0.2083;-1.6999;-0.0097;-0.0196;0.0213
0000246445;-0.7781;0.2274;-1.7837;-0.0193;-0.0404;0.0230
0000246453;-0.9936;0.0072;-1.7119;-0.0145;-0.0554;0.0280
0000246465;-1.0367;0.0790;-1.7526;-0.0185;-0.0600;0.0444
0000246473;-0.9649;0.3663;-1.6735;-0.0320;-0.0521;0.0542
0000246485;-0.9697;0.3759;-1.5203;-0.0488;-0.0478;0.0572
0000246493;-0.8835;0.2011;-1.4940;-0.0659;-0.0545;0.0510
0000246561;-0.9577;0.0599;-1.3838;-0.0039;-0.0465;0.0510
0000246569;-0.9194;0.0599;-1.4605;0.0068;-0.0642;0.0489
0000246580;-0.8308;0.1796;-1.3862;0.0221;-0.0899;0.0438
0000246588;-0.8428;0.2682;-1.4174;0.0256;-0.1051;0.0485
0000246600;-0.8619;0.3424;-1.3934;0.0257;-0.1142;0.0438
0000246608;-0.6225;0.4597;-1.3791;0.0237;-0.1143;0.0444
0000246616;-0.7805;0.3136;-1.3647;0.0197;-0.1112;0.0416
0000246627;-0.5986;0.3615;-1.4126;0.0203;-0.1022;0.0413
0000246635;-0.4597;0.4501;-1.3767;0.0176;-0.0982;0.0392
0000246647;-0.5626;0.4429;-1.4150;0.0201;-0.1057;0.0392
0000246655;-0.6991;0.3783;-1.4269;0.0125;-0.1099;0.0412
0000246666;-0.4525;0.5435;-1.4437;0.0120;-0.1211;0.0402
0000246674;-0.4190;0.5195;-1.5467;0.0073;-0.1184;0.0430
0000246686;-0.3759;0.4429;-1.4772;0.0044;-0.1136;0.0449
0000246694;-0.3879;0.5555;-1.5155;0.0047;-0.1098;0.0418
0000246702;-0.4980;0.3256;-1.4988;-0.0064;-0.1026;0.0388
0000246714;-0.5507;0.3017;-1.5012;-0.0100;-0.0827;0.0417
0000246722;-0.5219;0.4908;-1.4676;-0.0129;-0.0819;0.0398
0000246733;-0.5650;0.3831;-1.4892;-0.0161;-0.0758;0.0422
0000246741;-0.4501;0.5866;-1.6161;-0.0258;-0.0707;0.0408
0000246753;-0.5555;0.4405;-1.5754;-0.0225;-0.0741;0.0368
0000246761;-0.5962;0.3400;-1.5993;-0.0160;-0.0717;0.0318
0000246825;-0.5148;0.3711;-1.4078;0.0029;-0.0644;-0.0245
0000246833;-0.2705;0.4884;-1.3982;0.0052;-0.0580;-0.0257
0000246845;-0.4238;0.3759;-1.3192;0.0016;-0.0469;-0.0276
0000246853;-0.4693;0.2753;-1.1588;0.0019;-0.0388;-0.0211
0000246861;-0.5004;0.5148;-1.2761;0.0007;-0.0349;-0.0230
0000246872;-0.6345;0.2777;-1.2665;0.0015;-0.0382;-0.0321
0000246880;-0.3304;0.5315;-1.3072;-0.0043;-0.0268;-0.0249
0000246892;-0.5770;0.4070;-1.2498;-0.0101;-0.0268;-0.0285
0000246900;-0.5866;0.3687;-1.2091;-0.0080;-0.0246;-0.0292
0000246911;-0.5818;0.4166;-1.3695;-0.0216;-0.0099;-0.0218
0000246919;-0.7111;0.3831;-1.2594;-0.0266;-0.0060;-0.0156
0000246931;-0.7326;0.3448;-1.3192;-0.0245;-0.0132;-0.0216
0000246939;-0.6608;0.3136;-1.3455;-0.0278;-0.0164;-0.0188
0000246950;-0.6369;0.3017;-1.3910;-0.0312;-0.0117;-0.0144
0000246958;-0.6249;0.2083;-1.3575;-0.0361;-0.0119;-0.0189
0000246966;-0.6440;0.3136;-1.3886;-0.0310;-0.0151;-0.0209
0000246978;-0.7159;0.1077;-1.3527;-0.0333;-0.0028;-0.0217
0000246986;-0.7685;0.1628;-1.4509;-0.0300;0.0017;-0.0189
0000246997;-0.7661;0.2011;-1.5419;-0.0353;0.0008;-0.0173
0000247005;-0.9026;0.2227;-1.5131;-0.0252;-0.0136;-0.0191
0000247017;-0.9074;0.1772;-1.5874;-0.0204;-0.0292;-0.0228
0000247025;-0.8068;0.2035;-1.5850;-0.0175;-0.0298;-0.0181
0000247088;-0.5578;0.4429;-1.4341;0.0044;-0.0159;-0.0241
0000247096;-0.6129;0.4597;-1.4102;0.0052;-0.0143;-0.0238
0000247108;-0.8404;0.2298;-1.4437;-0.0040;-0.0183;-0.0245
0000247116;-0.7470;0.3065;-1.3934;-0.0107;-0.0261;-0.0249
0000247127;-0.5818;0.3926;-1.4700;-0.0079;-0.0336;-0.0188
0000247135;-0.6393;0.3089;-1.4078;-0.0101;-0.0316;-0.0109
0000247143;-0.5962;0.2586;-1.4748;-0.0040;-0.0334;-0.0073
0000247155;-0.4980;0.4022;-1.4365;-0.0028;-0.0185;-0.0085
0000247163;-0.6536;0.3041;-1.5083;-0.0041;-0.0043;-0.0053
0000247174;-0.8930;0.0958;-1.4222;-0.0079;-0.0161;-0.0127
0000247182;-0.6967;0.3974;-1.5131;-0.0136;-0.0139;-0.0080
0000247194;-0.6967;0.3567;-1.4413;-0.0147;-0.0191;-0.0115
0000247202;-0.5674;0.3567;-1.4988;-0.0177;-0.0183;-0.0071
0000247213;-0.7230;0.3280;-1.4653;-0.0236;-0.0152;-0.0080
0000247221;-0.7278;0.3041;-1.4317;-0.0196;-0.0183;-0.0173
0000247233;-0.6129;0.2227;-1.4772;-0.0169;-0.0103;-0.0167
0000247241;-0.7230;0.1939;-1.4389;-0.0089;-0.0152;-0.0175
0000247252;-0.7566;0.2466;-1.4629;-0.0129;-0.0127;-0.0075
0000247260;-0.7661;0.2322;-1.4174;-0.0055;-0.0201;-0.0081
0000247268;-0.5890;0.2634;-1.4413;-0.0108;-0.0137;0.0008
0000247280;-0.7781;0.1700;-1.4748;-0.0068;-0.0173;-0.0017
0000247288;-0.7039;0.3184;-1.3767;-0.0104;-0.0169;0.0009
0000247351;-0.6704;0.2610;-1.4820;-0.0136;-0.0189;-0.0091
0000247359;-0.6512;0.3256;-1.4533;-0.0173;-0.0159;-0.0080
0000247371;-0.7542;0.2729;-1.4988;-0.0171;-0.0225;-0.0085
0000247379;-0.6800;0.3519;-1.5490;-0.0137;-0.0256;-0.0107
0000247390;-0.4980;0.4094;-1.4653;-0.0091;-0.0332;-0.0121
0000247398;-0.5938;0.3759;-1.4437;-0.0139;-0.0242;-0.0127
0000247410;-0.6823;0.3855;-1.5107;-0.0107;-0.0252;-0.0127
0000247418;-0.6369;0.3328;-1.4988;-0.0192;-0.0228;-0.0081
0000247426;-0.6201;0.3519;-1.5155;-0.0153;-0.0238;-0.0068
0000247437;-0.6488;0.4525;-1.5993;-0.0156;-0.0258;-0.0105
0000247445;-0.6560;0.2753;-1.4940;-0.0121;-0.0318;-0.0079
0000247457;-0.4573;0.2753;-1.5179;-0.0119;-0.0313;-0.0123
0000247465;-0.6704;0.3567;-1.4653;-0.0132;-0.0233;-0.0071
0000247476;-0.6536;0.2562;-1.6640;-0.0116;-0.0196;-0.0104
0000247484;-0.6847;0.2322;-1.4533;-0.0037;-0.0268;-0.0157
0000247496;-0.7039;0.3950;-1.4389;-0.0069;-0.0280;-0.0116
0000247504;-0.4597;0.5004;-1.4796;-0.0004;-0.0314;-0.0193
0000247515;-0.6919;0.4190;-1.4676;-0.0088;-0.0268;-0.0129
0000247523;-0.5674;0.3831;-1.4533;-0.0080;-0.0289;-0.0201
0000247535;-0.6919;0.3759;-1.4796;-0.0143;-0.0253;-0.0169
0000247543;-0.5578;0.3352;-1.4916;-0.0159;-0.0217;-0.0159
0000247551;-0.6057;0.3663;-1.4581;-0.0191;-0.0159;-0.0113
0000247614;-0.5770;0.3735;-1.4916;-0.0123;-0.0204;-0.0160
0000247622;-0.6584;0.1772;-1.5730;-0.0096;-0.0183;-0.0160
0000247634;-0.6680;0.1508;-1.4174;0.0017;-0.0191;-0.0179
0000247642;-0.5578;0.2873;-1.5778;0.0061;-0.0284;-0.0211
0000247653;-0.7207;0.1245;-1.4413;0.0028;-0.0265;-0.0169
0000247661;-0.5962;0.2562;-1.4964;0.0015;-0.0225;-0.0181
0000247673;-0.5315;0.3926;-1.6089;0.0101;-0.0192;-0.0232
0000247681;-0.6249;0.2658;-1.4748;0.0135;-0.0069;-0.0216
0000247692;-0.7614;0.1484;-1.5490;0.0144;-0.0049;-0.0175
0000247700;-0.6129;0.3160;-1.5251;0.0248;-0.0035;-0.0220
0000247708;-0.6776;0.1484;-1.5107;0.0349;-0.0031;-0.0285
0000247720;-0.4717;0.2155;-1.5155;0.0432;0.0120;-0.0217
0000247728;-0.4453;0.2203;-1.6352;0.0494;0.0121;-0.0241
0000247739;-0.3400;0.3041;-1.5083;0.0661;0.0155;-0.0153
0000247747;-0.5315;0.0766;-1.5467;0.0771;0.0155;-0.0165
0000247759;-0.3472;0.1460;-1.5371;0.0925;0.0245;-0.0080
0000247767;-0.5291;0.1077;-1.6209;0.1073;0.0293;-0.0004
0000247778;-0.6584;0.0694;-1.6137;0.1292;0.0430;0.0097
0000247786;-0.5195;0.0958;-1.5562;0.1492;0.0377;0.0033
0000247794;-0.6991;0.0311;-1.6712;0.1583;0.0432;-0.0011
0000247806;-0.8523;0.0359;-1.6017;0.1764;0.0296;-0.0127
0000247814;-0.7518;0.2849;-1.6903;0.1775;0.0184;-0.0125
0000247877;-0.6129;0.8092;-1.7645;-0.0104;0.0099;-0.0212
0000247885;-0.7757;0.4884;-1.7406;-0.0358;0.0137;-0.0052
0000247897;-0.7422;0.3711;-1.8292;-0.0486;0.0077;0.0028
0000247905;-0.7805;0.1867;-1.8340;-0.0406;-0.0035;0.0051
0000247916;-0.7302;-0.0192;-1.9561;-0.0321;-0.0112;0.0159
0000247924;-0.5435;0.1317;-1.9201;-0.0313;-0.0181;0.0244
0000247936;-0.7805;0.2370;-1.9369;-0.0288;-0.0264;0.0282
0000247944;-0.6297;0.2945;-1.8364;-0.0348;-0.0284;0.0389
0000247952;-0.5076;0.4836;-1.8747;-0.0336;-0.0204;0.0450
0000247963;-0.4860;0.6033;-1.7406;-0.0500;-0.0135;0.0553
0000247971;-0.4286;0.5315;-1.7549;-0.0622;-0.0112;0.0521
0000247983;-0.5722;0.2825;-1.7214;-0.0608;-0.0025;0.0480
0000247991;-0.6105;0.2155;-1.7621;-0.0417;-0.0085;0.0281
0000248002;-0.3711;0.0886;-1.8435;-0.0189;-0.0080;0.0221
0000248010;-0.6584;0.0144;-1.7693;0.0107;-0.0318;0.0088
0000248022;-0.5148;0.1365;-1.5730;0.0508;-0.0584;0.0031
0000248030;-0.3424;0.2466;-1.5323;0.0725;-0.0726;-0.0004
0000248042;-0.5459;0.2035;-1.3288;0.0871;-0.0655;0.0013
0000248050;-0.4429;0.3089;-1.4748;0.1073;-0.0665;-0.0072
0000248058;-0.5339;0.1748;-1.3312;0.1083;-0.0566;-0.0013
0000248121;-0.7590;-0.0599;-1.6831;0.2954;-0.1220;0.0083
0000248129;-0.7949;-0.0886;-1.6759;0.3263;-0.1514;0.0111
0000248141;-0.8571;-0.2107;-1.7190;0.3619;-0.1789;0.0242
0000248149;-0.7422;-0.3831;-1.5467;0.3858;-0.1845;0.0342
0000248160;-0.5818;-0.2370;-1.4629;0.4211;-0.1911;0.0474
0000248168;-0.5794;-0.3112;-1.4365;0.4418;-0.1769;0.0504
0000248180;-0.6369;-0.3519;-1.4796;0.4820;-0.1731;0.0536
0000248188;-0.7614;-0.4764;-1.3886;0.5047;-0.1560;0.0548
0000248196;-0.6201;-0.4645;-1.4198;0.5268;-0.1371;0.0468
0000248207;-0.5483;-0.3615;-1.5083;0.5544;-0.1111;0.0318
0000248215;-0.6512;-0.5890;-1.6281;0.5792;-0.0917;0.0192
0000248227;-0.6847;-0.6464;-1.7813;0.6211;-0.0789;-0.0091
0000248235;-0.6129;-0.7638;-1.8244;0.6475;-0.0608;-0.0185
0000248246;-0.8021;-0.8260;-1.9561;0.7051;-0.0630;-0.0430
0000248254;-0.7278;-0.9266;-1.9776;0.7422;-0.0546;-0.0406
0000248266;-0.6009;-0.7278;-2.2721;0.8048;-0.0512;-0.0486
0000248274;-0.8308;-0.9984;-2.2362;0.8362;-0.0370;-0.0516
0000248285;-0.6393;-0.7590;-2.3798;0.8985;-0.0297;-0.0650
0000248293;-0.7638;-0.8499;-2.4660;0.9383;-0.0216;-0.0699
0000248305;-0.5986;-0.6871;-2.7533;1.0096;-0.0211;-0.0757
0000248313;-0.8930;-0.8475;-2.8012;1.0417;-0.0410;-0.0703
0000248321;-0.9720;-0.7398;-2.7916;1.0666;-0.0540;-0.0582
0000248384;-0.6177;-0.5291;-3.2513;1.2957;-0.1724;-0.0706
0000248392;-0.6201;-0.5842;-3.2058;1.3194;-0.1733;-0.0763
0000248404;-0.5363;-0.6536;-3.1149;1.3602;-0.1836;-0.0854
0000248412;-0.5243;-0.6895;-3.2441;1.3855;-0.1799;-0.0925
0000248423;-0.8045;-0.5746;-3.1771;1.4095;-0.2169;-0.1363
0000248431;-0.4669;-0.3328;-3.4788;1.4117;-0.2169;-0.1403
0000248443;-0.5842;-0.3759;-3.4812;1.4297;-0.2122;-0.1435
0000248451;-0.5148;-0.0431;-3.5314;1.4414;-0.2256;-0.1387
0000248462;-1.6400;1.1349;-4.0055;1.4441;-0.2737;-0.1406
0000248470;-1.9106;2.0806;-4.0917;1.4245;-0.4205;-0.1527
0000248482;-1.6472;1.4413;-3.2058;1.3638;-0.6181;-0.1921
0000248490;-1.3216;0.4022;-2.6887;1.3467;-0.6009;-0.2061
0000248498;-1.0127;-0.1077;-2.7031;1.3376;-0.5092;-0.2394
0000248509;-1.1708;-0.0646;-3.1412;1.3611;-0.3572;-0.2750
0000248517;-1.2091;0.1484;-3.9576;1.3668;-0.3002;-0.3080
0000248529;-1.2115;-0.2538;-4.0725;1.3779;-0.2546;-0.3075
0000248537;-1.4748;-0.7709;-4.6160;1.3702;-0.2563;-0.2669
0000248548;-1.8244;0.4477;-4.5969;1.3378;-0.3309;-0.2310
0000248556;-1.7693;0.5507;-4.5466;1.3095;-0.3778;-0.1828
0000248568;-1.4293;0.6105;-4.1683;1.1603;-0.4495;-0.1228
0000248576;-1.3551;0.3687;-4.1970;1.0027;-0.4983;-0.1111
0000248639;0.1197;-0.4477;-4.7453;0.0674;0.2880;-0.2427
0000248647;-0.0670;-1.0367;-5.0302;0.1138;0.3836;-0.2562
0000248655;-0.2035;-1.8364;-5.1260;0.1978;0.3886;-0.2630
0000248667;-0.7350;-2.6408;-5.3271;0.3846;0.3511;-0.2623
0000248675;-0.8643;-2.8778;-5.3223;0.4991;0.3144;-0.2666
0000248687;-1.5060;-3.0287;-5.1930;0.5858;0.3208;-0.2469
0000248695;-1.5993;-2.7725;-4.8842;0.6025;0.3593;-0.2106
0000248707;-1.8699;-2.5163;-4.7405;0.5958;0.3973;-0.1440
0000248715;-1.9106;-2.0327;-4.8650;0.6015;0.3788;-0.0914
0000248726;-2.0375;-1.7549;-5.1092;0.6038;0.3325;-0.0480
0000248734;-1.6999;-1.7430;-5.3702;0.5840;0.2835;-0.0460
0000248746;-1.2163;-2.1476;-5.5785;0.5564;0.2827;-0.0683
0000248754;-1.2043;-2.0853;-5.6192;0.5352;0.3007;-0.1123
0000248762;-0.8619;-2.0470;-5.8562;0.5383;0.3239;-0.1555
0000248773;-0.5602;-1.8435;-6.0142;0.5832;0.2677;-0.1880
0000248781;-0.4884;-1.9920;-6.4308;0.6690;0.1652;-0.1597
0000248793;-0.7230;-2.1524;-6.8115;0.7982;0.0117;-0.0690
0000248801;-1.0511;-2.3104;-6.7445;0.8733;-0.0381;-0.0389
0000248812;-1.8387;-2.7629;-6.7445;0.9349;0.0252;-0.1126
0000248820;-2.2625;-3.1053;-6.6391;0.9178;0.1863;-0.2204
0000248832;-3.1580;-3.4572;-6.2848;0.7493;0.4137;-0.4415
0000248840;-3.9456;-4.0199;-6.0238;0.6053;0.4014;-0.6019
0000248848;-3.8211;-4.0677;-6.0645;0.5224;0.2617;-0.6953
0000248915;1.0367;-3.7781;-6.1100;0.7846;-0.5153;-0.3617
0000248923;1.2498;-3.7302;-5.9711;0.8343;-0.3489;-0.3789
0000248935;1.2139;-3.8595;-6.0837;0.8800;-0.0710;-0.4381
0000248943;1.0774;-3.8164;-6.2034;0.8969;0.0717;-0.4963
0000248954;0.6919;-4.0486;-6.2728;0.9273;0.2169;-0.5753
0000248962;0.4381;-4.0797;-6.4524;0.9405;0.2814;-0.6274
0000248974;-0.2801;-4.1276;-6.3949;0.9260;0.3623;-0.7200
0000248982;-0.8332;-3.9887;-6.4380;0.9042;0.3826;-0.7766
0000248993;-1.5993;-3.2154;-6.2991;0.8912;0.3651;-0.7870
0000249001;-2.0063;-2.9401;-6.1555;0.8909;0.3075;-0.7811
0000249009;-2.2529;-2.8874;-6.4069;0.8536;0.2517;-0.7682
0000249021;-2.0063;-3.1508;-6.4763;0.8013;0.1856;-0.7761
0000249029;-1.6951;-3.3591;-6.3590;0.7866;0.1731;-0.7883
0000249041;-1.3791;-3.4261;-6.6367;0.7699;0.2008;-0.7775
0000249049;-1.4724;-3.4620;-6.7995;0.7573;0.2173;-0.7702
0000249061;-1.4389;-3.4979;-6.7900;0.7172;0.2619;-0.7854
0000249069;-1.3503;-3.7134;-6.8259;0.6911;0.2894;-0.8037
0000249080;-1.6903;-3.8738;-6.8019;0.6702;0.3218;-0.7905
0000249088;-1.6328;-3.8020;-6.6942;0.6468;0.3256;-0.7949
0000249100;-1.6281;-3.8738;-6.6319;0.6091;0.3111;-0.8060
0000249108;-1.8196;-3.8164;-6.5338;0.5666;0.3031;-0.8075
0000249116;-1.7717;-3.4668;-6.7828;0.5228;0.2806;-0.8056
0000249183;-2.3080;-3.5913;-6.4332;0.0169;0.1808;-0.7641
0000249191;-2.3320;-3.9576;-6.2704;-0.0211;0.1310;-0.7478
0000249203;-2.3391;-4.1228;-6.3159;-0.0939;0.0546;-0.7103
0000249211;-2.3056;-4.1755;-6.4907;-0.1328;0.0023;-0.6979
0000249223;-2.0830;-3.7589;-6.3805;-0.2033;-0.0659;-0.6516
0000249231;-2.1715;-3.5362;-6.3566;-0.2750;-0.1116;-0.6095
0000249243;-1.9273;-3.4357;-5.8778;-0.3924;-0.1851;-0.5498
0000249251;-1.8052;-3.5051;-5.8658;-0.4614;-0.2212;-0.5059
0000249263;-1.4509;-3.2729;-5.9592;-0.5565;-0.2862;-0.4330
0000249271;-1.4341;-3.3064;-6.0573;-0.6275;-0.3115;-0.3889
0000249283;-1.2186;-3.6655;-6.1723;-0.7165;-0.3627;-0.3120
0000249291;-0.9146;-3.4069;-6.3614;-0.7733;-0.3982;-0.2573
0000249299;-0.9744;-3.6081;-6.4404;-0.8235;-0.4450;-0.2177
0000249310;-0.5722;-3.5506;-6.2273;-0.9124;-0.4988;-0.1544
0000249318;-0.5435;-3.6368;-6.2584;-0.9693;-0.5303;-0.1027
0000249330;-0.4597;-3.7589;-7.1419;-0.9848;-0.5197;-0.0172
0000249338;-0.8499;-4.2042;-8.5281;-0.8696;-0.4842;0.0233
0000249350;-0.4573;-5.4181;-9.5529;-0.6355;-0.5027;0.0366
0000249358;0.4022;-6.2010;-8.8729;-0.5255;-0.5678;0.0847
0000249370;1.4509;-7.5465;-6.2632;-0.4956;-0.4151;0.1667
0000249378;2.2242;-8.0062;-5.1140;-0.5223;-0.2535;0.1252
0000249446;-4.3335;-6.7205;-5.3606;-0.7678;-0.4395;-0.1957
0000249454;-2.5426;-8.3294;-6.2656;-0.5570;-0.7293;-0.0538
0000249466;-0.2107;-8.0110;-7.0797;-0.3139;-0.8295;0.1162
0000249474;0.8308;-7.3717;-7.0940;-0.2633;-0.7001;0.1364
0000249482;1.6376;-6.4117;-6.7756;-0.2972;-0.5489;0.0514
0000249494;2.2865;-4.8195;-6.1986;-0.4062;-0.3296;-0.1888
0000249502;1.6472;-3.0789;-6.0190;-0.4839;-0.1579;-0.3196
0000249514;-0.0383;-1.6209;-6.0430;-0.5886;-0.0432;-0.4009
0000249522;-1.3575;-1.8364;-5.4061;-0.6319;-0.0985;-0.3733
0000249534;-2.5235;-3.6512;-4.9680;-0.6526;-0.2649;-0.2896
0000249542;-2.3798;-4.7860;-5.4277;-0.6291;-0.3961;-0.2310
0000249554;-1.8627;-6.1603;-5.8610;-0.5509;-0.5019;-0.1159
0000249562;-1.6879;-6.5027;-5.7820;-0.4911;-0.5072;-0.0687
0000249574;-1.0247;-6.0813;-5.8778;-0.4206;-0.4707;-0.0466
0000249582;-1.2234;-5.9185;-5.5258;-0.3926;-0.4410;-0.0590
0000249594;-1.5682;-5.4324;-5.3295;-0.3517;-0.4036;-0.1258
0000249602;-1.6807;-4.8267;-5.2385;-0.3451;-0.3857;-0.1953
0000249614;-2.1237;-4.3263;-4.9847;-0.3551;-0.3770;-0.2907
0000249622;-2.3607;-4.0270;-4.8961;-0.3667;-0.4045;-0.3513
0000249630;-2.6671;-3.9911;-5.0589;-0.3976;-0.4334;-0.3844
0000249642;-3.0885;-4.2329;-5.0230;-0.4415;-0.5079;-0.4249
0000249650;-3.3040;-4.5322;-4.8890;-0.4624;-0.5489;-0.4417
0000249718;-3.2058;-6.4787;-2.9808;-0.2046;-0.7842;-0.4776
0000249726;-3.1843;-6.6798;-3.2082;-0.1399;-0.7312;-0.4624
0000249738;-3.5195;-6.4141;-3.6871;-0.0569;-0.6419;-0.4541
0000249746;-4.1444;-6.1004;-3.7230;-0.0161;-0.6360;-0.4330
0000249758;-4.7860;-5.2505;-3.4333;0.0353;-0.6722;-0.3948
0000249766;-5.1212;-5.0063;-3.4836;0.0785;-0.7305;-0.3561
0000249778;-5.6407;-4.9344;-3.5578;0.1092;-0.7977;-0.2887
0000249786;-5.8323;-4.9488;-3.5267;0.1172;-0.8235;-0.2317
0000249798;-6.1387;-5.0302;-3.4069;0.1471;-0.8860;-0.1330
0000249806;-6.3758;-5.0159;-3.3567;0.1760;-0.9575;-0.0855
0000249818;-6.7062;-5.3127;-3.0454;0.2141;-1.0681;-0.0414
0000249826;-6.6966;-5.4923;-3.0550;0.2365;-1.1155;-0.0272
0000249834;-6.7445;-5.8347;-2.8970;0.2794;-1.1907;-0.0193
0000249846;-6.5673;-6.1316;-2.9975;0.3512;-1.2922;-0.0394
0000249854;-6.6176;-6.2848;-2.9999;0.3968;-1.3311;-0.0758
0000249866;-6.5793;-6.2345;-3.0143;0.4579;-1.4024;-0.1288
0000249874;-6.5817;-6.3231;-3.1077;0.4852;-1.4357;-0.1475
0000249886;-6.4620;-6.0597;-2.9497;0.5280;-1.5076;-0.1625
0000249894;-6.0262;-5.6120;-2.7773;0.5365;-1.5653;-0.1729
0000249906;-5.8897;-5.6407;-2.9066;0.5225;-1.6272;-0.1803
0000249914;-5.4947;-5.5402;-2.7892;0.5067;-1.6758;-0.1964
0000249982;-4.6831;-5.4731;-1.9680;0.4449;-1.6539;-0.2988
0000249990;-4.9991;-5.4875;-1.5969;0.4202;-1.6593;-0.3291
0000250002;-5.1380;-5.4540;-1.4700;0.4134;-1.6467;-0.3623
0000250010;-5.1332;-5.5043;-1.3647;0.3970;-1.6446;-0.3651
0000250018;-5.2888;-5.2984;-1.3048;0.4062;-1.6623;-0.3746
0000250030;-5.3822;-5.8993;-0.8188;0.4347;-1.6816;-0.3885
0000250038;-5.4348;-6.0190;-0.5842;0.4527;-1.6866;-0.3966
0000250050;-5.4085;-5.8921;-0.7901;0.4772;-1.6894;-0.4342
0000250058;-5.4372;-5.9376;-0.8308;0.4751;-1.7172;-0.4517
0000250070;-5.3774;-5.7868;-0.4597;0.4774;-1.7116;-0.4600
0000250078;-5.2601;-5.8969;-0.4836;0.4760;-1.7244;-0.4604
0000250090;-4.9344;-5.4444;-0.3759;0.4668;-1.7961;-0.4493
0000250098;-4.2952;-5.1547;-0.1844;0.4538;-1.7685;-0.4559
0000250110;-3.9241;-5.2648;0.0383;0.4519;-1.7383;-0.4374
0000250118;-3.9456;-5.4396;-0.1125;0.4425;-1.6947;-0.4221
0000250130;-4.1851;-5.6982;0.0000;0.4385;-1.6811;-0.4077
0000250138;-4.6998;-5.7748;0.3352;0.4387;-1.6522;-0.3869
0000250146;-4.5490;-5.6790;0.3065;0.4206;-1.6842;-0.3548
0000250158;-4.5466;-5.5641;0.5052;0.3986;-1.6879;-0.2938
0000250166;-4.2713;-5.1858;0.7254;0.3786;-1.6796;-0.2589
0000250178;-3.9983;-5.2529;1.1277;0.3551;-1.6642;-0.2317
0000250186;-3.8211;-5.0925;1.2665;0.3387;-1.6230;-0.2296
0000250253;-3.9265;-5.9951;2.2960;0.2559;-1.5635;-0.1083
0000250261;-3.7110;-5.7341;2.5091;0.2309;-1.5001;-0.1092
0000250273;-4.1348;-5.6048;2.8108;0.1940;-1.4504;-0.0933
0000250281;-4.2665;-5.7006;2.9808;0.1613;-1.4286;-0.0821
0000250289;-4.1156;-5.7197;3.2561;0.1407;-1.4214;-0.0819
0000250301;-4.2497;-6.3758;2.9616;0.1439;-1.4238;-0.0636
0000250309;-4.1348;-6.5218;2.9904;0.1320;-1.4424;-0.0783
0000250321;-4.1899;-6.8666;3.5386;0.0967;-1.4254;-0.1111
0000250329;-4.1563;-6.5721;3.6248;0.0783;-1.4201;-0.1556
0000250341;-4.0821;-6.3111;3.8379;0.0464;-1.3831;-0.2168
0000250350;-3.6152;-6.0717;4.1420;0.0304;-1.3650;-0.2619
0000250363;-3.3567;-5.9352;4.3287;-0.0021;-1.3311;-0.3319
0000250372;-3.1627;-6.0956;4.2832;-0.0322;-1.2899;-0.3543
0000250385;-3.1460;-6.4404;4.4652;-0.0306;-1.2352;-0.3758
0000250394;-2.9784;-6.7205;4.6017;-0.0053;-1.2036;-0.3717
0000250407;-2.8802;-7.0390;4.5442;0.0612;-1.1798;-0.3794
0000250416;-2.8539;-7.3741;4.4412;0.1318;-1.1863;-0.3926
0000250425;-2.6264;-7.1180;4.4245;0.1723;-1.1743;-0.4088
0000250438;-2.2098;-6.6750;4.4029;0.2130;-1.1796;-0.4883
0000250447;-2.0734;-6.3375;4.4604;0.2160;-1.1526;-0.5240
0000250460;-1.7909;-5.8275;4.4939;0.2133;-1.1012;-0.5497
0000250469;-1.5490;-5.5569;4.4724;0.2190;-1.0632;-0.5245
0000250538;-0.8643;-6.2752;4.6352;0.2828;-0.7454;-0.1508
0000250547;-0.7781;-6.4476;4.7788;0.3011;-0.7297;-0.1388
0000250560;-0.5219;-6.7062;4.8674;0.2942;-0.6789;-0.1328
0000250569;-0.2729;-6.6798;4.8650;0.2826;-0.6171;-0.1258
0000250578;-0.1125;-6.5290;4.9177;0.2918;-0.5700;-0.1275
0000250591;-0.2346;-6.7157;4.8794;0.2980;-0.4930;-0.1231
0000250600;-0.3974;-6.7325;4.8578;0.2886;-0.4385;-0.1079
0000250613;-0.7039;-6.7516;5.1595;0.2795;-0.3916;-0.0990
0000250622;-0.6895;-6.7924;5.0470;0.2687;-0.3793;-0.0945
0000250635;-0.6369;-6.8594;5.0470;0.2773;-0.3793;-0.0962
0000250644;-0.6752;-6.9001;5.1308;0.2789;-0.3702;-0.0833
0000250657;-0.3903;-6.8067;5.2529;0.2994;-0.3568;-0.0729
0000250666;-0.3855;-6.7828;5.3175;0.3094;-0.3059;-0.0849
0000250679;-0.2322;-6.4332;5.1523;0.2896;-0.2595;-0.1251
0000250688;-0.1053;-6.2369;5.0781;0.2730;-0.2497;-0.1475
0000250697;-0.0527;-6.2058;5.1212;0.2526;-0.2228;-0.1588
0000250710;0.1173;-5.9233;5.3558;0.2392;-0.1748;-0.1685
0000250719;-0.0455;-6.0741;5.3917;0.2265;-0.1147;-0.1535
0000250732;-0.1293;-6.1507;5.4061;0.1899;-0.0545;-0.1182
0000250741;-0.4046;-6.2441;5.4277;0.1724;-0.0220;-0.0713
0000250757;-0.5028;-6.3087;5.5713;0.1805;0.0037;-0.0047
0000250766;-0.6273;-6.2465;5.5522;0.1752;0.0067;0.0348
0000250835;-0.0790;-6.3901;5.5234;0.1434;0.1947;0.0580
0000250844;-0.1580;-6.4859;5.4851;0.1544;0.2041;0.0505
0000250853;-0.3448;-6.4308;5.5234;0.1536;0.2336;0.0513
0000250865;-0.5938;-6.5242;5.5091;0.1663;0.2795;0.0326
0000250874;-0.6656;-6.5098;5.5545;0.1507;0.2979;0.0224
0000250887;-0.6009;-6.3901;5.3774;0.1319;0.2899;0.0155
0000250896;-0.7111;-6.2560;5.5162;0.1298;0.2839;0.0196
0000250908;-0.9649;-6.0382;5.3582;0.1303;0.3281;0.0337
0000250917;-0.9098;-6.2417;5.3678;0.1312;0.3295;0.0456
0000250930;-0.9098;-6.3470;5.2625;0.1092;0.2707;0.0509
0000250939;-0.9313;-6.4643;5.1882;0.1054;0.2663;0.0529
0000250948;-1.0080;-6.3207;5.1715;0.1077;0.2847;0.0465
0000250960;-0.9553;-6.3925;5.1236;0.0729;0.2823;0.0497
0000250969;-0.9074;-6.2608;5.0613;0.0721;0.2773;0.0514
0000250982;-1.2689;-6.2417;5.0159;0.0653;0.3036;0.0374
0000250991;-1.0151;-6.0358;4.9752;0.0512;0.2919;0.0226
0000251003;-1.1396;-6.3255;4.9368;0.0398;0.2647;0.0188
0000251012;-1.0295;-6.2872;4.8387;0.0420;0.2826;0.0213
0000251021;-0.7398;-6.1818;4.7405;0.0488;0.2918;0.0108
0000251090;-0.4046;-6.2872;4.7932;0.0494;0.2852;-0.0021
0000251099;-0.3807;-6.3087;4.7716;0.0501;0.3048;0.0069
0000251111;-0.1676;-6.1890;4.5897;0.0486;0.3059;0.0225
0000251120;-0.3280;-6.1579;4.4101;0.0602;0.3018;0.0293
0000251133;-0.4693;-6.3782;4.4628;0.0733;0.3020;0.0430
0000251142;-0.6871;-6.3327;4.6136;0.0874;0.3211;0.0429
0000251154;-0.8045;-6.5362;4.5945;0.1085;0.3317;0.0321
0000251163;-1.0271;-6.5027;4.6112;0.1347;0.3500;0.0055
0000251172;-1.1253;-6.6295;4.6567;0.1490;0.3651;-0.0133
0000251185;-1.4102;-6.5960;4.6280;0.1641;0.3655;-0.0421
0000251194;-1.5610;-6.5864;4.6017;0.1732;0.3601;-0.0488
0000251206;-1.7502;-6.4691;4.6687;0.1757;0.3544;-0.0404
0000251215;-1.6520;-6.7062;4.7477;0.1804;0.3537;-0.0406
0000251228;-1.6496;-6.5984;4.6376;0.1707;0.4028;-0.0410
0000251237;-1.5227;-6.5242;4.4867;0.1597;0.4081;-0.0332
0000251249;-1.1732;-6.4165;4.3527;0.1641;0.3945;-0.0137
0000251258;-1.0415;-6.2106;4.3048;0.1565;0.4219;-0.0028
0000251267;-1.0582;-6.3422;4.5011;0.1494;0.4253;-0.0024
0000251280;-1.1181;-6.3542;4.3311;0.1496;0.4550;0.0047
0000251289;-1.3551;-6.4380;4.2737;0.1569;0.4744;-0.0019
0000251301;-1.6879;-6.6176;4.3981;0.1668;0.5123;-0.0344
0000251310;-1.8340;-6.4021;4.4484;0.1829;0.5183;-0.0814
0000251377;-1.9776;-6.3997;4.2737;0.2683;0.4181;-0.1904
0000251386;-1.8004;-6.3949;4.2976;0.2955;0.4037;-0.1560
0000251398;-1.6185;-6.2417;4.2521;0.3191;0.4596;-0.1479
0000251407;-2.0686;-6.0621;4.3814;0.3256;0.4915;-0.1729
0000251416;-2.6647;-5.8778;4.3383;0.3265;0.4927;-0.2128
0000251429;-3.2848;-5.5426;4.5274;0.3232;0.4425;-0.2555
0000251438;-4.0151;-5.6216;4.9033;0.3138;0.3628;-0.2952
0000251450;-3.9480;-5.3056;4.7740;0.3250;0.2499;-0.3653
0000251459;-3.8714;-5.7030;4.6017;0.3557;0.1651;-0.3877
0000251472;-3.3423;-5.6360;4.5849;0.4096;0.0663;-0.3974
0000251481;-3.0526;-5.6575;4.4508;0.4441;0.0012;-0.3856
0000251493;-2.8228;-5.7006;4.5274;0.4971;-0.0373;-0.3592
0000251502;-2.7821;-5.5881;4.5250;0.5339;-0.0585;-0.3352
0000251511;-2.8874;-5.6144;4.5562;0.5625;-0.1007;-0.3202
0000251524;-2.7581;-5.2744;4.7836;0.5922;-0.1620;-0.3227
0000251533;-2.7605;-5.2433;4.8794;0.5974;-0.1735;-0.3244
0000251545;-2.3774;-5.0757;4.8483;0.6117;-0.1608;-0.3263
0000251554;-2.2098;-4.9488;4.8219;0.6211;-0.1339;-0.3312
0000251567;-2.2122;-4.9799;4.8722;0.6234;-0.0762;-0.3440
0000251576;-2.1237;-5.0422;4.6040;0.6189;-0.0273;-0.3710
0000251588;-2.3511;-5.3032;4.3574;0.6275;0.0012;-0.3814
0000251597;-2.6097;-5.5043;4.1228;0.6195;-0.0103;-0.3616
0000251664;-2.3511;-4.4700;4.4772;0.3679;-0.3513;-0.1412
0000251673;-2.0734;-4.5250;4.3431;0.3220;-0.3920;-0.1146
0000251682;-1.8723;-4.4412;4.1946;0.2983;-0.4108;-0.0991
0000251694;-1.8220;-4.5179;4.1659;0.2806;-0.4203;-0.0678
0000251703;-1.7454;-4.6448;4.1659;0.2598;-0.4226;-0.0493
0000251716;-1.6735;-4.9584;4.0079;0.2320;-0.4822;-0.0377
0000251725;-1.6424;-5.0087;4.1563;0.2225;-0.5091;-0.0240
0000251737;-1.3719;-5.0374;4.2689;0.2300;-0.5216;-0.0242
0000251746;-1.4222;-4.8602;4.3981;0.2395;-0.5216;-0.0187
0000251759;-1.2546;-4.6304;4.4412;0.2229;-0.5091;-0.0380
0000251768;-0.8763;-4.4748;4.4125;0.2020;-0.4614;-0.0510
0000251780;-1.0271;-4.4652;4.6471;0.1947;-0.4001;-0.0911
0000251789;-1.1492;-4.4005;4.7381;0.1547;-0.3525;-0.1203
0000251798;-1.3264;-4.2162;4.8219;0.1127;-0.3098;-0.1660
0000251811;-1.4629;-4.2329;4.7501;0.0648;-0.1997;-0.1928
0000251820;-1.6472;-4.3838;4.6902;0.0406;-0.1280;-0.1989
0000251832;-1.7621;-4.6902;4.4436;0.0141;-0.0686;-0.2118
0000251841;-1.7430;-4.9440;4.4101;-0.0028;-0.0691;-0.2390
0000251854;-1.5658;-5.1044;4.5681;-0.0230;-0.0517;-0.2703
0000251863;-1.4820;-5.2481;4.3886;-0.0249;-0.0211;-0.2932
0000251875;-1.4389;-5.2050;4.2952;-0.0340;0.0171;-0.3154
0000251884;-1.3886;-5.0661;4.2497;-0.0569;0.0493;-0.3054
0000251951;-2.7605;-5.2481;5.3151;-0.1527;-0.0264;-0.2154
0000251960;-2.9425;-5.8107;5.5522;-0.0957;-0.0589;-0.1936
0000251969;-2.6336;-5.8778;5.6790;-0.0189;-0.0901;-0.1490
0000251981;-2.6935;-6.2058;5.6168;0.0817;-0.1633;-0.0965
0000251990;-2.4804;-6.1268;5.7988;0.1648;-0.2413;-0.0433
0000252003;-2.7150;-6.5362;5.9520;0.2802;-0.3332;0.0236
0000252012;-3.1532;-6.9911;6.0669;0.3532;-0.3740;0.0967
0000252024;-3.5602;-8.0110;5.6383;0.4543;-0.4359;0.2773
0000252033;-3.4189;-8.2983;5.2505;0.5105;-0.4579;0.4297
0000252046;-1.8986;-7.5609;4.8243;0.5145;-0.3933;0.6041
0000252055;0.0000;-6.2130;4.6735;0.5011;-0.3420;0.6864
0000252064;1.4940;-4.9440;4.6687;0.4567;-0.2124;0.6992
0000252076;2.0662;-3.4596;4.5203;0.3174;0.0313;0.6532
0000252085;2.1835;-2.5953;4.4388;0.1829;0.1811;0.6129
0000252098;1.4030;-2.3703;4.3574;-0.0333;0.3284;0.6023
0000252107;0.2035;-3.4644;4.4508;-0.1587;0.3801;0.6159
0000252119;-1.4126;-4.6687;4.4819;-0.2583;0.4742;0.6655
0000252128;-2.4445;-5.4229;4.2258;-0.2743;0.5201;0.7182
0000252141;-3.8092;-6.5888;3.9792;-0.2434;0.4667;0.8372
0000252150;-4.3527;-7.0964;3.7158;-0.1964;0.3796;0.9121
0000252159;-4.6735;-7.0820;3.5386;-0.1568;0.2718;0.9320
0000252171;-4.6735;-6.8259;3.8666;-0.1466;0.1390;0.8406
0000252180;-4.0223;-6.3877;4.1444;-0.1537;0.0063;0.7353
0000252245;-2.8994;-6.4284;4.1563;-0.0613;-0.1306;0.3702
0000252254;-3.0909;-5.7940;4.2138;-0.0669;-0.1268;0.3059
0000252265;-3.5506;-5.0494;4.5442;-0.1323;-0.1607;0.2306
0000252274;-3.7924;-4.3742;4.8578;-0.2376;-0.2030;0.1919
0000252288;-3.6990;-3.5075;4.9632;-0.4138;-0.3070;0.1897
0000252297;-3.1843;-3.6416;4.9321;-0.5241;-0.3167;0.1956
0000252306;-2.5355;-4.3407;5.0159;-0.6350;-0.2685;0.2053
0000252319;-2.1955;-5.4923;5.0422;-0.7537;-0.1808;0.2078
0000252328;-1.7549;-5.9687;4.9201;-0.7851;-0.0910;0.2216
0000252340;-1.6879;-6.5625;4.7788;-0.7699;0.0145;0.2196
0000252349;-1.4581;-6.7205;4.6950;-0.7494;0.0843;0.1953
0000252362;-1.6137;-6.8857;4.4149;-0.6885;0.1900;0.1300
0000252371;-1.9369;-7.0198;4.5801;-0.6275;0.2376;0.0765
0000252383;-2.1284;-7.0342;4.1755;-0.5253;0.2855;0.0096
0000252392;-2.5187;-7.3191;3.9433;-0.4377;0.2956;-0.0112
0000252405;-2.7892;-7.4747;4.2377;-0.3215;0.2951;-0.0711
0000252414;-2.7438;-7.2760;4.1803;-0.2510;0.2494;-0.1123
0000252423;-2.9281;-7.5106;3.9672;-0.1791;0.2065;-0.1262
0000252435;-2.5235;-7.1275;3.9816;-0.0790;0.1358;-0.1226
0000252444;-2.3822;-7.0820;4.0821;-0.0064;0.1170;-0.1208
0000252457;-2.1500;-6.7900;3.8810;0.0990;0.1295;-0.1286
0000252466;-2.2362;-6.5625;3.8595;0.1727;0.1372;-0.1407
0000252534;-2.8228;-5.4492;4.0989;0.3592;-0.0492;-0.1374
0000252543;-2.5355;-5.4109;4.1683;0.3676;-0.0546;-0.1584
0000252556;-2.2386;-5.3846;4.1276;0.3685;-0.0248;-0.1788
0000252565;-2.3008;-5.3965;4.0558;0.3692;-0.0028;-0.2012
0000252577;-2.3822;-5.2768;4.0510;0.3645;0.0240;-0.2157
0000252586;-2.4995;-4.9488;4.0534;0.3597;0.0184;-0.2056
0000252595;-2.8491;-4.9656;4.0270;0.3359;0.0326;-0.2260
0000252608;-3.2753;-4.9273;4.1946;0.2844;0.0262;-0.2438
0000252617;-3.2609;-4.6567;4.2258;0.2518;0.0008;-0.2553
0000252629;-3.0622;-4.6232;4.1492;0.2045;0.0049;-0.2862
0000252638;-2.7102;-4.7645;4.1204;0.1721;0.0322;-0.2911
0000252651;-2.5977;-5.1451;3.8642;0.1639;0.0449;-0.3128
0000252660;-2.4924;-5.6192;3.8235;0.1891;0.0333;-0.3210
0000252672;-2.4660;-6.1316;3.7757;0.2427;0.0160;-0.3256
0000252681;-2.1739;-6.0262;3.7350;0.2831;0.0117;-0.3360
0000252690;-2.3367;-6.2824;3.7134;0.3196;0.0052;-0.3448
0000252703;-2.3727;-6.0382;4.0366;0.3473;0.0077;-0.3607
0000252712;-2.2936;-5.6144;3.9480;0.3543;0.0039;-0.3397
0000252724;-2.3272;-5.3654;3.9480;0.3392;0.0067;-0.3138
0000252733;-2.5091;-5.0853;4.1899;0.3196;-0.0176;-0.2876
0000252746;-2.5379;-5.0326;4.1946;0.2561;-0.0394;-0.2320
0000252755;-2.4636;-4.9656;4.2545;0.2062;-0.0573;-0.1992
0000252823;-2.4110;-5.7221;4.0941;0.0191;-0.0193;-0.0226
0000252832;-2.4062;-5.7102;4.1084;0.0257;-0.0036;-0.0212
0000252841;-2.6145;-5.8514;4.0869;0.0368;0.0019;-0.0273
0000252854;-2.8659;-5.8993;4.1755;0.0513;-0.0115;-0.0413
0000252863;-2.9904;-5.8203;4.2473;0.0562;-0.0289;-0.0524
0000252875;-2.8515;-5.5210;4.1731;0.0505;-0.0553;-0.0610
0000252884;-2.9473;-5.5689;4.2210;0.0489;-0.0713;-0.0690
0000252897;-2.8754;-5.5833;4.3981;0.0317;-0.0826;-0.0718
0000252906;-2.6121;-5.3846;4.3024;0.0131;-0.0842;-0.0679
0000252918;-2.7294;-5.4588;4.2856;-0.0085;-0.0782;-0.0697
0000252927;-2.6743;-5.4731;4.3024;-0.0188;-0.0817;-0.0761
0000252940;-2.7605;-5.6814;4.3000;-0.0314;-0.0834;-0.0755
0000252949;-2.3990;-5.5186;4.4005;-0.0350;-0.0827;-0.0801
0000252958;-2.4780;-5.6527;4.4484;-0.0369;-0.0851;-0.0877
0000252970;-2.7007;-5.7221;4.3622;-0.0421;-0.1065;-0.0985
0000252979;-2.7174;-5.8945;4.3838;-0.0596;-0.1061;-0.0993
0000252992;-2.6073;-5.8993;4.4077;-0.0658;-0.0893;-0.1027
0000253001;-2.5714;-5.8921;4.4221;-0.0667;-0.0714;-0.1029
0000253013;-2.1332;-5.7485;4.3551;-0.0785;-0.0501;-0.1003
0000253022;-2.0877;-5.8514;4.2569;-0.0773;-0.0374;-0.1027
0000253035;-2.2075;-5.9161;4.2042;-0.0706;-0.0091;-0.0859
0000253044;-2.4229;-6.1363;4.1037;-0.0562;0.0136;-0.0825
0000253112;-2.2673;-6.1172;4.0749;0.1500;0.0977;-0.1695
0000253121;-2.2314;-6.1459;4.0055;0.1860;0.0841;-0.1723
0000253130;-2.1835;-6.1746;4.1420;0.2061;0.0799;-0.1627
0000253143;-2.3703;-6.2058;4.1515;0.2354;0.0621;-0.1422
0000253152;-2.3798;-5.9520;4.2593;0.2365;0.0659;-0.1238
0000253164;-2.7438;-5.6599;4.4484;0.2321;0.0494;-0.1007
0000253173;-2.7126;-5.0973;4.5322;0.2241;0.0133;-0.0911
0000253186;-2.7988;-4.5346;4.5298;0.1848;-0.0260;-0.0901
0000253195;-2.8922;-4.4029;4.7214;0.1332;-0.0361;-0.0973
0000253207;-2.8539;-4.2425;4.8100;0.0766;-0.0357;-0.0951
0000253216;-2.8419;-4.4197;4.8554;0.0196;-0.0667;-0.0987
0000253229;-2.6456;-4.8937;4.8219;-0.0762;-0.0986;-0.0993
0000253238;-2.1021;-5.1020;4.7070;-0.1114;-0.1422;-0.0842
0000253247;-1.8076;-5.2696;4.6711;-0.1180;-0.1502;-0.0306
0000253259;-1.9872;-5.2840;4.7621;-0.1447;-0.0786;0.0071
0000253268;-1.7741;-5.4277;4.7764;-0.1520;-0.0885;0.0254
0000253281;-1.8794;-5.6767;4.5993;-0.1535;-0.0866;0.0397
0000253290;-2.0279;-5.7676;4.6998;-0.1456;-0.0865;0.0397
0000253302;-2.0518;-5.7988;4.6735;-0.1344;-0.0654;0.0437
0000253311;-2.1093;-5.9687;4.6352;-0.1219;-0.0661;0.0465
0000253324;-2.0470;-5.8634;4.6040;-0.0994;-0.0613;0.0501
0000253333;-2.0494;-5.8155;4.5466;-0.0798;-0.0513;0.0597
0000253401;-2.3415;-5.5833;4.2018;0.0450;-0.0029;0.0373
0000253410;-2.3894;-5.5785;4.1539;0.0458;0.0149;0.0280
0000253419;-2.3703;-5.4971;4.2186;0.0484;0.0181;0.0168
0000253432;-2.7533;-5.4540;4.1779;0.0474;0.0349;0.0256
0000253441;-2.7031;-5.3319;4.2641;0.0396;0.0301;0.0131
0000253453;-2.5474;-5.2074;4.2497;0.0240;0.0108;0.0167
0000253462;-2.5594;-5.1643;4.2353;0.0091;0.0141;0.0047
0000253475;-2.6312;-5.4636;4.0749;-0.0048;0.0035;-0.0017
0000253484;-2.7581;-5.5952;4.1803;-0.0254;-0.0053;-0.0027
0000253496;-2.5881;-5.3870;4.1827;-0.0414;-0.0089;0.0019
0000253505;-2.6073;-5.3917;4.0821;-0.0464;-0.0177;-0.0053
0000253514;-2.5809;-5.4205;4.1755;-0.0609;-0.0237;0.0113
0000253527;-2.6217;-5.5569;4.2282;-0.0734;-0.0260;0.0188
0000253536;-2.7390;-5.5450;4.2018;-0.0855;-0.0301;0.0316
0000253548;-2.4995;-5.3582;4.2306;-0.0981;-0.0350;0.0308
0000253557;-2.4804;-5.3032;4.1851;-0.0989;-0.0542;0.0282
0000253570;-2.4900;-5.5761;4.1970;-0.1010;-0.0742;0.0312
0000253579;-2.4900;-5.5785;4.3287;-0.0986;-0.0806;0.0288
0000253591;-2.4110;-5.5689;4.2473;-0.1051;-0.0742;0.0397
0000253600;-2.1644;-5.4085;4.3694;-0.1043;-0.0827;0.0438
0000253613;-2.3104;-5.4133;4.2808;-0.1001;-0.0669;0.0398
0000253622;-2.4445;-5.6000;4.3048;-0.1092;-0.0675;0.0362
0000253631;-2.5570;-5.4229;4.3167;-0.1119;-0.0707;0.0361
0000253698;-2.2817;-5.7461;4.4221;-0.0934;-0.0394;0.0264
