time;acc_x;acc_y;acc_z;gyro_x;gyro_y;gyro_z
0000562133;5.9065;-15.2271;4.4149;0.0160;-0.0318;-0.0093
0000562141;5.8826;-15.1553;4.3718;0.0149;-0.0298;-0.0076
0000562148;5.9424;-15.2678;4.3335;0.0268;-0.0380;-0.0123
0000562156;6.0047;-15.0978;4.3048;0.0218;-0.0350;-0.0048
0000562165;5.9113;-14.9925;4.5274;0.0207;-0.0324;-0.0073
0000562173;6.1387;-14.8177;4.4388;0.0220;-0.0353;-0.0107
0000562185;6.0454;-15.0332;4.3479;0.0163;-0.0354;-0.0101
0000562193;6.0549;-14.9398;4.2808;0.0056;-0.0322;-0.0033
0000562201;5.8275;-15.0093;4.3551;0.0013;-0.0342;-0.0021
0000562268;5.8275;-15.0811;4.3958;-0.0083;-0.0477;-0.0067
0000562276;6.0238;-14.8895;4.4556;-0.0083;-0.0433;-0.0065
0000562288;6.1603;-14.8895;4.4939;-0.0141;-0.0438;-0.0060
0000562296;6.0238;-15.0523;4.5035;-0.0196;-0.0384;-0.0023
0000562307;6.0406;-15.0571;4.4580;-0.0097;-0.0469;-0.0183
0000562315;5.9328;-14.9111;4.4005;-0.0160;-0.0420;-0.0144
0000562327;5.7652;-15.1649;4.4724;-0.0246;-0.0420;-0.0175
0000562335;6.0047;-14.9925;4.4005;-0.0244;-0.0420;-0.0168
0000562346;5.8658;-15.0691;4.4197;-0.0284;-0.0436;-0.0108
0000562354;6.0071;-14.9063;4.4436;-0.0336;-0.0385;-0.0127
0000562366;6.0813;-14.8776;4.3622;-0.0393;-0.0350;-0.0089
0000562374;6.1699;-14.9231;4.3742;-0.0432;-0.0376;-0.0121
0000562382;6.0334;-14.8560;4.4221;-0.0465;-0.0308;-0.0069
0000562393;5.9185;-14.9470;4.5562;-0.0509;-0.0261;-0.0044
0000562401;5.9807;-15.0236;4.4867;-0.0482;-0.0314;-0.0152
0000562413;5.8179;-15.0476;4.4724;-0.0505;-0.0357;-0.0199
0000562421;5.8993;-15.0595;4.4388;-0.0521;-0.0352;-0.0168
0000562432;6.0956;-15.0188;4.4532;-0.0556;-0.0389;-0.0199
0000562440;6.0765;-14.9805;4.3646;-0.0554;-0.0370;-0.0240
0000562452;6.1052;-15.0619;4.4365;-0.0646;-0.0302;-0.0157
0000562460;6.1028;-15.0332;4.4005;-0.0636;-0.0294;-0.0183
0000562527;6.0861;-14.9326;4.2976;-0.0560;-0.0468;-0.0209
0000562535;6.1004;-15.0978;4.4005;-0.0576;-0.0448;-0.0129
0000562547;6.0525;-14.9614;4.3910;-0.0612;-0.0432;-0.0093
0000562555;5.8897;-15.2989;4.3263;-0.0598;-0.0388;-0.0052
0000562563;6.1028;-15.1266;4.2138;-0.0600;-0.0321;0.0008
0000562574;6.0382;-15.0595;4.2377;-0.0509;-0.0354;-0.0055
0000562582;6.0190;-15.1505;4.2760;-0.0582;-0.0260;-0.0023
0000562594;6.2369;-14.9781;4.2545;-0.0526;-0.0240;-0.0111
0000562602;5.9783;-15.0571;4.4125;-0.0592;-0.0289;-0.0156
0000562613;6.1172;-14.9901;4.3263;-0.0713;-0.0233;-0.0157
0000562621;6.0334;-15.0619;4.3527;-0.0777;-0.0237;-0.0144
0000562633;6.1028;-15.0500;4.2880;-0.0770;-0.0241;-0.0183
0000562641;6.1172;-15.0236;4.2880;-0.0763;-0.0232;-0.0164
0000562652;5.9592;-15.1385;4.3551;-0.0641;-0.0278;-0.0191
0000562660;6.0094;-15.1026;4.3120;-0.0580;-0.0333;-0.0215
0000562672;5.8682;-15.2798;4.4125;-0.0425;-0.0406;-0.0132
0000562680;5.7940;-15.2295;4.4053;-0.0450;-0.0413;-0.0041
0000562688;5.8538;-15.1529;4.3048;-0.0344;-0.0549;0.0001
0000562699;6.1004;-15.0619;4.2641;-0.0245;-0.0690;0.0079
0000562707;6.0382;-15.2822;4.2497;-0.0204;-0.0636;0.0151
0000562719;5.9328;-15.3325;4.3167;-0.0211;-0.0573;0.0104
0000562727;6.1100;-15.1242;4.2760;-0.0093;-0.0548;0.0103
0000562795;5.9783;-15.1409;4.1994;-0.0063;-0.0270;-0.0061
0000562803;6.0094;-15.2559;4.1468;-0.0121;-0.0266;-0.0143
0000562815;6.0693;-15.1361;4.1396;-0.0153;-0.0269;-0.0176
0000562823;5.9879;-15.1242;4.1013;-0.0173;-0.0362;-0.0201
0000562835;6.0573;-15.0452;4.1875;-0.0302;-0.0288;-0.0163
0000562842;5.8873;-15.2295;4.1084;-0.0345;-0.0316;-0.0197
0000562850;6.0813;-15.2128;4.0725;-0.0381;-0.0264;-0.0224
0000562862;6.0908;-15.2152;4.2928;-0.0329;-0.0230;-0.0226
0000562870;5.9376;-15.2056;4.2425;-0.0285;-0.0147;-0.0187
0000562881;6.1459;-15.1218;4.1851;-0.0201;-0.0195;-0.0220
0000562889;5.9759;-15.1840;4.3574;-0.0157;-0.0204;-0.0207
0000562901;5.9209;-15.1697;4.2713;-0.0132;-0.0191;-0.0188
0000562909;5.9975;-15.0164;4.3263;-0.0124;-0.0180;-0.0188
0000562920;5.9927;-15.1290;4.3263;-0.0173;-0.0225;-0.0172
0000562928;5.8969;-15.0619;4.3958;-0.0104;-0.0298;-0.0221
0000562940;5.8706;-14.9542;4.3742;-0.0081;-0.0265;-0.0188
0000562948;5.7964;-15.0500;4.4053;-0.0108;-0.0240;-0.0205
0000562959;5.8538;-14.9183;4.4341;-0.0168;-0.0245;-0.0173
0000562967;5.9831;-14.9781;4.3790;-0.0127;-0.0284;-0.0191
0000562975;5.9041;-14.9255;4.4628;-0.0163;-0.0297;-0.0140
0000562987;5.9472;-14.9015;4.4005;-0.0144;-0.0282;-0.0097
0000562995;6.0549;-14.9087;4.3646;-0.0092;-0.0361;-0.0103
0000563063;5.9807;-15.1290;4.4197;-0.0071;-0.0482;-0.0127
0000563071;5.9592;-15.0883;4.3622;-0.0093;-0.0436;-0.0075
0000563083;5.9328;-15.1457;4.2856;-0.0027;-0.0473;-0.0123
0000563091;5.9879;-15.2654;4.3838;-0.0039;-0.0414;-0.0075
0000563102;6.1579;-15.1266;4.2593;-0.0060;-0.0390;-0.0093
0000563110;6.1842;-15.0452;4.2545;-0.0088;-0.0298;-0.0081
0000563122;6.1100;-15.0356;4.3215;-0.0100;-0.0308;-0.0139
0000563130;6.1531;-14.9949;4.2162;-0.0107;-0.0265;-0.0117
0000563141;6.1411;-15.2774;4.1755;-0.0084;-0.0253;-0.0135
0000563149;6.1148;-15.1433;4.2186;-0.0095;-0.0209;-0.0067
0000563157;5.9855;-15.2726;4.0797;-0.0055;-0.0193;-0.0073
0000563169;6.0956;-15.3157;4.2186;0.0011;-0.0171;-0.0077
0000563177;5.8945;-15.4115;4.1994;0.0112;-0.0268;-0.0051
0000563188;5.9137;-15.3492;4.2018;0.0164;-0.0320;-0.0080
0000563196;5.9233;-15.2870;4.1396;0.0240;-0.0393;-0.0139
0000563208;5.8778;-15.3756;4.1132;0.0296;-0.0402;-0.0195
0000563216;5.8610;-15.3827;4.2784;0.0329;-0.0380;-0.0149
0000563227;5.9568;-15.2104;4.2689;0.0297;-0.0350;-0.0109
0000563235;5.8514;-15.2367;4.1994;0.0301;-0.0380;-0.0132
0000563247;6.0980;-15.0404;4.1970;0.0201;-0.0297;-0.0112
0000563255;5.7964;-15.1409;4.2042;0.0145;-0.0229;-0.0112
0000563263;6.0023;-15.1529;4.2737;0.0184;-0.0290;-0.0143
0000563331;5.9304;-15.0954;4.4365;0.0440;-0.0356;-0.0088
0000563339;6.0190;-15.1912;4.3886;0.0496;-0.0378;-0.0107
0000563351;6.0286;-15.0715;4.5203;0.0524;-0.0353;-0.0053
0000563359;5.9640;-15.0428;4.3694;0.0473;-0.0294;-0.0005
0000563370;6.0310;-14.9542;4.3646;0.0544;-0.0357;-0.0067
0000563378;6.0525;-14.8441;4.3934;0.0396;-0.0342;-0.0057
0000563390;6.1316;-14.9015;4.4604;0.0378;-0.0337;-0.0116
0000563398;5.9352;-15.0236;4.3167;0.0433;-0.0408;-0.0155
0000563409;5.9568;-15.1242;4.4412;0.0425;-0.0420;-0.0127
0000563417;5.8610;-15.1505;4.3838;0.0406;-0.0384;-0.0079
0000563425;5.8945;-14.9877;4.4796;0.0360;-0.0428;-0.0052
0000563437;6.0669;-15.0045;4.4700;0.0317;-0.0382;-0.0060
0000563445;6.0597;-14.9925;4.4269;0.0372;-0.0382;-0.0081
0000563456;5.7916;-15.1433;4.4221;0.0342;-0.0428;-0.0133
0000563464;5.9089;-14.9805;4.4796;0.0316;-0.0389;-0.0073
0000563476;5.9376;-14.9398;4.5657;0.0340;-0.0378;-0.0103
0000563484;5.9137;-15.1409;4.4317;0.0356;-0.0442;-0.0160
0000563496;5.9328;-15.0452;4.5298;0.0316;-0.0373;-0.0093
0000563504;6.0238;-14.9518;4.5226;0.0358;-0.0410;-0.0148
0000563516;6.0094;-14.9829;4.5107;0.0298;-0.0420;-0.0195
0000563524;6.0549;-14.9925;4.4149;0.0264;-0.0398;-0.0165
0000563532;5.9017;-14.9614;4.5705;0.0256;-0.0429;-0.0213
0000563600;5.9185;-15.0619;4.4939;0.0249;-0.0328;-0.0139
0000563608;6.0094;-14.9159;4.4676;0.0185;-0.0318;-0.0096
0000563619;5.9472;-15.0093;4.4843;0.0217;-0.0360;-0.0173
0000563627;5.9831;-14.9638;4.5753;0.0147;-0.0296;-0.0108
0000563639;6.1148;-14.9255;4.5226;0.0097;-0.0280;-0.0167
0000563647;5.8371;-15.1385;4.5179;0.0087;-0.0290;-0.0192
0000563658;5.9280;-15.0571;4.3910;0.0052;-0.0257;-0.0161
0000563666;6.0262;-14.9590;4.4436;0.0037;-0.0325;-0.0180
0000563674;6.0334;-15.0045;4.5203;0.0097;-0.0304;-0.0199
0000563686;5.9137;-14.9901;4.4341;0.0064;-0.0321;-0.0205
0000563694;5.9903;-14.9231;4.5226;0.0019;-0.0264;-0.0121
0000563705;6.0741;-14.9662;4.5322;0.0065;-0.0341;-0.0177
0000563713;6.2489;-14.8010;4.5394;-0.0008;-0.0273;-0.0127
0000563725;6.1028;-14.9518;4.5274;0.0055;-0.0362;-0.0192
0000563733;6.1459;-14.9015;4.4819;0.0089;-0.0397;-0.0205
0000563744;6.0214;-15.0093;4.5514;0.0043;-0.0344;-0.0195
0000563752;6.1076;-14.8848;4.4700;0.0008;-0.0340;-0.0099
0000563764;5.9496;-14.9015;4.5753;-0.0025;-0.0360;-0.0157
0000563772;6.0406;-14.8536;4.4915;-0.0028;-0.0298;-0.0096
0000563784;6.0956;-14.7962;4.4700;-0.0088;-0.0278;-0.0064
0000563792;6.1004;-14.9374;4.5873;-0.0057;-0.0318;-0.0043
0000563800;6.0214;-14.9829;4.5131;-0.0091;-0.0324;-0.0120
0000563869;5.9400;-15.0212;4.4796;-0.0159;-0.0344;-0.0103
0000563877;5.8945;-15.0500;4.5035;-0.0101;-0.0320;-0.0159
0000563888;6.1339;-14.9231;4.5155;-0.0109;-0.0366;-0.0125
0000563896;6.1196;-14.8632;4.5011;-0.0075;-0.0376;-0.0141
0000563908;6.1507;-14.9015;4.5322;-0.0091;-0.0390;-0.0115
0000563916;6.2393;-14.8225;4.4508;-0.0088;-0.0341;-0.0100
0000563927;5.9113;-15.0284;4.5993;-0.0145;-0.0376;-0.0081
0000563935;5.8921;-15.0188;4.5562;-0.0168;-0.0325;-0.0075
0000563947;6.0382;-14.9446;4.5873;-0.0163;-0.0378;-0.0100
0000563955;6.0023;-15.0523;4.5226;-0.0216;-0.0370;-0.0095
0000563963;6.0310;-14.9446;4.4532;-0.0171;-0.0405;-0.0141
0000563974;6.0765;-14.9638;4.4939;-0.0196;-0.0364;-0.0084
0000563982;5.9280;-14.9997;4.5226;-0.0096;-0.0397;-0.0133
0000563994;6.1459;-15.1242;4.5059;-0.0157;-0.0326;-0.0067
0000564002;6.2058;-14.8177;4.4963;-0.0165;-0.0337;-0.0140
0000564013;5.9807;-15.0715;4.5131;-0.0200;-0.0298;-0.0101
0000564021;5.9759;-14.9087;4.5562;-0.0156;-0.0280;-0.0157
0000564033;6.0094;-14.9709;4.5274;-0.0137;-0.0341;-0.0164
0000564041;5.9448;-14.9829;4.4580;-0.0217;-0.0282;-0.0127
0000564109;5.9328;-14.9542;4.4388;-0.0221;-0.0282;-0.0067
0000564117;5.9256;-15.0308;4.5203;-0.0222;-0.0376;-0.0116
0000564129;6.0741;-14.9685;4.5562;-0.0200;-0.0366;-0.0176
0000564137;5.9185;-15.0093;4.5274;-0.0099;-0.0385;-0.0183
0000564145;6.0047;-14.9949;4.5035;-0.0125;-0.0361;-0.0124
0000564156;5.9735;-15.0021;4.5490;-0.0104;-0.0346;-0.0105
0000564164;6.0908;-14.9757;4.5394;-0.0051;-0.0357;-0.0169
0000564176;5.9376;-15.0212;4.4843;-0.0053;-0.0386;-0.0152
0000564184;5.9113;-15.0835;4.5657;-0.0149;-0.0370;-0.0128
0000564195;5.9328;-15.0523;4.5418;-0.0111;-0.0408;-0.0191
0000564203;6.1100;-14.9302;4.4532;-0.0163;-0.0388;-0.0141
0000564215;5.9759;-14.9949;4.4460;-0.0160;-0.0344;-0.0143
0000564223;6.0334;-15.0643;4.4293;-0.0222;-0.0356;-0.0084
0000564234;5.9592;-15.0428;4.6208;-0.0148;-0.0357;-0.0092
0000564242;5.9137;-15.0452;4.5370;-0.0188;-0.0344;-0.0081
0000564254;5.9304;-15.0260;4.5514;-0.0131;-0.0334;-0.0089
0000564262;5.9687;-14.9542;4.4365;-0.0055;-0.0444;-0.0131
0000564270;5.8921;-15.0619;4.5083;-0.0100;-0.0380;-0.0092
0000564281;6.0645;-15.0093;4.5681;-0.0073;-0.0416;-0.0112
0000564289;6.1220;-14.9135;4.5370;-0.0121;-0.0382;-0.0072
0000564301;6.1028;-14.9207;4.4556;-0.0163;-0.0366;-0.0107
0000564309;6.0286;-15.0667;4.5059;-0.0137;-0.0358;-0.0167
0000564373;5.9352;-15.0739;4.5681;-0.0099;-0.0272;-0.0100
0000564381;5.9376;-15.0452;4.4939;-0.0132;-0.0246;-0.0052
0000564393;6.0956;-14.9063;4.5633;-0.0156;-0.0293;-0.0073
0000564401;5.9400;-14.9039;4.4077;-0.0153;-0.0309;-0.0081
0000564412;5.9783;-14.9925;4.5562;-0.0145;-0.0356;-0.0079
0000564420;6.0454;-14.8991;4.5657;-0.0203;-0.0306;-0.0067
0000564432;5.9879;-14.9494;4.5011;-0.0224;-0.0372;-0.0108
0000564440;5.9927;-14.9949;4.4484;-0.0152;-0.0390;-0.0123
0000564448;5.9304;-15.0739;4.4748;-0.0144;-0.0377;-0.0163
0000564459;6.0071;-15.1026;4.4077;-0.0143;-0.0325;-0.0065
0000564467;6.1411;-15.0212;4.5610;-0.0083;-0.0380;-0.0125
0000564479;5.9376;-15.0739;4.5370;-0.0115;-0.0313;-0.0096
0000564487;6.1555;-14.8273;4.5131;-0.0095;-0.0340;-0.0092
0000564498;5.9400;-15.0236;4.4772;-0.0165;-0.0284;-0.0113
0000564506;6.1028;-15.0116;4.5729;-0.0156;-0.0346;-0.0123
0000564518;5.8347;-15.1218;4.5897;-0.0152;-0.0368;-0.0141
0000564526;5.9017;-15.0763;4.5394;-0.0111;-0.0360;-0.0075
0000564537;5.9831;-14.9374;4.5657;-0.0095;-0.0388;-0.0137
0000564545;6.0741;-14.8536;4.5370;-0.0145;-0.0329;-0.0076
0000564557;5.8826;-15.0164;4.4556;-0.0145;-0.0356;-0.0068
0000564565;6.0166;-14.9662;4.4580;-0.0141;-0.0348;-0.0092
0000564573;6.2010;-14.9087;4.5250;-0.0144;-0.0394;-0.0115
0000564637;5.7269;-15.1122;4.4867;-0.0096;-0.0384;-0.0177
0000564645;5.9017;-15.0859;4.4412;-0.0105;-0.0342;-0.0113
0000564657;5.9520;-14.9662;4.4149;-0.0051;-0.0400;-0.0112
0000564665;5.8442;-14.9662;4.4460;-0.0069;-0.0328;-0.0087
0000564676;6.0741;-14.8943;4.3766;-0.0048;-0.0376;-0.0161
0000564684;6.0142;-14.9638;4.5873;0.0000;-0.0401;-0.0188
0000564696;6.1100;-14.8871;4.5490;-0.0055;-0.0349;-0.0171
0000564704;6.0118;-15.0428;4.5274;-0.0108;-0.0316;-0.0136
0000564715;5.8442;-15.1433;4.5610;-0.0112;-0.0324;-0.0143
0000564723;6.0837;-14.9542;4.5801;-0.0088;-0.0340;-0.0091
0000564735;6.0214;-14.9829;4.4484;-0.0079;-0.0349;-0.0095
0000564743;5.9544;-15.0069;4.4388;-0.0072;-0.0322;-0.0169
0000564751;6.1244;-14.9542;4.4628;0.0016;-0.0394;-0.0121
0000564762;5.9209;-15.0188;4.4412;-0.0033;-0.0358;-0.0121
0000564770;5.7988;-15.0763;4.5777;-0.0025;-0.0365;-0.0132
0000564782;5.9783;-14.9590;4.5011;-0.0079;-0.0304;-0.0088
0000564790;6.0980;-14.9901;4.5394;-0.0072;-0.0406;-0.0124
0000564801;5.9328;-15.0978;4.5562;-0.0153;-0.0340;-0.0127
0000564809;5.9568;-15.0547;4.5322;-0.0095;-0.0369;-0.0200
0000564821;5.9831;-15.0093;4.5346;-0.0111;-0.0334;-0.0171
0000564829;5.9879;-14.9398;4.5155;-0.0113;-0.0298;-0.0149
0000564895;5.9735;-15.0236;4.4891;-0.0039;-0.0490;-0.0136
0000564903;5.8730;-15.0691;4.5538;-0.0088;-0.0478;-0.0135
0000564914;6.0238;-14.9590;4.5298;-0.0108;-0.0456;-0.0068
0000564922;5.9903;-14.9183;4.4317;-0.0061;-0.0454;-0.0133
0000564930;5.9687;-15.1194;4.5131;-0.0064;-0.0469;-0.0127
0000564942;5.9903;-15.0907;4.5801;-0.0011;-0.0476;-0.0141
0000564950;5.9137;-15.0667;4.5418;-0.0027;-0.0437;-0.0139
0000564962;6.0573;-14.9135;4.5155;0.0037;-0.0433;-0.0160
0000564969;6.0813;-14.9302;4.5059;0.0008;-0.0408;-0.0175
0000564981;6.0621;-14.8943;4.5155;-0.0003;-0.0428;-0.0175
0000564989;6.0142;-14.9183;4.6495;-0.0081;-0.0361;-0.0136
0000565000;6.0454;-14.9781;4.5155;-0.0121;-0.0361;-0.0139
0000565008;5.8323;-15.1242;4.5083;-0.0115;-0.0382;-0.0180
0000565020;5.9640;-14.9757;4.5825;-0.0117;-0.0302;-0.0117
0000565028;6.0358;-14.8943;4.5250;-0.0085;-0.0388;-0.0156
0000565036;6.0166;-15.0093;4.4796;-0.0079;-0.0360;-0.0145
0000565047;5.9759;-15.0571;4.5203;-0.0025;-0.0390;-0.0081
0000565055;6.0908;-14.8776;4.5490;-0.0088;-0.0388;-0.0139
0000565067;5.9759;-14.9781;4.5203;0.0000;-0.0389;-0.0177
0000565075;5.9424;-15.0595;4.4963;-0.0037;-0.0430;-0.0160
0000565088;5.9951;-14.9757;4.5322;-0.0077;-0.0349;-0.0112
0000565095;5.9903;-14.8991;4.5155;-0.0044;-0.0408;-0.0167
0000565161;5.9113;-15.0763;4.5418;-0.0048;-0.0320;-0.0159
0000565169;6.1028;-14.9015;4.5370;-0.0147;-0.0274;-0.0115
0000565180;6.0142;-14.8057;4.5370;-0.0116;-0.0277;-0.0125
0000565188;5.9544;-14.9805;4.6184;-0.0124;-0.0320;-0.0143
0000565200;5.9879;-14.9326;4.5179;-0.0116;-0.0332;-0.0184
0000565208;5.9424;-15.0308;4.5777;-0.0061;-0.0358;-0.0180
0000565216;5.9328;-14.9805;4.5418;-0.0103;-0.0296;-0.0141
0000565227;5.8419;-15.1050;4.5777;-0.0111;-0.0301;-0.0141
0000565235;5.8395;-15.1577;4.5873;-0.0044;-0.0361;-0.0191
0000565247;5.9376;-15.0907;4.5801;-0.0031;-0.0330;-0.0159
0000565255;6.0549;-14.9326;4.5969;-0.0088;-0.0289;-0.0099
0000565266;6.0597;-14.9470;4.4939;-0.0053;-0.0309;-0.0133
0000565274;5.7892;-15.0476;4.4867;-0.0131;-0.0284;-0.0113
0000565286;6.1076;-14.9685;4.6208;-0.0116;-0.0297;-0.0137
0000565294;5.9783;-15.0428;4.5107;-0.0088;-0.0345;-0.0226
0000565305;6.0693;-14.9446;4.4700;-0.0167;-0.0294;-0.0168
0000565313;5.9927;-14.8776;4.5466;-0.0136;-0.0326;-0.0163
0000565325;5.9711;-15.0715;4.5849;-0.0180;-0.0320;-0.0161
0000565333;5.9927;-15.0547;4.5945;-0.0131;-0.0357;-0.0179
0000565341;6.0597;-14.9949;4.4891;-0.0147;-0.0301;-0.0073
0000565353;6.0813;-14.8967;4.6064;-0.0108;-0.0301;-0.0137
0000565361;6.0047;-14.8943;4.5322;-0.0059;-0.0352;-0.0139
0000565427;5.9903;-15.0188;4.6040;0.0051;-0.0390;-0.0128
0000565435;6.0932;-15.0595;4.5442;0.0055;-0.0352;-0.0052
0000565446;6.0621;-14.9422;4.5562;0.0097;-0.0370;-0.0095
0000565454;6.0813;-14.9374;4.5394;0.0096;-0.0316;-0.0021
0000565466;5.9496;-15.0667;4.5514;0.0129;-0.0338;-0.0080
0000565474;5.9568;-15.1074;4.5250;0.0140;-0.0329;-0.0072
0000565486;5.9640;-15.0116;4.5442;0.0143;-0.0336;-0.0080
0000565494;5.8323;-15.0691;4.5059;0.0125;-0.0308;-0.0089
0000565502;6.0214;-14.9638;4.5418;0.0175;-0.0364;-0.0176
0000565514;6.0980;-14.8656;4.4843;0.0176;-0.0388;-0.0164
0000565522;5.9209;-15.0930;4.5586;0.0213;-0.0381;-0.0133
0000565533;6.1411;-14.8536;4.5729;0.0185;-0.0404;-0.0139
0000565541;5.9783;-15.0380;4.6112;0.0196;-0.0409;-0.0061
0000565553;5.9903;-14.9997;4.5993;0.0169;-0.0386;-0.0095
0000565561;6.1148;-14.8991;4.6543;0.0238;-0.0404;-0.0136
0000565572;5.9927;-15.0859;4.5011;0.0201;-0.0374;-0.0133
0000565580;6.0238;-14.9063;4.6232;0.0203;-0.0381;-0.0132
0000565592;5.8371;-15.1625;4.6256;0.0234;-0.0377;-0.0171
0000565600;5.7868;-15.1050;4.4915;0.0292;-0.0420;-0.0205
0000565608;6.0214;-14.9518;4.6328;0.0321;-0.0377;-0.0127
0000565620;6.1196;-14.8632;4.6064;0.0369;-0.0370;-0.0113
0000565628;5.8658;-14.9997;4.6352;0.0382;-0.0349;-0.0125
0000565694;6.0525;-14.9590;4.6926;0.0681;-0.0434;-0.0183
0000565703;6.0406;-15.0308;4.7333;0.0695;-0.0370;-0.0096
0000565713;6.1459;-15.0236;4.7118;0.0783;-0.0401;-0.0152
0000565721;5.9831;-15.1290;4.6160;0.0866;-0.0357;-0.0080
0000565733;6.0741;-15.0428;4.7190;0.0966;-0.0306;-0.0167
0000565741;6.1986;-15.0356;4.7333;0.1050;-0.0278;-0.0163
0000565752;6.1699;-14.9877;4.6878;0.1143;-0.0257;-0.0185
0000565760;6.1986;-14.8680;4.6519;0.1260;-0.0236;-0.0224
0000565768;6.0549;-14.8632;4.7285;0.1247;-0.0168;-0.0233
0000565780;6.0956;-14.9494;4.7118;0.1278;-0.0169;-0.0277
0000565788;6.0813;-14.9566;4.6543;0.1347;-0.0242;-0.0344
0000565799;5.8107;-14.9685;4.7022;0.1350;-0.0188;-0.0306
0000565807;5.9065;-15.0164;4.6974;0.1414;-0.0274;-0.0372
0000565819;5.7868;-15.1840;4.6639;0.1422;-0.0284;-0.0417
0000565827;5.9209;-14.8081;4.6950;0.1432;-0.0321;-0.0344
0000565838;5.9616;-14.9662;4.8219;0.1451;-0.0320;-0.0390
0000565846;6.0693;-14.7219;4.7764;0.1459;-0.0337;-0.0362
0000565858;6.0238;-14.7746;4.7573;0.1415;-0.0301;-0.0326
0000565866;5.9137;-14.7794;4.7764;0.1364;-0.0211;-0.0226
0000565874;5.9472;-14.7914;4.6807;0.1343;-0.0201;-0.0254
0000565886;6.1339;-14.7076;4.6878;0.1335;-0.0208;-0.0325
0000565894;5.9975;-14.8297;4.7956;0.1295;-0.0081;-0.0334
0000565960;5.8083;-14.9805;4.9680;0.1757;-0.0357;-0.0304
0000565968;6.1268;-14.7148;4.9752;0.1823;-0.0406;-0.0297
0000565979;5.7916;-14.9542;4.9560;0.1749;-0.0557;-0.0249
0000565987;5.8083;-14.9087;5.0853;0.1677;-0.0645;-0.0209
0000565999;5.8059;-14.8441;5.0733;0.1605;-0.0761;-0.0201
0000566007;5.8826;-14.8871;5.1188;0.1611;-0.0851;-0.0224
0000566018;6.0765;-14.7746;5.0398;0.1685;-0.0821;-0.0187
0000566026;5.9855;-14.8201;5.1236;0.1693;-0.0779;-0.0079
0000566034;5.9089;-14.6645;5.0829;0.1640;-0.0659;-0.0064
0000566046;6.1028;-14.6765;5.0757;0.1767;-0.0554;-0.0097
0000566054;6.2465;-14.5137;5.1020;0.1796;-0.0398;-0.0088
0000566065;6.0310;-14.6669;5.1499;0.1837;-0.0268;-0.0104
0000566073;5.9855;-14.5184;5.1715;0.1945;-0.0228;-0.0204
0000566085;6.1076;-14.4682;5.2050;0.1985;-0.0135;-0.0250
0000566093;6.2225;-14.3915;5.1811;0.1881;-0.0013;-0.0208
0000566105;5.9520;-14.6286;5.3175;0.1811;0.0020;-0.0205
0000566113;6.0813;-14.5256;5.2553;0.1789;-0.0009;-0.0220
0000566121;6.0286;-14.5496;5.3989;0.1839;-0.0056;-0.0256
0000566133;5.9328;-14.6621;5.2960;0.1756;-0.0072;-0.0221
0000566141;6.1028;-14.4322;5.3079;0.1709;-0.0017;-0.0157
0000566153;6.0406;-14.4011;5.3606;0.1803;-0.0159;-0.0207
0000566161;5.9328;-14.4538;5.3056;0.1761;-0.0211;-0.0161
0000566225;5.9927;-14.5520;5.4300;0.1953;-0.0357;0.0037
0000566233;6.1220;-14.4873;5.3774;0.2005;-0.0350;0.0000
0000566245;6.0789;-14.3915;5.4300;0.2054;-0.0329;-0.0035
0000566253;5.9903;-14.4203;5.4947;0.2053;-0.0281;-0.0055
0000566265;6.0023;-14.4322;5.5641;0.1962;-0.0249;-0.0039
0000566273;6.1148;-14.2479;5.4396;0.1879;-0.0196;-0.0013
0000566281;5.8682;-14.3892;5.4708;0.1805;-0.0261;-0.0081
0000566293;5.9472;-14.2838;5.4396;0.1739;-0.0221;-0.0048
0000566301;5.9807;-14.3437;5.5091;0.1748;-0.0177;-0.0017
0000566313;5.9113;-14.4275;5.5450;0.1708;-0.0125;-0.0008
0000566321;5.9400;-14.3173;5.4779;0.1723;-0.0031;0.0007
0000566333;6.2608;-14.1210;5.4827;0.1768;-0.0039;-0.0057
0000566341;6.0190;-14.2838;5.5761;0.1592;0.0104;-0.0060
0000566353;6.1770;-14.1928;5.5857;0.1462;0.0173;-0.0053
0000566361;6.0214;-14.3269;5.4947;0.1391;0.0224;-0.0025
0000566369;5.9999;-14.2623;5.5067;0.1384;0.0265;-0.0031
0000566381;6.1411;-14.0923;5.5976;0.1427;0.0280;-0.0019
0000566389;6.0980;-14.0779;5.6527;0.1376;0.0313;0.0080
0000566401;5.8227;-14.2192;5.6695;0.1348;0.0262;0.0064
0000566409;5.8419;-14.1761;5.5330;0.1334;0.0213;0.0052
0000566421;5.8634;-14.0061;5.6599;0.1179;0.0067;0.0036
0000566429;5.8538;-14.0923;5.7461;0.1070;0.0068;0.0103
0000566497;6.0382;-14.1737;5.8490;0.1676;-0.0289;0.0185
0000566505;5.9879;-14.3077;5.9352;0.1617;-0.0201;0.0177
0000566513;5.9424;-14.3628;5.9496;0.1595;-0.0205;0.0151
0000566525;6.0142;-14.5879;6.0310;0.1828;-0.0109;0.0250
0000566533;5.9065;-14.5903;5.9041;0.2077;-0.0143;0.0189
0000566545;6.0430;-14.3892;5.9783;0.2322;-0.0048;0.0224
0000566553;5.9640;-14.2527;5.9328;0.2423;-0.0027;0.0149
0000566565;6.0885;-13.9773;5.6527;0.2220;0.0071;0.0176
0000566573;6.1986;-13.8792;5.7078;0.2022;0.0180;0.0208
0000566585;5.9185;-14.1737;5.8251;0.1847;0.0274;0.0145
0000566593;6.0118;-13.9797;5.7461;0.1833;0.0321;0.0141
0000566601;5.7509;-14.1521;5.7437;0.1804;0.0376;0.0127
0000566613;5.7820;-13.8768;5.8107;0.1835;0.0254;0.0003
0000566621;5.7365;-13.8552;5.7317;0.1708;0.0296;-0.0007
0000566633;5.8107;-13.6829;5.7341;0.1443;0.0257;-0.0056
0000566641;5.8203;-13.8840;5.6144;0.1231;0.0233;-0.0011
0000566653;5.8203;-14.1282;5.6838;0.1234;0.0329;0.0051
0000566661;5.7604;-14.3101;5.7054;0.1280;0.0320;0.0055
0000566673;5.6838;-14.4514;6.0023;0.1621;0.0388;0.0139
0000566681;5.5426;-14.4993;6.0693;0.1936;0.0404;0.0009
0000566689;5.6934;-14.3485;6.1076;0.2230;0.0244;-0.0099
0000566701;5.6719;-14.1090;6.2249;0.2534;0.0168;-0.0238
0000566709;5.8107;-13.9965;6.1866;0.2558;0.0159;-0.0191
0000566777;5.6862;-14.1138;6.3398;0.2719;-0.0505;0.0151
0000566785;5.8873;-14.0468;6.1627;0.2815;-0.0610;0.0127
0000566797;5.8347;-14.1402;6.2560;0.2891;-0.0686;0.0175
0000566805;5.9161;-14.1138;6.2177;0.2923;-0.0675;0.0211
0000566817;5.9855;-14.0324;6.3087;0.2911;-0.0577;0.0284
0000566825;5.9185;-13.8840;6.2848;0.2872;-0.0532;0.0357
0000566833;5.9807;-13.8864;6.3614;0.2928;-0.0525;0.0254
0000566845;5.9017;-13.9103;6.3207;0.2802;-0.0481;0.0248
0000566853;5.7509;-14.0564;6.3686;0.2779;-0.0510;0.0179
0000566865;5.7724;-14.2144;6.4931;0.2805;-0.0557;0.0211
0000566873;6.1148;-14.0971;6.4452;0.2863;-0.0554;0.0294
0000566885;5.7796;-14.2407;6.3805;0.3015;-0.0494;0.0353
0000566893;5.9759;-14.0133;6.4476;0.3119;-0.0508;0.0416
0000566905;5.8658;-13.8983;6.4428;0.3200;-0.0558;0.0414
0000566913;5.7796;-13.8481;6.3901;0.3212;-0.0650;0.0374
0000566921;5.7245;-13.6326;6.4931;0.3095;-0.0718;0.0360
0000566933;5.5545;-13.7379;6.4380;0.2948;-0.0906;0.0238
0000566941;5.4013;-13.8074;6.4404;0.2842;-0.1112;0.0127
0000566953;5.4995;-13.8241;6.4428;0.2619;-0.1287;0.0113
0000566961;5.4612;-13.9678;6.4572;0.2703;-0.1412;0.0044
0000566973;5.5713;-13.9055;6.3638;0.2665;-0.1418;0.0052
0000566981;5.8347;-13.8576;6.5266;0.2734;-0.1338;-0.0024
0000567048;5.7820;-13.7667;6.9097;0.3515;-0.0389;0.0147
0000567056;5.7126;-13.8122;7.0102;0.3599;-0.0304;0.0212
0000567064;5.5857;-13.8265;7.1658;0.3737;-0.0266;0.0163
0000567076;5.4229;-14.0875;7.3143;0.4001;-0.0325;0.0104
0000567084;5.2457;-14.1497;7.4747;0.4211;-0.0366;-0.0013
0000567096;5.3917;-14.2575;7.4555;0.4506;-0.0452;-0.0232
0000567104;5.4013;-14.4466;7.5274;0.4604;-0.0486;-0.0442
0000567116;5.5569;-14.2479;7.5441;0.4791;-0.0606;-0.0703
0000567124;5.6910;-14.2287;7.4484;0.4890;-0.0702;-0.0870
0000567136;5.9161;-14.0779;7.3119;0.4855;-0.0654;-0.0857
0000567145;5.9113;-13.8840;7.2472;0.4848;-0.0705;-0.0842
0000567154;5.9783;-13.6781;7.1371;0.4782;-0.0556;-0.0620
0000567167;5.7317;-13.5751;7.1395;0.4727;-0.0556;-0.0298
0000567176;5.6288;-13.4291;7.1060;0.4702;-0.0598;-0.0077
0000567189;5.2912;-13.4530;7.3119;0.4712;-0.0839;0.0172
0000567198;5.2816;-13.4291;7.3334;0.4655;-0.1055;0.0418
0000567211;5.4516;-13.3740;7.2856;0.4715;-0.1544;0.0693
0000567220;5.2912;-13.3429;7.4891;0.4614;-0.1723;0.0939
0000567233;5.4588;-13.1777;7.6327;0.4668;-0.2114;0.1091
0000567242;5.5689;-13.1873;7.7141;0.4792;-0.2499;0.1010
0000567255;5.7269;-12.9047;7.8506;0.4794;-0.2699;0.1031
0000567264;5.6072;-12.9574;7.9799;0.4731;-0.2646;0.0989
0000567273;5.8442;-12.7563;8.1930;0.4779;-0.2774;0.0745
0000567342;6.4955;-11.8537;8.4515;0.2174;-0.2899;-0.1047
0000567351;6.4260;-11.9734;8.5808;0.1899;-0.2817;-0.1087
0000567364;6.5434;-12.2870;8.4563;0.1751;-0.2717;-0.1047
0000567373;6.6750;-12.4522;8.3917;0.1707;-0.2518;-0.0919
0000567386;6.5888;-12.4235;8.4922;0.1736;-0.2350;-0.0626
0000567395;6.6798;-12.3182;8.3438;0.1641;-0.2208;-0.0453
0000567408;6.3566;-12.1242;8.3007;0.1403;-0.2040;-0.0272
0000567417;6.2776;-11.9614;8.1810;0.1166;-0.1909;-0.0180
0000567426;6.2752;-11.9638;8.1163;0.0835;-0.1867;-0.0097
0000567439;6.2728;-11.9207;8.0302;0.0465;-0.1740;-0.0075
0000567448;6.3159;-11.9590;7.9990;0.0229;-0.1777;-0.0097
0000567461;6.3231;-11.8465;8.0445;-0.0143;-0.1655;-0.0035
0000567470;6.2896;-12.0907;7.9272;-0.0301;-0.1685;-0.0093
0000567483;6.4763;-11.8513;7.8171;-0.0694;-0.1621;-0.0053
0000567492;6.3159;-11.9997;7.8530;-0.0890;-0.1569;-0.0096
0000567505;6.5936;-11.9638;7.7117;-0.1186;-0.1474;-0.0096
0000567514;6.4907;-11.9255;7.6160;-0.1415;-0.1320;-0.0039
0000567527;6.3518;-12.0285;7.6064;-0.1653;-0.1263;-0.0021
0000567536;6.4979;-11.9255;7.6184;-0.1839;-0.1108;0.0013
0000567549;6.7445;-11.8202;7.6327;-0.1919;-0.1119;-0.0085
0000567558;6.5984;-11.9351;7.6567;-0.2058;-0.1050;-0.0031
0000567567;6.4787;-11.9399;7.5298;-0.2236;-0.0969;0.0011
0000567639;6.4332;-11.8082;7.3263;-0.3224;-0.0863;0.0077
0000567648;6.4548;-11.9614;7.2353;-0.3427;-0.0830;0.0117
0000567661;6.4045;-12.1817;7.1706;-0.3617;-0.0707;0.0266
0000567670;6.5984;-12.1913;7.3047;-0.3812;-0.0557;0.0390
0000567682;6.6080;-12.3062;7.1228;-0.3926;-0.0421;0.0369
0000567691;6.6295;-12.2463;7.1036;-0.4041;-0.0334;0.0357
0000567704;6.6631;-12.3613;7.0701;-0.4158;-0.0269;0.0265
0000567713;6.8043;-12.4427;6.9983;-0.4211;-0.0209;0.0185
0000567725;6.8307;-12.4283;6.9887;-0.4345;0.0001;0.0288
0000567734;6.6535;-12.6318;6.9911;-0.4435;0.0120;0.0416
0000567743;6.5434;-12.5815;6.7947;-0.4423;0.0105;0.0448
0000567756;6.3015;-12.6749;6.7708;-0.4467;0.0160;0.0496
0000567765;6.2010;-12.6510;6.7301;-0.4443;0.0104;0.0442
0000567777;6.4189;-12.4738;6.6224;-0.4477;0.0091;0.0338
0000567786;6.4093;-12.3948;6.5912;-0.4571;0.0249;0.0349
0000567799;6.6607;-12.2176;6.5170;-0.4699;0.0349;0.0111
0000567808;6.4667;-12.4451;6.3398;-0.4842;0.0362;-0.0075
0000567878;5.9687;-12.4810;6.0693;-0.5693;0.0365;-0.0674
0000567887;6.0621;-12.3948;6.0478;-0.5841;0.0292;-0.0717
0000567896;6.2177;-12.2775;5.8969;-0.5998;0.0161;-0.0706
0000567909;6.2848;-12.4211;5.9568;-0.6277;0.0029;-0.0646
0000567918;6.4548;-12.3038;5.9568;-0.6428;0.0073;-0.0508
0000567930;6.5625;-12.4786;5.8562;-0.6643;0.0063;-0.0512
0000567939;6.6056;-12.5025;5.8299;-0.6792;0.0104;-0.0493
0000567952;6.6870;-12.6414;5.9711;-0.7007;0.0044;-0.0686
0000567961;6.7253;-12.8593;5.8562;-0.7033;0.0113;-0.0739
0000567973;6.5074;-13.2040;5.9113;-0.7093;0.0051;-0.0878
0000567982;6.6295;-13.3453;5.9233;-0.7205;-0.0017;-0.1088
0000567995;6.6894;-13.2495;5.8658;-0.7241;0.0017;-0.1168
0000568004;6.8307;-13.1083;5.8275;-0.7256;0.0016;-0.1236
0000568013;6.8115;-13.3764;5.8347;-0.7373;0.0116;-0.1231
0000568025;6.6032;-13.5153;5.7748;-0.7429;0.0128;-0.1228
0000568034;6.6487;-13.6086;5.8323;-0.7361;0.0156;-0.1375
0000568047;6.4045;-13.8050;5.7604;-0.7189;0.0216;-0.1491
0000568056;6.5673;-13.7116;5.6096;-0.7214;0.0388;-0.1528
0000568068;6.3039;-13.9223;5.5330;-0.7105;0.0707;-0.1358
0000568077;6.4524;-13.7260;5.4899;-0.6953;0.0861;-0.1295
0000568090;6.5793;-13.7451;5.5354;-0.6911;0.1043;-0.1278
0000568099;6.4548;-13.8313;5.5761;-0.6819;0.1178;-0.1199
0000568169;5.4684;-13.8840;5.7221;-0.5632;0.0048;0.0524
0000568178;5.5378;-13.6637;5.6240;-0.5694;-0.0230;0.0550
0000568187;5.6048;-13.8169;5.5713;-0.5684;-0.0629;0.0526
0000568200;5.9376;-13.8433;5.4899;-0.5760;-0.1019;0.0442
0000568209;6.0932;-14.0444;5.4324;-0.5768;-0.1251;0.0404
0000568221;6.4189;-14.3221;5.4205;-0.5728;-0.1319;0.0462
0000568230;6.4428;-14.3197;5.2625;-0.5754;-0.1279;0.0569
0000568243;6.4715;-14.4035;5.2577;-0.5738;-0.1231;0.0702
0000568252;6.4500;-14.5472;5.1188;-0.5796;-0.1243;0.0713
0000568264;6.3398;-14.4897;5.1523;-0.5840;-0.1120;0.0941
0000568273;5.9927;-14.7962;5.1212;-0.5742;-0.1062;0.1005
0000568282;5.9113;-15.0356;5.2625;-0.5457;-0.1120;0.1069
0000568295;5.6886;-15.3157;5.2289;-0.4988;-0.1254;0.0934
0000568304;5.6910;-15.3732;5.4013;-0.4586;-0.1475;0.0719
0000568316;5.9137;-15.3205;5.3989;-0.3868;-0.1761;0.0457
0000568325;5.7652;-15.3636;5.4588;-0.3368;-0.1759;0.0438
0000568338;5.7245;-15.1697;5.4564;-0.2719;-0.1919;0.0561
0000568347;6.0837;-14.9446;5.2505;-0.2539;-0.2114;0.0677
0000568359;6.1962;-14.4801;5.3032;-0.2394;-0.2280;0.0909
0000568368;6.1411;-14.3987;5.3463;-0.2337;-0.2362;0.1037
0000568381;6.4763;-14.3820;5.2289;-0.2369;-0.2304;0.1206
0000568390;6.5386;-14.4514;5.0254;-0.2463;-0.2288;0.1227
0000568399;6.4596;-14.6190;5.1188;-0.2455;-0.2060;0.1298
0000568469;6.3159;-14.8943;4.5298;-0.2611;-0.0027;0.0203
0000568478;6.4572;-14.6908;4.4963;-0.2573;0.0076;-0.0084
0000568491;6.4428;-15.0667;4.5179;-0.2589;0.0241;-0.0257
0000568500;6.3159;-15.1002;4.5777;-0.2619;0.0314;-0.0340
0000568512;6.2369;-15.2630;4.6232;-0.2345;0.0273;-0.0345
0000568521;5.9903;-15.2822;4.6711;-0.2213;0.0340;-0.0184
0000568534;6.1435;-15.1697;4.4843;-0.1936;0.0215;-0.0072
0000568543;6.0310;-15.0954;4.4029;-0.1841;0.0143;-0.0123
0000568555;6.3183;-15.0571;4.2808;-0.1743;0.0108;-0.0089
0000568564;6.2824;-14.9398;4.3407;-0.1755;0.0209;-0.0041
0000568573;6.5649;-14.8704;4.3574;-0.1779;0.0179;-0.0169
0000568586;6.5936;-14.9518;4.3910;-0.1800;0.0143;-0.0328
0000568595;6.3710;-15.0571;4.4269;-0.1716;0.0113;-0.0356
0000568607;6.1818;-15.1409;4.4724;-0.1697;0.0085;-0.0204
0000568616;6.0478;-15.1721;4.4197;-0.1745;-0.0017;-0.0052
0000568629;5.8634;-15.1553;4.5993;-0.1711;-0.0248;0.0147
0000568638;5.9999;-15.1481;4.6232;-0.1540;-0.0561;0.0189
0000568650;6.0861;-15.0978;4.6424;-0.1434;-0.0853;0.0345
0000568659;6.0597;-15.2056;4.5657;-0.1392;-0.1006;0.0516
0000568672;5.7700;-15.5623;4.6208;-0.1168;-0.1328;0.0705
0000568681;5.9304;-15.6006;4.7309;-0.0902;-0.1595;0.0803
0000568690;5.8299;-15.7323;4.6040;-0.0753;-0.1708;0.0833
0000568760;6.6726;-15.0093;4.2545;-0.0618;-0.0995;0.0284
0000568769;6.8307;-14.8464;4.3191;-0.0822;-0.0500;0.0273
0000568782;6.6726;-14.7962;4.2976;-0.1065;-0.0096;0.0195
0000568791;6.6176;-14.8728;4.1851;-0.1208;0.0175;0.0037
0000568803;6.4476;-15.1744;4.2497;-0.1159;0.0304;-0.0280
0000568812;6.3327;-15.2750;4.2282;-0.1115;0.0468;-0.0380
0000568825;6.2130;-15.4546;4.1659;-0.1009;0.0521;-0.0626
0000568834;6.0669;-15.4426;4.1755;-0.0849;0.0537;-0.0610
0000568846;6.0047;-15.4641;4.1946;-0.0602;0.0486;-0.0548
0000568855;5.8873;-15.4402;4.2808;-0.0524;0.0525;-0.0361
0000568864;6.0765;-15.4258;4.2090;-0.0365;0.0341;-0.0320
0000568877;6.0118;-15.3899;4.2306;-0.0330;0.0248;-0.0277
0000568886;6.0501;-15.2391;4.2258;-0.0217;0.0103;-0.0306
0000568898;6.0573;-15.1026;4.1300;-0.0258;0.0020;-0.0203
0000568907;5.9831;-15.1960;4.2066;-0.0448;0.0040;-0.0187
0000568920;6.0908;-15.1002;4.2162;-0.0500;-0.0017;-0.0127
0000568929;6.0238;-14.9685;4.2210;-0.0438;-0.0005;0.0031
0000568941;5.8802;-15.3540;4.1875;-0.0506;-0.0099;-0.0003
0000568950;6.2824;-14.9590;4.1851;-0.0521;-0.0064;0.0009
0000568963;6.0310;-15.1960;4.1922;-0.0605;0.0013;0.0035
0000568972;6.2968;-15.1098;4.2066;-0.0572;0.0017;-0.0024
0000568981;6.3231;-15.0404;4.1659;-0.0564;0.0108;-0.0024
0000569049;6.0549;-15.5240;4.1635;-0.0184;0.0372;-0.0469
0000569058;6.0406;-15.2989;4.0582;-0.0224;0.0286;-0.0472
0000569071;5.9879;-15.2726;4.1731;-0.0152;0.0226;-0.0448
0000569080;6.0454;-15.2391;4.1037;-0.0127;0.0171;-0.0476
0000569091;5.9448;-15.0930;4.0103;-0.0292;0.0191;-0.0484
0000569100;6.1148;-15.0021;4.1539;-0.0356;0.0256;-0.0502
0000569114;6.2489;-14.9973;4.0869;-0.0474;0.0309;-0.0612
0000569123;6.1866;-15.1242;4.0917;-0.0593;0.0401;-0.0682
0000569136;6.2824;-15.2247;4.1515;-0.0628;0.0488;-0.0763
0000569145;6.2273;-15.3253;4.1731;-0.0550;0.0444;-0.0931
0000569154;6.0789;-15.3420;4.1252;-0.0524;0.0541;-0.0865
0000569166;6.0956;-15.3684;4.1084;-0.0425;0.0576;-0.0817
0000569175;6.0310;-15.5360;4.1468;-0.0270;0.0505;-0.0775
0000569188;6.0549;-15.3325;4.1683;-0.0228;0.0558;-0.0694
0000569197;6.0190;-15.3492;4.2090;-0.0200;0.0570;-0.0628
0000569209;6.1268;-15.2606;4.1276;-0.0165;0.0560;-0.0540
0000569218;6.0094;-15.2894;4.1515;-0.0181;0.0430;-0.0592
0000569231;6.0525;-15.1098;4.0821;-0.0175;0.0328;-0.0585
0000569240;5.9304;-15.0571;4.2162;-0.0203;0.0310;-0.0454
0000569249;5.9376;-15.1074;4.1420;-0.0266;0.0229;-0.0489
0000569261;5.9376;-15.0954;4.0582;-0.0376;0.0189;-0.0414
0000569270;5.8395;-15.1290;4.0869;-0.0372;0.0124;-0.0390
0000569337;6.1866;-15.2678;4.1563;-0.0139;-0.0124;-0.0288
0000569346;6.2034;-15.2535;4.1180;-0.0169;-0.0124;-0.0237
0000569358;5.9328;-15.3373;4.2018;-0.0143;-0.0144;-0.0238
0000569367;6.0789;-15.2128;4.1468;-0.0116;-0.0191;-0.0253
0000569380;6.1339;-15.2511;4.1851;-0.0169;-0.0218;-0.0228
0000569389;6.0430;-15.2726;4.1444;-0.0177;-0.0200;-0.0172
0000569401;6.0956;-15.1744;4.1515;-0.0152;-0.0230;-0.0127
0000569410;6.1890;-15.1050;4.1492;-0.0226;-0.0211;-0.0189
0000569423;6.2130;-15.1816;4.1515;-0.0234;-0.0191;-0.0201
0000569432;6.1100;-15.2175;4.0941;-0.0274;-0.0120;-0.0196
0000569441;6.1172;-15.2822;4.1324;-0.0234;-0.0221;-0.0266
0000569453;6.0813;-15.2846;4.1324;-0.0285;-0.0129;-0.0272
0000569462;6.0501;-15.4522;4.1013;-0.0245;-0.0242;-0.0322
0000569475;6.0214;-15.3923;4.0773;-0.0193;-0.0201;-0.0278
0000569484;6.0885;-15.3397;4.0845;-0.0180;-0.0220;-0.0312
0000569496;5.9903;-15.4091;4.0654;-0.0084;-0.0242;-0.0284
0000569505;5.9903;-15.3995;4.0893;0.0001;-0.0277;-0.0304
0000569518;6.1866;-15.2774;4.1324;0.0059;-0.0296;-0.0234
0000569527;6.2201;-15.1601;4.0247;0.0056;-0.0312;-0.0264
0000569539;6.1723;-15.2080;4.0247;0.0031;-0.0309;-0.0172
0000569548;6.1818;-15.2367;4.0606;0.0096;-0.0368;-0.0163
0000569557;6.0813;-15.2032;4.0845;0.0028;-0.0373;-0.0152
0000569624;6.0885;-15.2535;4.1324;-0.0229;-0.0333;-0.0180
0000569633;6.1268;-15.1385;4.1252;-0.0212;-0.0390;-0.0221
0000569645;6.0980;-15.3109;4.0893;-0.0248;-0.0332;-0.0175
0000569654;6.3015;-15.2032;4.0366;-0.0302;-0.0310;-0.0222
0000569667;6.1292;-15.3923;4.0558;-0.0273;-0.0240;-0.0124
0000569676;6.1363;-15.3636;4.0654;-0.0160;-0.0333;-0.0188
0000569688;6.0238;-15.4426;4.0725;-0.0088;-0.0256;-0.0175
0000569697;6.2824;-15.2918;3.9193;-0.0004;-0.0276;-0.0184
0000569710;6.0142;-15.3037;3.9744;0.0043;-0.0244;-0.0216
0000569719;6.1435;-15.2942;3.9863;0.0055;-0.0256;-0.0292
0000569731;6.0765;-15.1960;4.0031;-0.0087;-0.0258;-0.0217
0000569740;6.1890;-15.2199;3.9792;-0.0088;-0.0321;-0.0228
0000569749;6.1651;-15.2678;3.9433;-0.0133;-0.0301;-0.0207
0000569762;6.0765;-15.2774;4.0031;-0.0215;-0.0222;-0.0077
0000569771;6.3087;-15.3205;4.0270;-0.0175;-0.0167;-0.0109
0000569783;6.2776;-15.0619;4.0247;-0.0228;-0.0152;-0.0088
0000569792;6.1986;-15.2295;4.0103;-0.0155;-0.0211;-0.0160
0000569805;6.1435;-15.1577;4.0414;-0.0240;-0.0229;-0.0180
0000569814;6.2560;-15.2032;4.0199;-0.0309;-0.0208;-0.0212
0000569826;6.0693;-15.1218;3.9911;-0.0314;-0.0318;-0.0234
0000569835;6.1148;-15.2439;3.9528;-0.0424;-0.0289;-0.0160
0000569902;6.1411;-15.3181;4.0366;-0.0296;-0.0280;-0.0249
0000569911;6.1076;-15.3157;3.8762;-0.0330;-0.0232;-0.0212
0000569923;6.1723;-15.3205;3.9600;-0.0342;-0.0200;-0.0217
0000569932;6.1100;-15.2630;4.0414;-0.0277;-0.0232;-0.0193
0000569941;6.1124;-15.2295;3.9504;-0.0330;-0.0212;-0.0203
0000569954;6.1028;-15.3899;3.9863;-0.0336;-0.0228;-0.0175
0000569963;6.1507;-15.2582;4.0462;-0.0374;-0.0229;-0.0177
0000569975;6.0837;-15.2559;4.0103;-0.0414;-0.0211;-0.0152
0000569984;6.2776;-15.2247;3.9887;-0.0358;-0.0260;-0.0155
0000569997;6.2632;-15.3133;3.9983;-0.0393;-0.0218;-0.0136
0000570006;6.1172;-15.2989;3.9049;-0.0376;-0.0232;-0.0139
0000570018;6.1579;-15.3013;3.8786;-0.0374;-0.0258;-0.0152
0000570027;6.1770;-15.2343;3.9552;-0.0373;-0.0238;-0.0124
0000570040;6.1914;-15.2511;3.9456;-0.0314;-0.0286;-0.0149
0000570049;6.1770;-15.2774;3.9265;-0.0245;-0.0281;-0.0139
0000570061;6.1459;-15.2750;4.0438;-0.0197;-0.0242;-0.0117
0000570070;6.4165;-15.2606;3.9385;-0.0149;-0.0218;-0.0089
0000570079;6.0717;-15.4713;3.9337;-0.0148;-0.0175;-0.0121
0000570092;6.2991;-15.3612;3.9624;-0.0127;-0.0121;-0.0189
0000570101;6.2297;-15.3109;4.0127;-0.0104;-0.0060;-0.0160
0000570113;6.3207;-15.2032;3.9887;-0.0176;-0.0001;-0.0179
0000570122;6.0430;-15.2559;3.9983;-0.0127;-0.0012;-0.0292
0000570189;6.2177;-15.2582;4.0103;-0.0085;0.0029;-0.0294
0000570198;6.1411;-15.2870;3.9840;-0.0148;0.0028;-0.0209
0000570210;6.2441;-15.3588;3.9840;-0.0105;-0.0085;-0.0226
0000570219;6.1004;-15.3013;3.9840;-0.0080;-0.0008;-0.0120
0000570232;6.1842;-15.3660;3.9720;-0.0092;-0.0057;-0.0101
0000570241;6.1292;-15.3612;4.0127;-0.0057;-0.0049;-0.0063
0000570250;6.2225;-15.3732;3.8906;0.0041;-0.0057;-0.0075
0000570262;6.0956;-15.2582;3.9863;0.0092;-0.0113;-0.0081
0000570271;6.0956;-15.1912;3.9217;0.0036;-0.0013;-0.0061
0000570284;6.1100;-15.1888;3.9433;0.0071;-0.0060;-0.0151
0000570293;6.2010;-15.1002;4.0534;0.0004;-0.0023;-0.0123
0000570305;6.1148;-15.2080;3.9456;-0.0003;0.0000;-0.0141
0000570314;6.3422;-15.1768;4.0270;-0.0133;0.0099;-0.0120
0000570327;6.1507;-15.2894;3.9887;-0.0079;0.0143;-0.0133
0000570336;6.1196;-15.4091;3.9433;-0.0047;0.0256;-0.0101
0000570348;6.2369;-15.3205;3.9911;-0.0020;0.0364;-0.0117
0000570357;6.1818;-15.3516;4.0630;-0.0060;0.0457;-0.0140
0000570366;6.1196;-15.3397;4.0342;-0.0011;0.0408;-0.0262
0000570379;6.1531;-15.2439;3.8523;-0.0003;0.0517;-0.0249
0000570388;6.2465;-15.3516;3.9409;-0.0008;0.0465;-0.0346
0000570400;6.1986;-15.2822;3.8307;0.0047;0.0504;-0.0352
0000570409;6.0693;-15.2750;3.9337;-0.0048;0.0545;-0.0249
0000570476;6.2417;-15.2367;3.9385;-0.0077;0.0628;-0.0489
0000570485;6.2153;-15.2128;3.9600;-0.0132;0.0682;-0.0448
0000570497;6.1435;-15.2966;3.8858;-0.0108;0.0699;-0.0466
0000570506;6.1220;-15.4498;3.9624;-0.0064;0.0675;-0.0474
0000570520;6.1052;-15.2295;3.9863;-0.0040;0.0679;-0.0488
0000570529;5.9616;-15.3804;4.0103;-0.0029;0.0626;-0.0477
0000570538;5.7413;-15.3899;3.9792;-0.0049;0.0541;-0.0456
0000570551;5.9927;-15.3301;4.0270;-0.0101;0.0504;-0.0449
0000570560;6.0717;-15.2032;4.0438;-0.0089;0.0418;-0.0462
0000570572;5.9592;-15.3875;4.0414;-0.0125;0.0378;-0.0346
0000570581;5.9280;-15.3253;4.0151;-0.0041;0.0322;-0.0357
0000570594;6.0406;-15.1888;3.9816;-0.0103;0.0285;-0.0281
0000570603;6.0094;-15.2247;3.9433;-0.0059;0.0216;-0.0300
0000570615;6.0047;-15.1074;4.0103;-0.0045;0.0155;-0.0337
0000570624;6.0047;-15.1625;4.0965;-0.0129;0.0265;-0.0236
0000570637;6.1148;-15.1792;4.0749;-0.0132;0.0261;-0.0262
0000570646;6.0813;-15.1242;3.9935;-0.0141;0.0201;-0.0305
0000570655;6.0166;-15.2774;4.0677;-0.0135;0.0185;-0.0304
0000570667;6.0597;-15.2606;4.0247;-0.0093;0.0181;-0.0253
0000570676;6.0861;-15.3205;3.9911;-0.0075;0.0192;-0.0288
0000570743;5.9807;-15.2966;4.0677;-0.0003;0.0155;-0.0340
0000570752;5.9807;-15.3253;4.0893;0.0032;0.0083;-0.0334
0000570764;6.1292;-15.1912;4.0031;0.0060;0.0105;-0.0289
0000570773;6.0885;-15.1888;4.0079;-0.0028;0.0184;-0.0226
0000570786;6.2417;-15.0547;4.0606;-0.0075;0.0189;-0.0213
0000570795;6.1555;-15.1266;4.0175;-0.0097;0.0211;-0.0250
0000570807;6.1268;-15.3205;3.9768;-0.0077;0.0172;-0.0238
0000570816;6.0597;-15.2415;4.0606;-0.0020;0.0112;-0.0281
0000570825;6.0669;-15.2511;4.0247;-0.0039;0.0056;-0.0277
0000570838;6.0621;-15.3660;4.0749;-0.0048;0.0059;-0.0273
0000570847;6.1124;-15.2439;4.0175;-0.0043;0.0081;-0.0195
0000570859;6.0142;-15.2271;4.0270;-0.0048;-0.0025;-0.0245
0000570868;5.9448;-15.1960;4.0294;-0.0009;-0.0049;-0.0244
0000570881;6.0813;-15.1337;3.9433;-0.0021;-0.0069;-0.0213
0000570890;5.9400;-15.3157;4.0151;-0.0041;-0.0076;-0.0197
0000570902;6.0047;-15.2367;4.0486;0.0048;-0.0205;-0.0213
0000570911;6.0166;-15.2367;4.0390;0.0036;-0.0147;-0.0139
0000570924;6.0621;-15.2582;4.0031;0.0079;-0.0250;-0.0207
0000570933;5.9520;-15.2223;4.1204;0.0059;-0.0236;-0.0163
0000570942;6.0501;-15.1409;4.1084;0.0012;-0.0237;-0.0183
0000570954;6.0669;-15.1553;4.0438;-0.0003;-0.0261;-0.0187
0000570963;6.0023;-15.1122;4.0318;-0.0044;-0.0272;-0.0157
0000571030;5.9161;-15.4258;4.0845;-0.0100;-0.0389;-0.0147
0000571039;6.1028;-15.1649;4.0199;-0.0176;-0.0374;-0.0113
0000571051;6.1411;-15.1122;3.9911;-0.0143;-0.0321;-0.0103
0000571060;5.7796;-15.4306;4.1563;-0.0148;-0.0354;-0.0061
0000571073;6.0047;-15.3301;3.9480;-0.0139;-0.0320;-0.0099
0000571082;6.2010;-15.1337;4.0247;-0.0077;-0.0385;-0.0127
0000571094;6.0765;-15.0763;4.1108;-0.0081;-0.0362;-0.0140
0000571103;6.1411;-15.2630;4.0318;-0.0120;-0.0344;-0.0095
0000571112;6.1124;-15.2223;4.1061;-0.0032;-0.0372;-0.0119
0000571125;6.0717;-15.2559;4.0654;-0.0097;-0.0284;-0.0147
0000571134;5.9640;-15.2774;4.1013;-0.0149;-0.0237;-0.0132
0000571146;6.0956;-15.2822;4.0534;-0.0185;-0.0240;-0.0111
0000571155;6.0693;-15.1816;4.0247;-0.0238;-0.0261;-0.0147
0000571168;5.9999;-15.1936;4.0821;-0.0188;-0.0314;-0.0215
0000571177;5.9807;-15.2056;4.1587;-0.0217;-0.0321;-0.0179
0000571189;6.1555;-15.0547;4.0630;-0.0203;-0.0438;-0.0213
0000571198;5.9233;-15.2989;4.1132;-0.0201;-0.0480;-0.0179
0000571211;5.9616;-15.3827;4.1061;-0.0226;-0.0464;-0.0137
0000571220;6.0813;-15.1577;4.1156;-0.0165;-0.0485;-0.0099
0000571232;6.1435;-15.1912;4.0701;-0.0215;-0.0436;-0.0071
0000571241;6.0980;-15.2798;4.0558;-0.0112;-0.0481;-0.0081
0000571250;6.2177;-15.1361;4.0582;-0.0169;-0.0413;-0.0020
0000571319;5.9975;-15.2822;4.0941;-0.0164;-0.0620;-0.0027
0000571328;5.9951;-15.2511;4.0558;-0.0137;-0.0642;-0.0075
0000571340;5.9783;-15.2463;4.0654;-0.0017;-0.0683;-0.0121
0000571349;6.1076;-15.2487;4.0630;-0.0069;-0.0625;-0.0055
0000571362;6.1699;-15.1649;4.1108;-0.0024;-0.0602;-0.0140
0000571371;6.0358;-15.2846;4.0534;-0.0133;-0.0544;-0.0077
0000571383;6.1770;-15.0500;4.0917;-0.0115;-0.0588;-0.0099
0000571392;6.0765;-15.2008;4.1037;-0.0193;-0.0522;-0.0001
0000571405;6.1148;-15.0619;4.0510;-0.0245;-0.0457;-0.0008
0000571414;6.2608;-15.1098;4.0366;-0.0171;-0.0529;-0.0095
0000571426;5.8778;-15.3516;4.0725;-0.0224;-0.0501;-0.0077
0000571435;6.1866;-15.2511;4.0151;-0.0228;-0.0408;-0.0017
0000571444;6.1890;-15.2630;3.9433;-0.0213;-0.0384;-0.0071
0000571457;6.0047;-15.3397;3.9528;-0.0191;-0.0376;-0.0111
0000571466;6.1794;-15.2128;4.1300;-0.0236;-0.0354;-0.0155
0000571478;6.0932;-15.2846;4.0103;-0.0179;-0.0350;-0.0169
0000571487;6.1435;-15.3253;4.0462;-0.0097;-0.0380;-0.0209
0000571500;6.0549;-15.1960;4.0294;-0.0107;-0.0396;-0.0193
0000571509;5.9328;-15.3301;4.0414;-0.0164;-0.0356;-0.0144
0000571521;6.0238;-15.3085;4.1084;-0.0177;-0.0366;-0.0163
0000571530;5.9592;-15.2989;4.0127;-0.0179;-0.0345;-0.0129
0000571599;6.1555;-15.3397;4.0366;-0.0254;-0.0224;-0.0172
0000571606;6.0956;-15.2152;4.1300;-0.0211;-0.0242;-0.0161
0000571617;5.9711;-15.2535;4.0582;-0.0260;-0.0246;-0.0201
0000571625;6.0478;-15.1290;3.9935;-0.0281;-0.0305;-0.0250
