time;acc_x;acc_y;acc_z;gyro_x;gyro_y;gyro_z
0000302290;5.4540;-16.2207;0.6847;0.0023;0.0504;-0.0861
0000302298;5.5857;-16.2327;0.5986;0.0140;0.0425;-0.0774
0000302305;5.7604;-16.2207;0.6297;0.0290;0.0256;-0.0803
0000302313;5.7437;-16.2447;0.7111;0.0434;0.0091;-0.0807
0000302322;5.7700;-16.2471;0.6895;0.0442;-0.0019;-0.0747
0000302330;5.9879;-16.2040;0.7638;0.0520;-0.0124;-0.0797
0000302342;5.8778;-16.1273;0.6847;0.0428;-0.0160;-0.0666
0000302350;5.9903;-16.1609;0.6823;0.0422;-0.0278;-0.0737
0000302358;5.9879;-16.0627;0.6967;0.0310;-0.0241;-0.0602
0000302425;6.2417;-16.1321;0.7302;0.0003;-0.0915;-0.0604
0000302433;6.2441;-16.1513;0.6584;0.0027;-0.1002;-0.0582
0000302445;6.2584;-16.1106;0.6871;0.0036;-0.1045;-0.0449
0000302453;6.2441;-16.1249;0.6919;-0.0060;-0.1127;-0.0334
0000302464;6.3542;-15.8185;0.7398;-0.0092;-0.1248;-0.0262
0000302472;6.2776;-15.9574;0.8739;-0.0161;-0.1307;-0.0217
0000302484;6.2752;-15.8496;0.8787;-0.0345;-0.1336;-0.0160
0000302492;6.3925;-15.7179;0.9290;-0.0468;-0.1388;-0.0218
0000302503;6.2441;-15.7945;1.0415;-0.0570;-0.1525;-0.0241
0000302511;6.1196;-15.7251;0.8332;-0.0654;-0.1559;-0.0258
0000302519;6.1244;-15.7060;0.8811;-0.0759;-0.1641;-0.0261
0000302531;6.1363;-15.7586;0.9625;-0.0913;-0.1819;-0.0308
0000302539;6.2704;-15.8113;0.9194;-0.0965;-0.1919;-0.0321
0000302550;6.1938;-15.9047;0.9122;-0.0974;-0.2024;-0.0226
0000302558;6.3063;-16.1633;0.9433;-0.0954;-0.2010;-0.0161
0000302570;6.6607;-16.2447;0.7039;-0.0881;-0.1911;0.0007
0000302578;6.5960;-16.4386;0.8068;-0.0733;-0.1745;0.0108
0000302589;6.8235;-16.3261;0.6943;-0.0593;-0.1535;0.0304
0000302597;6.7014;-16.4865;0.7374;-0.0485;-0.1354;0.0380
0000302609;6.5553;-16.5368;0.6512;-0.0313;-0.1062;0.0354
0000302617;6.6822;-16.3332;0.5555;-0.0254;-0.0851;0.0390
0000302684;6.4284;-16.1345;0.4477;0.0087;-0.0183;0.0336
0000302692;6.4643;-16.1992;0.4908;0.0075;-0.0119;0.0421
0000302700;6.2896;-16.1130;0.4022;-0.0011;-0.0117;0.0478
0000302712;6.3518;-16.0244;0.4238;0.0091;-0.0234;0.0438
0000302720;6.0358;-16.1896;0.5387;0.0048;-0.0217;0.0512
0000302731;6.2369;-16.0244;0.4645;-0.0028;-0.0305;0.0541
0000302739;5.9927;-16.0938;0.5722;-0.0041;-0.0361;0.0504
0000302751;5.7820;-16.1704;0.6345;-0.0004;-0.0405;0.0480
0000302759;6.0621;-16.1465;0.6105;-0.0011;-0.0377;0.0469
0000302770;6.2273;-16.1800;0.5650;-0.0008;-0.0308;0.0426
0000302778;6.2848;-16.0076;0.4118;-0.0121;-0.0218;0.0373
0000302786;6.3901;-16.2566;0.3879;-0.0101;0.0016;0.0318
0000302798;6.5218;-16.4099;0.5124;-0.0140;0.0532;0.0260
0000302806;6.6607;-16.5822;0.4525;-0.0140;0.0951;0.0208
0000302817;6.6535;-16.5344;0.4621;0.0156;0.1416;0.0001
0000302825;6.4883;-16.4601;0.5722;0.0373;0.1611;-0.0125
0000302837;6.0262;-16.1896;0.5626;0.0465;0.1720;-0.0288
0000302845;5.7652;-15.9741;0.5674;0.0361;0.1625;-0.0257
0000302856;5.4420;-15.7108;0.6584;0.0220;0.1211;-0.0241
0000302864;5.2122;-15.7371;0.7853;0.0029;0.0941;-0.0129
0000302872;5.1020;-15.7515;0.6991;-0.0004;0.0514;-0.0061
0000302884;5.2481;-15.8161;0.8452;0.0003;0.0012;0.0173
0000302892;5.4708;-15.9621;0.8619;0.0115;-0.0318;0.0314
0000302959;6.0549;-16.2423;0.8595;0.1307;-0.0710;-0.0324
0000302967;5.8730;-16.1585;0.9505;0.1312;-0.0616;-0.0333
0000302979;6.2704;-15.9047;0.9146;0.1206;-0.0469;-0.0457
0000302987;6.2537;-15.8400;1.0032;0.1057;-0.0285;-0.0402
0000302998;6.0621;-15.7419;0.9002;0.0833;-0.0196;-0.0425
0000303006;5.8826;-15.9095;0.8356;0.0739;-0.0109;-0.0456
0000303018;5.7700;-15.9885;0.8595;0.0520;-0.0077;-0.0593
0000303026;5.8299;-15.9526;0.8954;0.0361;-0.0181;-0.0618
0000303034;5.6527;-16.1273;0.9313;0.0361;-0.0326;-0.0774
0000303045;5.8921;-16.0651;0.8882;0.0346;-0.0529;-0.0734
0000303053;5.9975;-16.1465;0.7470;0.0480;-0.0722;-0.0823
0000303065;6.0382;-16.0483;0.8284;0.0518;-0.0782;-0.0682
0000303073;5.9855;-16.2087;0.8619;0.0532;-0.0773;-0.0513
0000303084;6.4524;-15.8807;0.8763;0.0526;-0.0817;-0.0428
0000303092;6.3015;-15.8927;0.8332;0.0385;-0.0790;-0.0384
0000303104;6.3303;-15.8640;0.8380;0.0290;-0.0847;-0.0460
0000303112;6.5673;-15.9286;0.7901;0.0109;-0.0746;-0.0380
0000303123;6.3398;-15.8329;0.8595;-0.0005;-0.0797;-0.0441
0000303131;6.3877;-16.0483;0.7733;-0.0105;-0.0821;-0.0453
0000303139;6.3351;-16.0100;0.7781;-0.0171;-0.0782;-0.0414
0000303151;6.5936;-15.9238;0.8452;-0.0197;-0.0737;-0.0284
0000303159;6.5817;-16.0028;0.8332;-0.0273;-0.0734;-0.0197
0000303226;6.2728;-15.8664;0.9361;-0.0099;-0.0769;0.0103
0000303234;6.2513;-15.7945;0.8140;-0.0197;-0.0730;0.0145
0000303246;6.2656;-15.8712;0.9481;-0.0394;-0.0755;0.0188
0000303254;6.2297;-15.9023;0.8954;-0.0381;-0.0851;0.0199
0000303265;6.2393;-15.9167;0.9792;-0.0454;-0.0865;0.0264
0000303273;6.1675;-15.8688;0.9720;-0.0418;-0.0902;0.0342
0000303285;6.1124;-15.9645;0.9577;-0.0536;-0.0937;0.0450
0000303293;6.1794;-15.8592;1.0127;-0.0617;-0.0897;0.0530
0000303301;6.0047;-15.9669;1.0223;-0.0653;-0.0971;0.0540
0000303312;5.7772;-16.2255;1.0319;-0.0710;-0.0935;0.0556
0000303320;5.8395;-16.0986;1.1516;-0.0646;-0.1057;0.0477
0000303332;5.9017;-15.9765;1.0582;-0.0693;-0.1138;0.0522
0000303340;5.8083;-16.0890;1.0942;-0.0658;-0.1191;0.0458
0000303351;5.6623;-15.9645;1.0415;-0.0770;-0.1300;0.0517
0000303359;5.8131;-15.7203;1.0558;-0.0843;-0.1502;0.0510
0000303371;5.7700;-15.5695;1.0918;-0.1073;-0.1704;0.0565
0000303379;5.7652;-15.7538;1.1420;-0.1198;-0.1785;0.0657
0000303390;5.7245;-15.8879;1.1061;-0.1371;-0.2020;0.0625
0000303398;5.8083;-15.8831;0.9960;-0.1448;-0.2116;0.0650
0000303406;5.9544;-15.8352;0.9792;-0.1577;-0.2188;0.0701
0000303418;5.9975;-15.8137;0.9433;-0.1727;-0.2246;0.0742
0000303426;5.8945;-15.7969;0.8021;-0.1795;-0.2413;0.0747
0000303493;6.7301;-16.6900;0.3472;-0.1631;-0.0847;0.0593
0000303501;6.6535;-16.7810;0.2729;-0.1440;-0.0397;0.0544
0000303513;6.8211;-16.6038;0.1915;-0.1010;0.0125;0.0416
0000303521;6.8714;-16.6493;0.2490;-0.0881;0.0500;0.0261
0000303532;6.6942;-16.5368;0.0718;-0.0789;0.1005;0.0218
0000303540;6.5936;-16.4506;0.1293;-0.0638;0.1262;0.0105
0000303548;6.5841;-16.4266;0.1030;-0.0556;0.1520;0.0124
0000303560;6.5625;-16.3524;0.1197;-0.0458;0.1860;0.0072
0000303568;6.3135;-16.5942;0.1891;-0.0338;0.2072;0.0087
0000303579;6.4620;-16.5415;0.1413;-0.0089;0.2202;0.0099
0000303587;6.4811;-16.2830;0.1820;-0.0047;0.2414;0.0217
0000303599;6.5146;-16.3524;0.2346;0.0048;0.2721;0.0317
0000303607;6.4883;-16.1226;0.3615;-0.0037;0.2920;0.0268
0000303618;6.2824;-16.1704;0.4022;0.0120;0.3050;0.0203
0000303626;6.0980;-16.2064;0.4310;0.0072;0.3084;0.0132
0000303634;6.0980;-15.8736;0.4836;0.0107;0.3036;-0.0020
0000303646;5.8849;-15.5791;0.5435;-0.0019;0.2773;-0.0316
0000303654;5.5976;-15.6317;0.5124;-0.0188;0.2627;-0.0453
0000303666;5.4396;-15.6892;0.6632;-0.0265;0.2354;-0.0580
0000303674;5.3008;-15.7419;0.6369;-0.0301;0.2133;-0.0669
0000303686;5.2936;-15.8903;0.6033;-0.0172;0.1824;-0.0666
0000303694;5.2098;-15.9861;0.7446;-0.0119;0.1668;-0.0640
0000303762;5.2720;-16.0435;0.7566;0.0377;0.0032;-0.0541
0000303770;5.3726;-16.0196;0.7781;0.0426;-0.0080;-0.0464
0000303781;5.4061;-16.2231;0.7925;0.0494;-0.0245;-0.0522
0000303789;5.5952;-16.1393;0.7997;0.0481;-0.0232;-0.0501
0000303797;5.6192;-15.9550;0.7709;0.0402;-0.0268;-0.0522
0000303809;5.8610;-16.0340;0.7566;0.0432;-0.0301;-0.0654
0000303817;5.7844;-16.2016;0.6967;0.0321;-0.0248;-0.0757
0000303828;5.7581;-16.1968;0.6943;0.0329;-0.0289;-0.0911
0000303836;6.0166;-16.1249;0.6871;0.0305;-0.0338;-0.1095
0000303848;5.7868;-16.3309;0.5938;0.0401;-0.0438;-0.1184
0000303856;6.1100;-16.1154;0.5962;0.0464;-0.0501;-0.1212
0000303867;6.0118;-16.1393;0.6536;0.0625;-0.0693;-0.1202
0000303875;6.0118;-16.0244;0.7135;0.0662;-0.0795;-0.1223
0000303883;6.2034;-16.0124;0.5794;0.0695;-0.0977;-0.1203
0000303895;5.8562;-16.2471;0.5507;0.0602;-0.1156;-0.1051
0000303903;6.0166;-16.0986;0.6704;0.0546;-0.1203;-0.0943
0000303914;6.2800;-16.1633;0.6105;0.0601;-0.1388;-0.0931
0000303922;6.2130;-16.2782;0.6656;0.0657;-0.1350;-0.0823
0000303934;6.5793;-16.1249;0.6009;0.0758;-0.1220;-0.0770
0000303942;6.3901;-16.2710;0.6823;0.0733;-0.1102;-0.0751
0000303954;6.5745;-16.0124;0.5938;0.0678;-0.0997;-0.0755
0000303962;6.5074;-15.9071;0.6081;0.0600;-0.0974;-0.0847
0000304030;6.4524;-15.9430;0.5459;0.0196;-0.1288;-0.0131
0000304038;6.2584;-15.9693;0.5315;0.0232;-0.1284;-0.0087
0000304046;6.4691;-15.9909;0.6369;0.0023;-0.1218;0.0008
0000304057;6.4907;-15.8640;0.6129;-0.0045;-0.1215;0.0001
0000304065;6.4643;-16.0076;0.6632;-0.0189;-0.1128;-0.0007
0000304077;6.3901;-16.0412;0.6057;-0.0236;-0.1038;-0.0015
0000304085;6.3686;-16.1010;0.6201;-0.0156;-0.0971;0.0037
0000304096;6.4667;-16.1249;0.6895;-0.0095;-0.0946;0.0045
0000304104;6.5721;-16.1561;0.6512;-0.0021;-0.0882;0.0057
0000304116;6.6319;-15.9909;0.6512;0.0005;-0.0703;0.0093
0000304124;6.5146;-16.1896;0.7877;-0.0075;-0.0565;0.0160
0000304135;6.6200;-16.0388;0.8571;-0.0043;-0.0537;0.0151
0000304143;6.3255;-16.1321;0.8356;-0.0133;-0.0353;0.0207
0000304151;6.1435;-16.0507;0.8068;-0.0141;-0.0308;0.0264
0000304163;6.2177;-15.9574;0.9505;-0.0069;-0.0248;0.0329
0000304171;6.3159;-15.9813;0.8787;0.0023;-0.0246;0.0402
0000304182;6.3255;-15.9119;0.8475;0.0021;-0.0262;0.0308
0000304190;6.4859;-15.8736;0.8284;-0.0049;-0.0164;0.0266
0000304202;6.2489;-16.0196;1.0104;-0.0073;-0.0020;0.0183
0000304210;6.1148;-16.0962;0.8787;-0.0109;0.0001;0.0188
0000304222;5.8466;-16.2183;0.9625;-0.0115;-0.0021;0.0218
0000304230;5.8538;-16.2040;0.8978;-0.0063;-0.0153;0.0180
0000304298;6.1794;-15.9334;0.7805;-0.0143;-0.0245;0.0518
0000304306;6.1220;-15.9597;0.6895;-0.0199;-0.0169;0.0418
0000304314;6.1028;-15.9143;0.7614;-0.0276;-0.0061;0.0340
0000304325;6.0885;-16.0268;0.6847;-0.0372;0.0048;0.0272
0000304333;5.9544;-16.1178;0.6895;-0.0297;-0.0011;0.0096
0000304345;6.0071;-16.0220;0.7398;-0.0365;-0.0009;0.0048
0000304353;5.9137;-16.1154;0.7183;-0.0341;-0.0064;-0.0056
0000304364;6.0023;-16.1249;0.7111;-0.0380;-0.0073;-0.0053
0000304372;5.9328;-16.1944;0.7877;-0.0302;-0.0129;-0.0031
0000304384;5.9448;-16.1441;0.8188;-0.0252;-0.0153;0.0080
0000304392;5.7509;-16.2997;0.8930;-0.0238;-0.0253;0.0108
0000304403;5.9185;-15.9885;0.8140;-0.0185;-0.0282;0.0196
0000304411;6.0885;-15.9167;0.8619;-0.0230;-0.0340;0.0226
0000304419;5.8658;-16.0196;0.8284;-0.0203;-0.0481;0.0155
0000304431;5.9520;-15.8472;0.8236;-0.0277;-0.0500;0.0132
0000304439;6.1651;-15.7538;0.9313;-0.0298;-0.0501;0.0113
0000304450;6.0956;-15.8736;0.7494;-0.0401;-0.0546;0.0023
0000304458;5.8969;-16.0076;0.7518;-0.0621;-0.0480;0.0029
0000304470;6.0549;-15.9430;0.8140;-0.0765;-0.0448;0.0043
0000304478;6.0573;-16.0938;0.8116;-0.0837;-0.0426;0.0020
0000304490;5.9711;-16.1968;0.7757;-0.0818;-0.0425;0.0012
0000304498;5.7628;-16.4027;0.7183;-0.0701;-0.0502;-0.0060
0000304566;6.1459;-15.9238;0.7254;-0.0568;-0.0334;0.0027
0000304574;6.0621;-15.9933;0.6895;-0.0596;-0.0393;0.0009
0000304582;6.1579;-16.0196;0.6393;-0.0604;-0.0312;0.0071
0000304593;5.9137;-16.1633;0.6105;-0.0725;-0.0325;-0.0017
0000304601;6.0406;-16.0555;0.7518;-0.0790;-0.0253;0.0059
0000304613;5.8442;-16.3189;0.6823;-0.0830;-0.0276;0.0069
0000304621;6.0286;-16.2207;0.6369;-0.0755;-0.0294;-0.0037
0000304632;5.9065;-16.3380;0.5914;-0.0670;-0.0318;0.0021
0000304640;5.8802;-16.1872;0.5698;-0.0606;-0.0361;-0.0052
0000304652;6.0549;-16.1513;0.6584;-0.0561;-0.0320;-0.0012
0000304660;6.0525;-16.0771;0.6512;-0.0528;-0.0392;-0.0008
0000304671;6.0813;-15.9645;0.6009;-0.0606;-0.0350;0.0025
0000304679;6.0190;-16.0388;0.6057;-0.0618;-0.0316;0.0060
0000304687;6.1435;-16.0627;0.5387;-0.0630;-0.0292;0.0064
0000304699;5.9496;-16.1154;0.5004;-0.0633;-0.0284;0.0019
0000304707;5.9664;-16.2016;0.6560;-0.0677;-0.0203;0.0053
0000304718;6.1076;-16.1034;0.6153;-0.0573;-0.0290;-0.0028
0000304726;6.0310;-15.9526;0.5770;-0.0580;-0.0264;0.0025
0000304738;6.0190;-16.0986;0.6536;-0.0578;-0.0250;0.0000
0000304746;6.1914;-15.9095;0.5914;-0.0544;-0.0320;-0.0093
0000304758;5.9520;-16.0268;0.5411;-0.0585;-0.0273;-0.0044
0000304766;6.2872;-16.0100;0.5219;-0.0609;-0.0285;0.0023
0000304834;5.8371;-16.0699;0.6321;-0.0675;-0.0269;-0.0023
0000304842;6.0525;-16.1489;0.6033;-0.0693;-0.0266;-0.0067
0000304850;5.8538;-16.1609;0.5483;-0.0628;-0.0337;-0.0119
0000304861;6.0454;-16.1010;0.5004;-0.0605;-0.0313;-0.0104
0000304869;5.9951;-16.0699;0.5076;-0.0580;-0.0301;-0.0055
0000304881;5.9400;-16.0842;0.4956;-0.0550;-0.0262;-0.0041
0000304889;6.0094;-16.0723;0.4549;-0.0609;-0.0189;-0.0025
0000304900;5.8993;-16.1226;0.5626;-0.0505;-0.0197;-0.0025
0000304908;5.8945;-16.2638;0.5507;-0.0476;-0.0245;-0.0136
0000304920;5.9759;-16.1106;0.4932;-0.0422;-0.0308;-0.0115
0000304928;6.0932;-15.9597;0.4956;-0.0418;-0.0276;-0.0120
0000304939;6.1746;-15.9861;0.4405;-0.0461;-0.0288;-0.0129
0000304947;5.9448;-16.0244;0.4788;-0.0508;-0.0232;-0.0107
0000304959;5.9664;-15.9310;0.4405;-0.0521;-0.0246;-0.0055
0000304967;5.9807;-16.0579;0.4860;-0.0488;-0.0342;-0.0103
0000304975;6.0741;-16.0603;0.4932;-0.0477;-0.0324;-0.0081
0000304986;5.9376;-16.2758;0.4525;-0.0426;-0.0302;-0.0073
0000304994;6.0693;-16.0316;0.4334;-0.0377;-0.0328;-0.0081
0000305006;5.9951;-16.1058;0.4357;-0.0348;-0.0309;-0.0116
0000305014;6.1292;-16.0675;0.3926;-0.0364;-0.0261;-0.0031
0000305026;6.0094;-16.0627;0.4645;-0.0374;-0.0273;-0.0024
0000305034;5.8826;-16.2351;0.5148;-0.0342;-0.0306;-0.0079
0000305101;5.8945;-16.2423;0.4717;-0.0107;-0.0290;0.0019
0000305109;5.9328;-16.1537;0.4357;-0.0063;-0.0314;-0.0044
0000305121;5.8634;-16.1585;0.4549;-0.0109;-0.0281;0.0007
0000305129;5.8371;-16.0603;0.4597;-0.0105;-0.0298;-0.0080
0000305140;5.7365;-16.2231;0.3472;-0.0137;-0.0280;-0.0044
0000305148;5.9065;-16.1321;0.4094;-0.0099;-0.0366;-0.0065
0000305156;6.0118;-15.9693;0.4597;-0.0057;-0.0370;-0.0097
0000305168;5.9041;-16.1920;0.4597;-0.0043;-0.0410;-0.0120
0000305176;6.0166;-16.0771;0.4501;-0.0100;-0.0322;-0.0069
0000305187;6.0908;-16.0005;0.3974;-0.0096;-0.0305;0.0001
0000305195;5.9640;-16.1058;0.3950;-0.0043;-0.0365;-0.0087
0000305207;5.9424;-16.1226;0.4381;-0.0008;-0.0350;-0.0100
0000305215;5.9041;-16.2542;0.4501;-0.0016;-0.0368;-0.0059
0000305226;5.9041;-15.9645;0.4405;-0.0015;-0.0425;-0.0099
0000305234;5.9927;-16.0316;0.3472;-0.0049;-0.0369;-0.0076
0000305246;5.8610;-16.0819;0.4908;-0.0080;-0.0424;-0.0079
0000305254;5.9759;-16.0220;0.4573;-0.0041;-0.0441;-0.0063
0000305262;6.0238;-16.0244;0.4645;-0.0053;-0.0421;-0.0012
0000305273;5.8610;-16.2159;0.5291;-0.0057;-0.0377;0.0055
0000305281;5.9089;-16.2997;0.5339;-0.0008;-0.0382;0.0015
0000305293;6.0358;-16.1082;0.5076;0.0033;-0.0360;-0.0035
0000305301;5.9137;-16.1369;0.5363;0.0132;-0.0390;-0.0079
0000305368;6.0454;-16.1273;0.4741;0.0282;-0.0317;-0.0105
0000305376;6.0813;-15.9669;0.5722;0.0246;-0.0292;-0.0103
0000305388;5.9927;-16.0651;0.5507;0.0296;-0.0334;-0.0185
0000305396;5.9903;-15.9693;0.6201;0.0289;-0.0285;-0.0117
0000305407;5.7724;-16.2782;0.6249;0.0356;-0.0314;-0.0127
0000305415;6.0861;-16.1249;0.4956;0.0373;-0.0337;-0.0133
0000305423;5.9544;-16.1800;0.5531;0.0486;-0.0384;-0.0145
0000305435;5.8993;-16.0938;0.6033;0.0518;-0.0393;-0.0161
0000305443;5.8682;-16.1082;0.4980;0.0528;-0.0402;-0.0169
0000305454;5.8538;-16.1321;0.4405;0.0578;-0.0468;-0.0125
0000305462;5.9927;-16.2758;0.4118;0.0642;-0.0574;-0.0113
0000305474;6.0023;-16.3692;0.6321;0.0893;-0.0658;-0.0079
0000305482;6.0190;-16.6014;0.5962;0.1139;-0.0719;-0.0043
0000305493;5.9448;-16.7331;0.5818;0.1499;-0.0718;-0.0005
0000305501;6.1914;-16.5894;0.7542;0.1795;-0.0822;-0.0065
0000305513;6.1124;-16.8217;0.4214;0.2204;-0.1124;-0.0096
0000305521;5.9592;-16.8648;0.5387;0.2582;-0.1095;0.0113
0000305529;5.8059;-16.9007;0.9074;0.2990;-0.1208;0.0233
0000305540;5.6575;-16.9988;0.5555;0.3563;-0.1278;0.0269
0000305548;5.5498;-17.0683;0.4836;0.4128;-0.1364;0.0226
0000305560;5.6144;-17.0731;0.7638;0.5096;-0.1252;0.0181
0000305568;5.5689;-17.1808;0.7422;0.5762;-0.1195;0.0049
0000305635;5.8897;-15.7778;0.5411;0.6574;0.0382;-0.0665
0000305643;5.5186;-15.8113;0.5650;0.6486;0.0191;-0.0791
0000305655;5.6096;-16.0005;0.5531;0.6388;-0.0087;-0.0791
0000305663;5.6527;-16.0890;0.6728;0.6699;-0.0402;-0.0871
0000305671;5.6383;-16.1680;0.7302;0.7015;-0.0604;-0.0929
0000305682;5.7509;-16.3716;0.9194;0.7365;-0.0767;-0.0895
0000305690;5.6910;-16.4841;1.0654;0.7614;-0.0837;-0.0851
0000305702;5.7892;-16.4410;1.2067;0.7857;-0.0954;-0.0845
0000305710;5.9975;-16.3835;1.3647;0.8071;-0.1078;-0.0845
0000305722;5.8083;-16.5918;1.2282;0.8238;-0.1102;-0.0894
0000305730;5.9879;-16.6852;1.1468;0.8460;-0.1045;-0.0805
0000305742;5.9256;-16.9342;1.2713;0.9190;-0.1045;-0.0825
0000305750;5.8466;-17.3819;1.4533;0.9719;-0.0953;-0.0815
0000305761;6.1268;-17.6955;1.6712;1.0818;-0.0913;-0.0854
0000305769;6.3303;-17.9589;1.4629;1.1619;-0.0821;-0.0927
0000305777;6.1052;-18.2989;1.4150;1.2434;-0.0719;-0.1095
0000305789;6.1507;-18.0619;1.1947;1.3579;-0.0521;-0.1279
0000305797;5.8083;-17.9086;1.1444;1.4101;-0.0468;-0.1364
0000305808;5.5522;-17.5591;1.0726;1.4778;-0.0717;-0.1751
0000305816;5.2170;-17.2359;0.9505;1.4874;-0.0991;-0.1939
0000305828;4.6304;-17.5303;1.3360;1.4438;-0.1719;-0.2402
0000305836;4.0630;-18.4521;1.9010;1.4358;-0.2186;-0.2683
0000305902;7.4196;-16.5128;4.0821;1.6654;-0.3958;-0.1544
0000305910;7.6950;-16.2566;4.2234;1.5711;-0.3416;-0.1592
0000305922;7.8458;-15.7610;4.7285;1.3715;-0.2353;-0.1776
0000305930;8.0948;-15.2726;4.7429;1.1996;-0.1498;-0.1704
0000305938;7.6447;-14.9709;5.0829;1.0451;-0.0794;-0.1547
0000305949;6.5553;-14.9398;5.3463;0.8463;-0.0405;-0.1254
0000305957;5.8179;-15.0763;5.4971;0.7221;-0.0564;-0.0969
0000305969;5.3870;-14.9374;5.7820;0.5971;-0.1170;-0.0482
0000305977;5.2433;-15.0907;6.0406;0.5368;-0.1617;-0.0145
0000305988;5.6958;-15.0523;6.1100;0.4683;-0.1966;0.0322
0000305996;6.3015;-15.0332;6.1244;0.4413;-0.2077;0.0606
0000306008;7.0725;-15.0859;6.2632;0.3793;-0.1804;0.1187
0000306016;7.7165;-15.1529;6.2177;0.3420;-0.1467;0.1408
0000306027;8.0397;-15.1529;6.3686;0.2773;-0.0935;0.1455
0000306035;8.0421;-15.2918;6.3686;0.2256;-0.0453;0.1299
0000306043;8.0278;-15.0954;6.5338;0.1756;0.0047;0.1018
0000306055;7.4412;-15.0595;6.5050;0.0907;0.0578;0.0385
0000306063;6.8929;-15.2415;6.4979;0.0384;0.0823;-0.0048
0000306074;6.2848;-15.6126;6.2896;-0.0386;0.0970;-0.0389
0000306082;6.4117;-15.7898;6.1962;-0.0717;0.0925;-0.0442
0000306094;6.3255;-15.9550;6.1866;-0.1034;0.0789;-0.0254
0000306102;6.3351;-16.0100;6.1411;-0.0994;0.0616;-0.0065
0000306169;6.5434;-15.1242;5.5833;-0.2466;0.0230;0.0687
0000306177;6.5481;-15.0643;5.4061;-0.2821;0.0293;0.0630
0000306185;6.6008;-14.8608;5.1930;-0.3096;0.0408;0.0636
0000306197;6.3494;-14.8584;4.9895;-0.3599;0.0569;0.0537
0000306205;6.4931;-14.6836;4.7525;-0.3772;0.0585;0.0454
0000306216;6.3231;-14.6645;4.6807;-0.4046;0.0614;0.0356
0000306224;6.2752;-14.4897;4.5155;-0.4155;0.0501;0.0242
0000306236;6.1316;-14.4682;4.4245;-0.4355;0.0378;0.0253
0000306244;6.2225;-14.2670;4.1803;-0.4519;0.0422;0.0293
0000306255;6.3853;-13.9199;3.9025;-0.4803;0.0521;0.0378
0000306263;6.3207;-13.9007;3.6871;-0.5056;0.0568;0.0537
0000306271;6.3087;-13.7475;3.4955;-0.5407;0.0725;0.0810
0000306283;6.5434;-13.4339;3.2753;-0.5890;0.1045;0.1136
0000306291;6.5960;-13.2543;3.2777;-0.6147;0.1192;0.1259
0000306302;6.5098;-13.1657;3.0981;-0.6572;0.1323;0.1304
0000306310;6.5050;-13.0077;2.9928;-0.6852;0.1479;0.1323
0000306322;6.4476;-12.7036;2.9592;-0.7418;0.1506;0.1314
0000306330;6.4643;-12.5073;2.7725;-0.7841;0.1531;0.1244
0000306342;6.2584;-12.7348;2.7725;-0.8463;0.1358;0.1094
0000306350;6.2776;-12.6605;2.7533;-0.8891;0.1363;0.1078
0000306358;6.1651;-12.9766;2.6288;-0.9281;0.1318;0.0957
0000306425;6.2489;-12.7779;2.7701;-0.9653;0.0718;0.1160
0000306433;6.3662;-12.8808;2.8467;-0.9773;0.0774;0.1166
0000306445;6.3734;-12.7036;2.7485;-0.9729;0.0886;0.1230
0000306453;6.4021;-13.0580;2.7198;-0.9826;0.1005;0.1252
0000306465;6.4428;-13.0005;2.7150;-0.9810;0.1148;0.1191
0000306473;6.3973;-12.9909;2.7198;-0.9737;0.1227;0.1207
0000306485;6.2153;-12.9526;2.5355;-0.9630;0.1338;0.1198
0000306493;5.9951;-12.7946;2.5379;-0.9506;0.1355;0.1122
0000306501;6.0789;-12.8473;2.6217;-0.9567;0.1315;0.1095
0000306513;5.8993;-12.9311;2.6552;-0.9603;0.1240;0.1045
0000306521;5.8538;-13.0699;2.7031;-0.9631;0.1174;0.1062
0000306533;5.8826;-13.4219;2.7725;-0.9649;0.1208;0.1227
0000306541;5.9089;-13.5560;2.7509;-0.9494;0.1194;0.1166
0000306553;5.8131;-13.7451;2.8754;-0.9178;0.1130;0.1156
0000306561;5.8227;-13.7738;2.7725;-0.8926;0.0973;0.1162
0000306573;5.6336;-13.9606;2.6647;-0.8564;0.0550;0.1108
0000306581;5.5809;-14.0300;2.7126;-0.8272;0.0357;0.1095
0000306589;5.6144;-14.0133;2.7054;-0.7867;0.0049;0.0994
0000306600;5.6599;-13.9797;2.6456;-0.7445;-0.0136;0.0949
0000306608;5.7533;-13.9534;2.6647;-0.7276;-0.0256;0.0914
0000306620;5.6407;-14.2096;2.8706;-0.6935;-0.0585;0.0975
0000306628;5.6479;-14.3628;2.7438;-0.6813;-0.0721;0.1026
0000306695;6.1435;-15.5360;2.7581;-0.5077;-0.0590;0.0544
0000306703;6.2608;-15.6748;2.5714;-0.4860;-0.0437;0.0449
0000306715;6.1076;-15.8592;2.5977;-0.4494;-0.0330;0.0201
0000306723;6.0094;-15.9382;2.6480;-0.4373;-0.0161;0.0113
0000306735;5.9065;-15.8927;2.5259;-0.4134;0.0059;-0.0099
0000306743;5.7054;-15.6557;2.4541;-0.4096;0.0061;-0.0141
0000306751;5.8634;-15.6054;2.2386;-0.4106;0.0044;-0.0152
0000306763;5.8299;-15.6246;2.1141;-0.4097;0.0157;-0.0083
0000306771;5.6647;-15.7898;1.8675;-0.3954;0.0205;-0.0041
0000306783;6.1483;-15.5719;1.9082;-0.4002;0.0428;0.0120
0000306791;5.8706;-15.7586;1.9082;-0.3900;0.0433;0.0175
0000306803;6.0908;-15.9143;1.8028;-0.3691;0.0368;0.0117
0000306811;5.7772;-16.2303;1.6975;-0.3513;0.0428;0.0119
0000306823;5.6838;-16.3596;1.6592;-0.3328;0.0470;0.0013
0000306831;5.6048;-16.4769;1.7119;-0.3175;0.0405;-0.0029
0000306839;5.5761;-16.6158;1.6400;-0.3103;0.0397;0.0057
0000306851;5.3965;-16.7043;1.5275;-0.2474;0.0184;0.0003
0000306859;5.5426;-16.5368;1.5610;-0.1972;0.0103;0.0020
0000306871;5.6551;-16.4577;1.5203;-0.1551;-0.0093;0.0184
0000306879;5.4875;-16.4123;1.4940;-0.1290;-0.0140;0.0298
0000306891;5.7485;-16.5104;1.5036;-0.0882;-0.0175;0.0396
0000306899;5.6886;-16.6349;1.4078;-0.0589;-0.0438;0.0406
0000306966;4.9440;-16.3787;1.7142;0.0417;-0.1827;0.0157
0000306974;5.0278;-16.0412;1.5921;0.0436;-0.2126;0.0220
0000306986;5.1212;-15.8879;1.5012;0.0246;-0.2373;0.0228
0000306994;5.2433;-15.6772;1.4485;0.0151;-0.2463;0.0153
0000307002;5.4755;-15.5168;1.3934;-0.0064;-0.2511;0.0144
0000307014;5.8610;-15.2511;1.1803;-0.0476;-0.2458;0.0163
0000307022;5.7772;-15.2989;1.1229;-0.0642;-0.2482;0.0019
0000307034;5.8227;-15.3373;1.1109;-0.1100;-0.2317;-0.0043
0000307042;5.7461;-15.5623;1.0918;-0.1450;-0.2141;-0.0136
0000307054;5.6623;-15.7993;0.9433;-0.1631;-0.1947;-0.0123
0000307062;5.9304;-15.8352;0.9960;-0.1507;-0.1799;-0.0013
0000307074;5.9640;-16.0388;0.9266;-0.1486;-0.1619;0.0184
0000307082;5.7748;-16.2949;0.9361;-0.1549;-0.1472;0.0240
0000307093;5.7533;-16.3069;0.8787;-0.1178;-0.1288;0.0197
0000307101;5.8131;-16.1848;0.8739;-0.0837;-0.1167;0.0224
0000307109;5.7652;-16.3045;0.9361;-0.0669;-0.1034;0.0117
0000307121;5.4684;-16.4027;0.8691;-0.0722;-0.1069;-0.0128
0000307129;5.4684;-16.5487;0.8882;-0.0650;-0.1035;-0.0213
0000307141;5.4324;-16.3859;0.9744;-0.0309;-0.1075;-0.0361
0000307149;5.6096;-16.1465;0.9290;-0.0240;-0.1158;-0.0392
0000307161;5.4995;-16.1178;0.9744;-0.0217;-0.1355;-0.0324
0000307169;5.7030;-15.9909;0.9529;-0.0205;-0.1251;-0.0284
0000307236;5.6048;-16.2087;0.8499;-0.0354;-0.1311;-0.0135
0000307244;5.5665;-16.0340;0.9194;-0.0305;-0.1311;-0.0100
0000307256;5.4420;-15.9669;0.9170;-0.0278;-0.1339;-0.0063
0000307264;5.6671;-15.7443;0.9074;-0.0238;-0.1499;-0.0143
0000307272;5.5498;-15.7922;0.8954;-0.0316;-0.1470;-0.0105
0000307284;5.6599;-15.7515;0.9242;-0.0472;-0.1514;-0.0101
0000307292;5.5402;-15.8185;0.8284;-0.0584;-0.1565;-0.0107
0000307305;5.8634;-15.6892;0.8356;-0.0457;-0.1612;-0.0020
0000307314;5.6527;-15.9286;0.8356;-0.0777;-0.1561;0.0051
0000307327;5.4899;-16.1106;0.7374;-0.0927;-0.1601;-0.0065
0000307336;5.5761;-16.1106;0.8595;-0.0865;-0.1612;-0.0143
0000307349;5.7078;-16.0771;0.7877;-0.0685;-0.1717;-0.0151
0000307358;5.4372;-16.2949;0.7494;-0.0385;-0.1741;-0.0040
0000307371;5.6000;-16.1489;0.6536;-0.0765;-0.1637;0.0064
0000307380;5.5809;-16.1561;0.7853;-0.0773;-0.1681;-0.0073
0000307393;5.7628;-16.1321;0.8763;-0.0614;-0.1637;-0.0096
0000307402;5.8203;-15.9095;0.7997;-0.0652;-0.1641;-0.0137
0000307411;5.8706;-16.0124;0.7997;-0.0634;-0.1621;-0.0095
0000307424;5.5067;-16.2566;0.7350;-0.0645;-0.1591;-0.0111
0000307433;5.6575;-16.1920;0.8475;-0.0633;-0.1631;-0.0171
0000307446;5.6838;-15.9837;0.8380;-0.0514;-0.1661;-0.0149
0000307455;5.5713;-16.0459;0.7135;-0.0593;-0.1661;-0.0104
0000307523;5.8921;-15.9789;0.7709;-0.0514;-0.1713;-0.0099
0000307532;5.7868;-15.8760;0.6967;-0.0569;-0.1608;-0.0023
0000307545;5.8466;-15.8616;0.6752;-0.0685;-0.1557;-0.0041
0000307554;5.8873;-15.8927;0.6177;-0.0838;-0.1438;0.0064
0000307567;5.9304;-15.8640;0.6129;-0.0893;-0.1339;-0.0043
0000307576;5.6910;-15.8927;0.7183;-0.0943;-0.1283;-0.0051
0000307589;5.6695;-16.0531;0.6033;-0.1001;-0.1158;0.0000
0000307598;5.6431;-16.0459;0.6632;-0.1018;-0.1155;-0.0023
0000307607;5.6790;-16.1249;0.5722;-0.1031;-0.1099;-0.0011
0000307620;5.5665;-16.2614;0.6081;-0.0942;-0.1095;-0.0032
0000307629;5.8083;-16.0747;0.4956;-0.0937;-0.1083;-0.0099
0000307642;5.7150;-16.3189;0.5195;-0.0830;-0.1010;-0.0108
0000307651;5.9065;-16.2399;0.4812;-0.0798;-0.0911;-0.0048
0000307664;5.8059;-16.1656;0.4645;-0.0682;-0.0803;-0.0075
0000307673;5.9640;-16.0483;0.5411;-0.0597;-0.0791;-0.0133
0000307686;5.7413;-15.9861;0.5459;-0.0490;-0.0698;-0.0099
0000307695;6.0885;-15.8616;0.4357;-0.0566;-0.0606;-0.0051
0000307708;5.7772;-16.1297;0.5004;-0.0564;-0.0525;-0.0037
0000307717;5.7964;-15.9047;0.5578;-0.0649;-0.0406;-0.0029
0000307726;5.6719;-16.0268;0.5435;-0.0597;-0.0384;-0.0059
0000307739;5.7628;-16.0005;0.5866;-0.0570;-0.0353;-0.0059
0000307748;5.6527;-16.0220;0.5746;-0.0560;-0.0389;-0.0125
0000307819;5.5617;-16.2064;0.5890;-0.0216;-0.0284;-0.0084
0000307828;5.7221;-16.1968;0.4166;-0.0179;-0.0304;-0.0077
0000307841;5.5905;-16.1297;0.5339;-0.0148;-0.0304;-0.0044
0000307850;5.7269;-16.0531;0.6033;-0.0083;-0.0302;-0.0084
0000307862;5.7748;-16.1034;0.4645;-0.0037;-0.0264;-0.0088
0000307871;5.9113;-15.9909;0.5578;-0.0040;-0.0238;-0.0103
0000307884;5.6719;-16.0938;0.5195;-0.0080;-0.0147;-0.0097
0000307893;5.7652;-16.0651;0.6225;-0.0035;-0.0225;-0.0163
0000307905;5.7700;-16.0052;0.6656;-0.0075;-0.0181;-0.0119
0000307914;5.6719;-16.1154;0.5722;-0.0148;-0.0043;-0.0063
0000307923;5.8730;-16.0076;0.7230;-0.0065;-0.0036;-0.0095
0000307936;5.7485;-16.0699;0.5986;-0.0116;0.0005;-0.0081
0000307945;5.7365;-16.0388;0.6201;-0.0055;-0.0016;-0.0116
0000307957;5.6910;-16.0292;0.6369;-0.0104;0.0019;-0.0073
0000307966;5.6599;-16.0651;0.6632;-0.0144;0.0005;-0.0101
0000307979;5.5593;-15.9334;0.6225;-0.0160;-0.0068;-0.0139
0000307988;5.6024;-16.0292;0.6512;-0.0230;0.0004;-0.0068
0000308000;5.5234;-16.0292;0.6033;-0.0322;-0.0028;-0.0076
0000308009;5.3870;-16.0316;0.6249;-0.0372;-0.0067;-0.0039
0000308078;5.6767;-16.0699;0.6321;-0.0332;-0.0300;-0.0125
0000308087;5.6192;-16.0842;0.5507;-0.0309;-0.0309;-0.0140
0000308099;5.8442;-16.0340;0.6560;-0.0336;-0.0252;-0.0068
0000308108;5.7509;-15.9717;0.5411;-0.0365;-0.0261;-0.0079
0000308117;5.5450;-16.0771;0.6345;-0.0369;-0.0205;-0.0007
0000308130;5.7628;-16.1249;0.5578;-0.0449;-0.0147;-0.0019
0000308139;5.7197;-15.9765;0.6129;-0.0376;-0.0196;-0.0075
0000308151;5.6551;-16.0723;0.6632;-0.0424;-0.0127;-0.0059
0000308160;5.7437;-16.0627;0.6608;-0.0440;-0.0127;-0.0101
0000308173;5.7604;-16.0076;0.5028;-0.0412;-0.0188;-0.0077
0000308182;5.6192;-16.0962;0.5914;-0.0360;-0.0238;-0.0117
0000308194;5.5569;-16.1680;0.6560;-0.0433;-0.0191;-0.0157
0000308203;5.5857;-16.0340;0.7302;-0.0393;-0.0226;-0.0153
0000308216;5.6551;-16.0842;0.5578;-0.0377;-0.0188;-0.0204
0000308225;5.7437;-16.0364;0.5986;-0.0422;-0.0165;-0.0131
0000308237;5.6455;-16.1992;0.6297;-0.0340;-0.0222;-0.0175
0000308246;5.6024;-16.1369;0.6129;-0.0316;-0.0117;-0.0117
0000308255;5.7365;-16.0842;0.5411;-0.0270;-0.0207;-0.0225
0000308268;5.5905;-16.1082;0.5938;-0.0207;-0.0140;-0.0185
0000308277;5.6336;-16.1800;0.6153;-0.0195;-0.0187;-0.0217
0000308289;5.4540;-16.1489;0.6105;-0.0220;-0.0161;-0.0240
0000308298;5.4899;-16.0723;0.6273;-0.0289;-0.0093;-0.0157
0000308367;5.6814;-15.9693;0.5363;-0.0264;0.0167;-0.0199
0000308376;5.4971;-16.1178;0.4549;-0.0233;0.0088;-0.0294
0000308388;5.6192;-16.1178;0.4788;-0.0245;0.0131;-0.0245
0000308397;5.5091;-16.0842;0.4884;-0.0179;0.0131;-0.0296
0000308410;5.7676;-16.0723;0.4645;-0.0250;0.0109;-0.0257
0000308419;5.6958;-16.0148;0.4836;-0.0256;0.0133;-0.0282
0000308428;5.6192;-16.0723;0.5698;-0.0266;0.0207;-0.0230
0000308440;5.6240;-16.1130;0.5100;-0.0232;0.0218;-0.0220
0000308449;5.7174;-16.0531;0.5555;-0.0245;0.0268;-0.0265
0000308462;5.7365;-16.0052;0.4286;-0.0249;0.0281;-0.0272
0000308471;5.6838;-16.1154;0.5219;-0.0309;0.0373;-0.0217
0000308483;5.9065;-15.9238;0.5411;-0.0297;0.0409;-0.0208
0000308492;5.6144;-16.1537;0.4812;-0.0292;0.0392;-0.0256
0000308505;5.7197;-16.0316;0.4788;-0.0270;0.0452;-0.0232
0000308514;5.7221;-16.1369;0.4621;-0.0211;0.0397;-0.0289
0000308526;5.7150;-16.0723;0.4166;-0.0260;0.0474;-0.0224
0000308535;5.7078;-16.0196;0.4932;-0.0207;0.0412;-0.0334
0000308544;5.5665;-16.1321;0.5387;-0.0269;0.0456;-0.0225
0000308557;5.6575;-16.0388;0.5315;-0.0232;0.0462;-0.0270
0000308566;5.5641;-16.0292;0.4836;-0.0193;0.0397;-0.0350
0000308578;5.5162;-16.0842;0.5818;-0.0215;0.0430;-0.0248
0000308587;5.6599;-16.1273;0.4741;-0.0189;0.0365;-0.0310
0000308656;5.5952;-16.2040;0.4932;-0.0103;0.0254;-0.0282
0000308665;5.5617;-16.0795;0.4669;-0.0079;0.0152;-0.0300
0000308677;5.6479;-16.1441;0.4477;-0.0145;0.0116;-0.0282
0000308686;5.4995;-16.0603;0.3687;-0.0171;0.0092;-0.0213
0000308699;5.5833;-15.9047;0.3711;-0.0188;0.0039;-0.0211
0000308708;5.4205;-16.0124;0.5578;-0.0187;-0.0035;-0.0181
0000308717;5.6144;-16.0435;0.4669;-0.0241;-0.0029;-0.0245
0000308729;5.6264;-15.9454;0.4669;-0.0159;-0.0152;-0.0281
0000308738;5.6958;-15.9645;0.4956;-0.0253;-0.0148;-0.0199
0000308751;5.6312;-15.9190;0.5626;-0.0254;-0.0236;-0.0245
0000308760;5.6216;-16.0555;0.5028;-0.0309;-0.0286;-0.0296
0000308772;5.4660;-16.0866;0.4812;-0.0306;-0.0350;-0.0292
0000308781;5.5186;-16.1058;0.5555;-0.0333;-0.0350;-0.0240
0000308794;5.6192;-15.9933;0.4286;-0.0342;-0.0429;-0.0244
0000308803;5.6814;-16.0100;0.5626;-0.0333;-0.0528;-0.0240
0000308815;5.4181;-16.1585;0.5219;-0.0324;-0.0598;-0.0221
0000308824;5.5258;-16.1656;0.4405;-0.0346;-0.0566;-0.0185
0000308837;5.5210;-16.1968;0.4741;-0.0300;-0.0694;-0.0249
0000308846;5.5545;-16.0914;0.4477;-0.0296;-0.0737;-0.0222
0000308855;5.5952;-16.0412;0.4573;-0.0250;-0.0806;-0.0220
0000308867;5.6360;-16.0412;0.4477;-0.0238;-0.0834;-0.0155
0000308876;5.4995;-16.0962;0.5674;-0.0179;-0.0879;-0.0187
0000308945;5.5210;-16.1034;0.4788;-0.0131;-0.0934;-0.0137
0000308954;5.7365;-16.0771;0.5291;-0.0203;-0.0894;-0.0127
0000308966;5.7006;-16.0028;0.4908;-0.0161;-0.0929;-0.0153
0000308975;5.6503;-16.0148;0.4621;-0.0177;-0.0909;-0.0091
0000308988;5.5402;-16.0771;0.4741;-0.0205;-0.0946;-0.0145
0000308997;5.5306;-16.0795;0.5028;-0.0222;-0.0922;-0.0095
0000309009;5.6264;-15.9957;0.4214;-0.0248;-0.0954;-0.0109
0000309018;5.6958;-16.0747;0.5291;-0.0254;-0.0909;-0.0097
0000309031;5.6216;-16.2016;0.5148;-0.0292;-0.0899;-0.0111
0000309040;5.6503;-15.9837;0.4908;-0.0204;-0.0918;-0.0115
0000309049;5.8179;-16.1202;0.4190;-0.0272;-0.0861;-0.0081
0000309061;5.6216;-16.2542;0.4405;-0.0234;-0.0895;-0.0084
0000309070;5.6479;-16.0627;0.4908;-0.0199;-0.0863;-0.0151
0000309083;5.5665;-16.1920;0.4334;-0.0192;-0.0833;-0.0137
0000309092;5.6623;-16.0986;0.4741;-0.0197;-0.0829;-0.0100
0000309104;5.7174;-16.1058;0.3759;-0.0264;-0.0789;-0.0092
0000309113;5.5450;-16.2518;0.4094;-0.0204;-0.0835;-0.0120
0000309126;5.7269;-16.0579;0.4262;-0.0233;-0.0779;-0.0020
0000309135;5.6216;-16.1656;0.4405;-0.0199;-0.0781;-0.0083
0000309147;5.6144;-16.1273;0.4334;-0.0175;-0.0745;-0.0111
0000309156;5.8107;-16.0459;0.4884;-0.0257;-0.0678;-0.0063
0000309165;5.7413;-16.0005;0.4597;-0.0144;-0.0697;-0.0148
0000309234;5.9185;-15.9741;0.4453;-0.0163;-0.0462;-0.0023
0000309243;5.8371;-16.0555;0.4597;-0.0061;-0.0512;-0.0073
0000309254;5.6695;-16.2710;0.4070;-0.0012;-0.0509;-0.0105
0000309263;5.7437;-16.1585;0.4190;-0.0019;-0.0436;-0.0060
0000309277;5.7676;-16.0268;0.3759;0.0068;-0.0404;-0.0124
0000309286;5.6695;-16.0507;0.5028;0.0028;-0.0349;-0.0167
0000309299;5.6144;-16.1106;0.4142;0.0057;-0.0410;-0.0203
0000309308;5.6958;-16.0005;0.4884;-0.0057;-0.0284;-0.0164
0000309320;5.6814;-15.9406;0.5195;-0.0052;-0.0318;-0.0145
0000309329;5.6383;-16.1034;0.4717;-0.0072;-0.0274;-0.0188
0000309342;5.6288;-16.0914;0.5124;-0.0012;-0.0356;-0.0207
0000309351;5.7006;-16.2303;0.4573;-0.0040;-0.0298;-0.0189
0000309360;5.7245;-16.1824;0.5483;-0.0003;-0.0313;-0.0191
0000309372;5.7820;-16.1130;0.4477;-0.0019;-0.0296;-0.0177
0000309381;5.6048;-16.2662;0.4190;0.0041;-0.0313;-0.0105
0000309394;5.9065;-15.9478;0.4812;0.0020;-0.0276;-0.0085
0000309403;5.6743;-16.0723;0.4908;0.0021;-0.0276;-0.0121
0000309415;5.7557;-16.0651;0.5626;-0.0015;-0.0254;-0.0089
0000309424;5.7916;-15.9837;0.5124;-0.0036;-0.0265;-0.0147
0000309492;5.5522;-16.1585;0.4453;-0.0097;-0.0337;-0.0209
0000309501;5.7341;-16.0962;0.3783;-0.0083;-0.0345;-0.0163
0000309513;5.7724;-16.0819;0.3950;-0.0055;-0.0429;-0.0156
0000309522;5.5617;-16.1800;0.4741;-0.0055;-0.0404;-0.0124
0000309535;5.7652;-16.0986;0.4334;-0.0048;-0.0362;-0.0123
0000309544;5.6120;-16.1154;0.4094;-0.0020;-0.0402;-0.0185
0000309553;5.9065;-15.8927;0.4717;-0.0140;-0.0256;-0.0156
0000309565;5.9831;-15.7922;0.5531;-0.0224;-0.0197;-0.0218
0000309574;5.5881;-16.0028;0.5411;-0.0337;-0.0152;-0.0217
0000309587;5.7892;-15.8376;0.5315;-0.0504;-0.0087;-0.0136
0000309596;5.7317;-15.8472;0.5507;-0.0633;-0.0124;-0.0180
0000309608;5.7509;-15.8592;0.5387;-0.0754;-0.0124;-0.0176
0000309617;5.6647;-16.0531;0.5171;-0.0762;-0.0140;-0.0169
0000309630;5.5186;-16.2566;0.5028;-0.0786;-0.0172;-0.0205
0000309639;5.5761;-16.2734;0.5698;-0.0713;-0.0240;-0.0269
0000309651;5.5498;-16.3332;0.5890;-0.0614;-0.0334;-0.0328
0000309660;5.8419;-16.1800;0.5171;-0.0533;-0.0306;-0.0320
0000309673;5.8155;-16.0028;0.6009;-0.0476;-0.0278;-0.0324
0000309682;5.8083;-16.0172;0.4501;-0.0548;-0.0225;-0.0314
0000309691;6.0118;-15.9933;0.5602;-0.0469;-0.0292;-0.0358
0000309703;5.7221;-16.1824;0.5387;-0.0545;-0.0306;-0.0341
0000309712;5.8466;-16.1417;0.6393;-0.0581;-0.0216;-0.0296
0000309781;5.7054;-15.9933;0.4908;-0.0386;-0.0304;-0.0380
0000309790;5.6312;-16.0172;0.5076;-0.0404;-0.0309;-0.0422
0000309802;5.8610;-15.9813;0.5171;-0.0421;-0.0328;-0.0408
0000309811;5.7174;-16.2159;0.4693;-0.0374;-0.0368;-0.0460
0000309824;5.7245;-16.2231;0.5195;-0.0358;-0.0389;-0.0501
0000309833;5.8275;-16.1537;0.4717;-0.0321;-0.0314;-0.0484
0000309845;5.6814;-16.2901;0.5435;-0.0230;-0.0326;-0.0433
0000309854;5.7581;-16.0747;0.5076;-0.0092;-0.0460;-0.0456
0000309863;5.7892;-16.0771;0.4669;-0.0128;-0.0390;-0.0368
0000309876;5.6551;-16.1178;0.5148;-0.0117;-0.0409;-0.0385
0000309885;5.7868;-15.9909;0.4764;-0.0143;-0.0464;-0.0421
0000309897;5.7964;-15.9861;0.4860;-0.0172;-0.0506;-0.0526
0000309906;5.8778;-15.9430;0.3903;-0.0310;-0.0449;-0.0502
0000309919;5.7940;-16.1010;0.4262;-0.0294;-0.0414;-0.0569
0000309928;5.7940;-16.1417;0.4453;-0.0160;-0.0406;-0.0512
0000309940;5.8275;-16.1752;0.3950;-0.0020;-0.0360;-0.0497
0000309949;5.9209;-15.9190;0.2586;0.0003;-0.0276;-0.0476
0000309962;5.8873;-16.1345;0.2155;-0.0015;-0.0157;-0.0381
0000309971;5.8849;-15.9574;0.2682;-0.0089;-0.0127;-0.0393
0000309983;5.8395;-15.8999;0.3184;-0.0141;-0.0081;-0.0410
0000309992;5.7485;-15.8999;0.2203;-0.0237;0.0037;-0.0364
0000310001;5.8155;-15.9693;0.2801;-0.0344;0.0081;-0.0329
0000310070;5.6647;-16.1848;0.2179;0.0075;0.0033;-0.0272
0000310079;5.8706;-16.0148;0.1413;0.0067;0.0036;-0.0302
0000310091;5.5450;-16.0364;0.2107;0.0025;0.0063;-0.0222
0000310100;5.7245;-15.9430;0.1628;-0.0112;0.0044;-0.0268
0000310113;5.6934;-15.8951;0.1173;-0.0153;0.0063;-0.0284
0000310122;5.6886;-15.9190;0.0958;-0.0167;-0.0035;-0.0376
0000310134;5.8179;-16.0459;0.1676;-0.0246;0.0008;-0.0298
0000310143;5.6647;-16.1369;0.2921;-0.0183;-0.0013;-0.0406
0000310156;5.7174;-16.1369;0.2729;-0.0123;0.0060;-0.0353
0000310165;5.8107;-16.1130;0.3256;-0.0132;0.0127;-0.0373
0000310174;5.8514;-16.0316;0.3089;-0.0119;0.0274;-0.0353
0000310186;5.7509;-16.0076;0.2490;-0.0269;0.0337;-0.0401
0000310195;5.7317;-16.0675;0.3112;-0.0398;0.0430;-0.0298
0000310208;5.8873;-16.0100;0.3065;-0.0433;0.0478;-0.0264
0000310217;5.6623;-16.2734;0.2729;-0.0256;0.0426;-0.0369
0000310229;5.7892;-16.1800;0.2322;-0.0425;0.0441;-0.0212
0000310238;5.6623;-16.2566;0.1580;-0.0330;0.0444;-0.0189
0000310251;5.6024;-16.1968;0.2083;-0.0240;0.0422;-0.0165
0000310260;5.8131;-16.1656;0.1724;-0.0156;0.0341;-0.0261
0000310272;5.6455;-16.3620;0.2107;-0.0117;0.0280;-0.0258
0000310281;5.6168;-16.2566;0.2586;-0.0064;0.0284;-0.0274
0000310290;5.6599;-16.2949;0.2634;0.0053;0.0256;-0.0314
0000310359;5.7102;-15.9621;0.3208;0.0429;-0.0334;-0.0161
0000310368;5.7820;-15.9023;0.2442;0.0385;-0.0401;-0.0088
0000310380;5.7940;-15.8257;0.3519;0.0381;-0.0536;-0.0087
0000310389;5.8275;-15.8305;0.3089;0.0183;-0.0528;-0.0100
0000310402;5.8993;-15.7850;0.2873;0.0093;-0.0644;-0.0035
0000310411;5.6455;-15.9909;0.3639;0.0035;-0.0811;-0.0137
0000310423;5.6623;-15.9885;0.4142;-0.0029;-0.0937;-0.0105
0000310432;5.8371;-15.8496;0.4669;-0.0136;-0.1009;-0.0151
0000310445;5.7748;-15.7203;0.6464;-0.0290;-0.1115;-0.0175
0000310454;5.6360;-16.1106;0.4836;-0.0636;-0.1116;-0.0012
0000310463;5.6647;-16.0842;0.5674;-0.0584;-0.1304;-0.0091
0000310475;5.8586;-16.0052;0.5674;-0.0648;-0.1440;-0.0027
0000310484;5.8778;-15.9837;0.5986;-0.0731;-0.1478;0.0069
0000310497;5.8826;-15.8760;0.5411;-0.0810;-0.1553;0.0056
0000310506;5.9065;-15.9430;0.6153;-0.0931;-0.1645;0.0084
0000310518;5.8802;-15.8424;0.5100;-0.1009;-0.1677;-0.0005
0000310527;5.8299;-15.8257;0.5531;-0.1283;-0.1593;0.0000
0000310540;5.9592;-15.9765;0.5578;-0.1375;-0.1617;-0.0105
0000310547;5.9280;-15.9909;0.4788;-0.1391;-0.1712;-0.0131
0000310558;5.9664;-16.1752;0.4262;-0.1391;-0.1741;-0.0161
0000310566;5.7174;-16.3620;0.4334;-0.1352;-0.1759;-0.0168
0000310574;5.7150;-16.4194;0.4549;-0.1231;-0.1825;-0.0246
0000310640;6.2896;-16.0172;0.3807;-0.0258;-0.1264;-0.0472
0000310648;6.0980;-16.1249;0.3926;-0.0183;-0.1187;-0.0541
0000310659;6.0525;-15.9262;0.3472;-0.0284;-0.0969;-0.0518
0000310667;6.3662;-15.7491;0.3759;-0.0428;-0.0855;-0.0476
