time;acc_x;acc_y;acc_z;gyro_x;gyro_y;gyro_z
0000319812;8.2791;3.2465;-0.9098;0.0123;0.0412;-0.0504
0000319820;8.2265;3.3375;-0.9050;0.0008;0.0617;-0.0518
0000319827;8.1762;3.4237;-0.9529;-0.0027;0.0705;-0.0493
0000319835;7.9344;3.4668;-0.8571;-0.0057;0.0809;-0.0408
0000319901;7.5681;3.5171;-0.9361;-0.0677;-0.0128;-0.0510
0000319909;7.4986;3.4884;-0.9816;-0.0841;-0.0192;-0.0565
0000319921;7.6926;3.3303;-0.6560;-0.0907;-0.0412;-0.0729
0000319929;7.4939;3.0885;-0.6704;-0.0913;-0.0500;-0.0749
0000319937;7.7165;3.1675;-0.6919;-0.0829;-0.0666;-0.0839
0000319948;7.5298;2.7749;-0.5052;-0.0671;-0.0850;-0.0827
0000319956;7.4699;2.9233;-0.5076;-0.0490;-0.1005;-0.0869
0000319968;7.6399;3.1077;-0.4717;-0.0306;-0.1216;-0.0845
0000319976;7.3789;2.9975;-0.4501;-0.0258;-0.1275;-0.0894
0000319987;7.4603;3.0406;-0.4860;-0.0233;-0.1498;-0.0938
0000319995;7.5537;3.0550;-0.5483;-0.0300;-0.1645;-0.1003
0000320007;7.6136;3.0765;-0.4286;-0.0317;-0.1841;-0.1152
0000320015;7.5729;2.9736;-0.3974;-0.0217;-0.1947;-0.1220
0000320026;7.5178;2.9257;-0.4022;0.0023;-0.2042;-0.1402
0000320034;7.2880;2.8443;-0.3903;0.0175;-0.2060;-0.1470
0000320042;7.5441;2.8515;-0.3831;0.0432;-0.2108;-0.1575
0000320054;7.4268;2.7916;-0.1867;0.0698;-0.2001;-0.1784
0000320062;7.4795;2.7701;-0.1460;0.0813;-0.1780;-0.1808
0000320073;7.5298;2.6719;-0.0982;0.1095;-0.1528;-0.1908
0000320081;7.5441;2.7581;-0.0742;0.1311;-0.1191;-0.1748
0000320093;7.7596;2.8850;-0.1030;0.1499;-0.0649;-0.1330
0000320101;7.3909;2.8060;-0.2801;0.1537;-0.0336;-0.0921
0000320168;8.0996;4.4197;-0.5722;-0.0409;0.1096;-0.0376
0000320176;8.1475;4.4149;-0.6488;-0.0518;0.1342;-0.0659
0000320184;7.8961;4.1803;-0.6105;-0.0446;0.1576;-0.0949
0000320196;7.4819;3.7469;-0.8595;-0.0139;0.2006;-0.1144
0000320204;7.1443;3.5338;-0.9290;0.0092;0.2274;-0.1159
0000320215;6.7397;3.3878;-1.1923;0.0296;0.2403;-0.1074
0000320223;6.6176;3.4022;-1.3240;0.0354;0.2345;-0.0915
0000320235;6.3231;3.4764;-1.4102;0.0132;0.2141;-0.0577
0000320243;6.0789;3.6296;-1.5131;-0.0092;0.1896;-0.0304
0000320251;6.1603;3.8547;-1.4653;-0.0412;0.1632;-0.0294
0000320262;6.1794;3.9265;-1.3791;-0.0675;0.1082;-0.0438
0000320270;6.2441;4.0941;-1.2665;-0.0801;0.0781;-0.0659
0000320282;6.3446;4.0965;-1.2785;-0.1062;0.0326;-0.1078
0000320290;6.3111;3.7996;-1.2857;-0.1170;0.0044;-0.1299
0000320301;6.6631;3.7038;-1.2426;-0.1334;-0.0288;-0.1486
0000320309;6.5290;3.4979;-1.1205;-0.1454;-0.0494;-0.1529
0000320321;6.7038;3.3926;-1.1061;-0.1653;-0.0683;-0.1371
0000320329;6.5003;3.1556;-1.1037;-0.1715;-0.0746;-0.1138
0000320340;6.7445;3.1915;-0.9577;-0.1803;-0.0801;-0.0923
0000320348;6.5864;2.8347;-1.0822;-0.1871;-0.0698;-0.0683
0000320356;6.7325;2.7270;-0.8308;-0.1972;-0.0612;-0.0564
0000320368;6.8809;2.7461;-0.7278;-0.1949;-0.0536;-0.0417
0000320376;6.7469;2.5642;-0.7733;-0.1913;-0.0477;-0.0417
0000320440;6.4524;3.6512;-1.5514;-0.1831;-0.0256;0.0390
0000320448;6.2704;3.5913;-1.5275;-0.2090;-0.0298;0.0586
0000320460;6.2896;3.5721;-1.4844;-0.2298;-0.0528;0.0794
0000320468;6.1986;3.3998;-1.2833;-0.2252;-0.0678;0.0879
0000320479;6.2177;3.0622;-1.3024;-0.2002;-0.1031;0.1026
0000320487;6.2824;2.9688;-1.2594;-0.1844;-0.1314;0.1158
0000320495;6.3375;2.9329;-1.2258;-0.1731;-0.1510;0.1354
0000320507;6.1603;2.8898;-1.2258;-0.1645;-0.1901;0.1568
0000320515;6.2920;3.0550;-1.2594;-0.1728;-0.2136;0.1683
0000320526;6.3422;3.0478;-1.4150;-0.1635;-0.2478;0.1641
0000320534;6.3758;3.1627;-1.4772;-0.1525;-0.2655;0.1645
0000320546;6.2824;3.1364;-1.5467;-0.1406;-0.2923;0.1506
0000320554;6.2513;3.2729;-1.5251;-0.1324;-0.3084;0.1354
0000320565;6.4691;3.5458;-1.5586;-0.1414;-0.3142;0.1246
0000320573;6.3398;3.4740;-1.5682;-0.1593;-0.3088;0.1292
0000320581;6.5170;3.6895;-1.5347;-0.1716;-0.3126;0.1366
0000320593;6.5386;3.4668;-1.4150;-0.2064;-0.2996;0.1611
0000320601;6.5577;3.4093;-1.3695;-0.2120;-0.2956;0.1721
0000320612;6.5793;3.2513;-1.3455;-0.2100;-0.2915;0.1831
0000320620;6.4404;3.0861;-1.3647;-0.2125;-0.2906;0.1933
0000320632;6.5027;3.1819;-1.1756;-0.2100;-0.2822;0.1952
0000320640;6.3734;3.0861;-1.3312;-0.2138;-0.2843;0.1962
0000320707;9.0309;4.2808;2.6073;-0.0500;-0.3667;0.0636
0000320715;9.7396;4.5370;2.3415;0.0549;-0.3242;-0.0116
0000320723;10.2376;4.8363;1.5754;0.1587;-0.2501;-0.0963
0000320735;9.8186;5.2720;0.5674;0.2713;-0.0830;-0.1891
0000320743;8.2648;5.0302;-0.4764;0.2489;0.0421;-0.1727
0000320754;6.0908;4.3646;-0.5602;0.1820;0.1601;-0.0592
0000320762;4.8770;4.0127;-0.3424;0.1916;0.1777;0.0440
0000320774;3.9672;3.5745;-0.0862;0.2491;0.0891;0.2056
0000320782;4.3551;3.8595;0.0862;0.2645;-0.0144;0.2805
0000320793;5.3989;3.7373;0.3256;0.2288;-0.1588;0.3214
0000320801;6.2058;3.6105;0.5219;0.1951;-0.2445;0.3110
0000320809;7.1826;3.3184;0.7925;0.1875;-0.3200;0.2939
0000320821;8.9998;3.0526;1.2474;0.2238;-0.3653;0.2546
0000320829;9.6175;2.4708;1.3767;0.2781;-0.3792;0.2017
0000320840;10.6231;2.2338;1.5897;0.3163;-0.3480;0.1248
0000320848;11.2073;2.2553;1.4653;0.3477;-0.3114;0.0496
0000320860;11.4275;2.2362;1.3575;0.3251;-0.2020;-0.0468
0000320868;11.1282;2.2865;1.0606;0.3012;-0.1199;-0.0937
0000320876;10.9511;2.4421;0.9768;0.2565;-0.0336;-0.1262
0000320887;10.2089;2.4421;0.7853;0.2218;0.0761;-0.1271
0000320895;9.6103;2.8347;0.8380;0.2062;0.1528;-0.0875
0000320907;8.7652;2.9712;0.7302;0.2310;0.2302;-0.0083
0000320915;8.6598;3.3686;0.7757;0.2527;0.2674;0.0681
0000320982;8.9663;3.1891;0.5626;-0.0065;0.4459;0.2782
0000320990;8.8801;2.8156;0.7326;-0.0132;0.4417;0.2698
0000320998;8.5521;2.4253;0.7781;0.0075;0.4234;0.2459
0000321010;8.4420;2.3966;0.6321;0.0626;0.3912;0.2012
0000321018;8.3534;2.3870;0.4286;0.1041;0.3545;0.1672
0000321029;8.0014;2.3056;0.1197;0.1266;0.3123;0.1338
0000321037;8.1858;2.5450;-0.1365;0.1435;0.2887;0.1263
0000321049;8.2839;3.2034;-0.4022;0.1278;0.2581;0.1226
0000321057;8.3941;3.4548;-0.5818;0.0759;0.2566;0.1387
0000321065;8.5042;3.5578;-0.7254;0.0152;0.2581;0.1516
0000321076;8.7269;3.9935;-0.7278;-0.0839;0.2623;0.1761
0000321084;8.5473;3.8116;-0.5171;-0.1491;0.2743;0.2097
0000321096;8.4755;3.6105;-0.3136;-0.1978;0.2657;0.2293
0000321104;8.3414;3.2705;-0.1101;-0.2040;0.2594;0.2386
0000321115;8.1259;2.8252;0.2227;-0.1672;0.2162;0.2148
0000321123;8.1116;2.5043;0.0838;-0.1238;0.1875;0.1937
0000321131;7.8865;2.0590;-0.0144;-0.0754;0.1576;0.1683
0000321143;8.1403;2.0255;-0.1915;0.0013;0.1180;0.1388
0000321151;8.3103;2.1380;-0.3448;0.0412;0.0993;0.1244
0000321162;8.8035;2.5786;-0.6177;0.0608;0.0990;0.1410
0000321170;8.7867;3.0263;-0.5028;0.0460;0.1150;0.1711
0000321182;9.0381;3.3567;-0.7781;0.0015;0.1290;0.2082
0000321190;8.7700;3.2346;-0.7278;-0.0325;0.1446;0.2257
0000321198;8.8346;3.2729;-0.8835;-0.0408;0.1623;0.2318
0000321266;8.4707;4.0079;-0.7638;0.0153;0.2344;0.2610
0000321274;8.7843;4.0294;-0.5794;-0.0226;0.2569;0.2786
0000321285;8.6550;3.6631;-0.5411;-0.0456;0.2607;0.2714
0000321293;8.8298;3.5051;-0.4980;-0.0402;0.2647;0.2641
0000321305;9.1291;3.1771;-0.5124;0.0043;0.2499;0.2322
0000321313;9.5050;3.1484;-0.3041;0.0322;0.2321;0.1945
0000321324;9.9455;3.3974;-0.5842;0.0281;0.2088;0.1346
0000321332;10.1275;3.5482;-0.7422;-0.0037;0.2158;0.0923
0000321340;10.0245;3.6152;-0.8188;-0.0433;0.2254;0.0377
0000321352;9.9168;3.6703;-1.0319;-0.1368;0.2499;-0.0314
0000321360;9.4739;3.3279;-0.9098;-0.1974;0.2579;-0.0809
0000321371;9.3422;3.3088;-0.6297;-0.2769;0.2786;-0.1231
0000321379;9.1650;3.0909;-0.4764;-0.3230;0.3042;-0.1432
0000321391;9.2488;3.1987;-0.6177;-0.3796;0.3593;-0.1596
0000321399;9.3182;3.1484;-0.5052;-0.3910;0.3870;-0.1645
0000321410;9.4188;3.1939;-0.5914;-0.3996;0.4321;-0.1588
0000321418;9.4882;3.0837;-0.5531;-0.3980;0.4576;-0.1459
0000321426;9.6845;3.0574;-0.4812;-0.3904;0.4975;-0.1322
0000321438;9.8114;3.0239;-0.4717;-0.3870;0.5653;-0.1122
0000321446;9.7659;3.0454;-0.3543;-0.3885;0.6141;-0.1018
0000321458;9.5984;2.9808;-0.3352;-0.3877;0.6684;-0.0947
0000321466;9.3326;2.8180;-0.4645;-0.3860;0.7033;-0.0818
0000321534;9.4116;4.2976;-0.8452;-0.4493;0.7173;-0.1929
0000321542;9.2608;4.2904;-0.5148;-0.4690;0.7189;-0.2106
0000321553;9.1363;4.5298;0.3328;-0.4779;0.7061;-0.2298
0000321561;8.7293;4.7453;0.9505;-0.5079;0.6768;-0.2368
0000321569;8.3582;5.2050;1.1971;-0.5549;0.6551;-0.2277
0000321581;7.0653;5.4085;1.6065;-0.5409;0.6033;-0.2276
0000321589;6.0501;5.6527;1.3288;-0.4666;0.5435;-0.2449
0000321600;5.0949;6.1914;1.0846;-0.3087;0.4162;-0.2582
0000321608;4.7214;6.9336;0.6297;-0.2503;0.3277;-0.2278
0000321620;5.6790;7.6878;-0.8954;-0.4086;0.2113;-0.1279
0000321628;7.0557;7.7907;-0.8068;-0.5263;0.1403;-0.0573
0000321636;8.5760;7.4460;0.0958;-0.6367;0.1346;0.0103
0000321647;10.4483;6.5146;1.2833;-0.6527;0.1808;0.0525
0000321655;11.9064;5.8873;1.2498;-0.5955;0.2374;-0.0072
0000321667;12.4953;4.9033;2.1332;-0.4338;0.4197;-0.1788
0000321675;12.1697;4.6639;2.3415;-0.3254;0.5514;-0.2964
0000321686;10.2352;4.4029;2.4517;-0.2144;0.6447;-0.4187
0000321694;8.4659;4.2856;2.4852;-0.1733;0.6491;-0.4626
0000321706;6.4596;4.2353;1.8244;-0.1998;0.5993;-0.4683
0000321714;5.4971;3.7421;1.6855;-0.2781;0.5328;-0.4403
0000321722;5.0589;2.9951;2.0207;-0.3516;0.4550;-0.4056
0000321734;5.3391;1.7933;2.3870;-0.3936;0.3184;-0.3327
0000321742;5.9520;0.8068;2.7270;-0.3989;0.2507;-0.2781
0000321809;6.9192;5.4636;1.4676;-0.0123;0.0568;-0.3528
0000321817;6.9552;5.4037;1.2641;-0.1673;0.0246;-0.3890
0000321828;6.7540;4.3958;1.7526;-0.3766;0.0053;-0.4193
0000321836;6.7516;3.4596;2.2769;-0.4367;-0.0033;-0.4128
0000321848;6.6152;2.0734;2.9257;-0.3668;0.0039;-0.3804
0000321856;6.6272;1.4676;3.1819;-0.2470;0.0109;-0.3543
0000321864;6.4979;1.1660;3.3184;-0.0793;0.0160;-0.3303
0000321875;6.6248;1.2617;2.9568;0.1030;0.0230;-0.3060
0000321883;6.6822;1.5131;2.7821;0.1787;0.0394;-0.2774
0000321895;7.4053;2.2242;2.3032;0.2034;0.0689;-0.2570
0000321903;7.6088;2.3774;2.1308;0.1744;0.0802;-0.2594
0000321914;8.2169;2.6863;1.8890;0.1238;0.1051;-0.3040
0000321922;8.4156;2.6695;2.0662;0.0806;0.1276;-0.3420
0000321930;8.3773;2.3200;2.0734;0.0682;0.1442;-0.3989
0000321942;8.2289;1.9034;2.0734;0.0444;0.1800;-0.4506
0000321950;8.1451;1.4246;2.0063;0.0525;0.2006;-0.4550
0000321961;8.0349;1.0511;2.0949;0.0923;0.2421;-0.4317
0000321969;7.6423;0.5842;1.9656;0.1410;0.2711;-0.3848
0000321981;7.3813;0.4501;1.5826;0.2407;0.3059;-0.3043
0000321989;7.0749;0.4214;1.2833;0.3008;0.3234;-0.2501
0000321997;6.7828;0.5626;1.2594;0.3328;0.3599;-0.1865
0000322009;6.5457;0.9984;1.1660;0.3259;0.4167;-0.1172
0000322017;6.6870;1.3527;1.1588;0.2974;0.4461;-0.0841
0000322085;5.9089;0.7997;1.3743;0.4499;0.1748;-0.1170
0000322093;5.4779;1.0606;1.2641;0.5105;0.1061;-0.1270
0000322104;5.1811;1.8818;1.1325;0.5558;0.0293;-0.1524
0000322112;5.3510;2.8180;0.8475;0.5506;-0.0203;-0.1843
0000322120;5.5115;3.5362;0.3783;0.4978;-0.0658;-0.2140
0000322132;5.5378;3.7709;0.1197;0.3222;-0.1134;-0.2487
0000322140;5.9137;3.8451;0.0120;0.1937;-0.1415;-0.2575
0000322151;5.9185;3.1747;0.4214;0.0941;-0.1892;-0.2581
0000322159;6.0358;2.8683;0.8715;0.0859;-0.2224;-0.2431
0000322171;5.8514;2.4445;1.0726;0.1464;-0.2485;-0.2170
0000322179;5.7604;2.4086;1.1756;0.2052;-0.2499;-0.2054
0000322187;5.7341;2.5618;1.0439;0.2627;-0.2366;-0.1793
0000322198;5.8299;2.9951;0.9601;0.3283;-0.2157;-0.1564
0000322206;5.8371;3.1939;0.7566;0.3254;-0.1923;-0.1184
0000322218;5.9113;3.2010;0.2538;0.2813;-0.1960;-0.0843
0000322226;5.9664;3.1029;0.0718;0.2519;-0.2078;-0.0694
0000322237;5.7245;2.9090;-0.1532;0.2450;-0.2473;-0.0617
0000322245;5.5474;2.8012;-0.0359;0.2674;-0.2870;-0.0589
0000322257;5.2768;2.7557;-0.1628;0.3075;-0.3369;-0.0500
0000322265;5.2361;2.8922;-0.2394;0.3289;-0.3603;-0.0448
0000322273;5.1715;2.9951;-0.3879;0.3296;-0.3857;-0.0381
0000322285;5.5162;3.5554;-0.4238;0.3150;-0.3904;-0.0136
0000322293;5.8107;3.9433;-0.4717;0.2906;-0.3974;-0.0051
0000322361;5.8155;5.0230;-0.1772;-0.3726;-0.4433;0.0217
0000322369;5.9424;5.2625;0.0455;-0.4029;-0.4716;0.0063
0000322380;5.9472;5.3750;0.1628;-0.4429;-0.5184;0.0013
0000322388;5.8059;5.4181;0.3496;-0.4513;-0.5554;-0.0004
0000322400;5.4013;5.3630;0.5052;-0.4842;-0.5902;0.0545
0000322408;5.3606;5.6862;0.8954;-0.5002;-0.6059;0.0953
0000322416;5.0829;5.6767;1.6616;-0.5088;-0.6047;0.1367
0000322427;5.5952;6.2249;2.6408;-0.4967;-0.6281;0.1748
0000322435;6.5769;6.7924;2.9832;-0.4896;-0.6663;0.1788
0000322447;8.6215;7.7955;2.7198;-0.5027;-0.6979;0.1380
0000322455;9.0166;8.1523;2.3750;-0.5716;-0.6791;0.1045
0000322466;8.3390;8.7915;1.5897;-0.7512;-0.6286;0.0770
0000322474;6.7157;8.8322;0.5722;-0.9125;-0.5970;0.0794
0000322486;3.8307;8.6048;1.3719;-1.0543;-0.6467;0.1054
0000322494;1.9249;8.3869;2.0758;-1.0123;-0.7151;0.1724
0000322502;0.5818;7.9009;2.5690;-0.9280;-0.8410;0.2799
0000322513;1.2522;6.0789;2.8012;-0.8439;-1.0471;0.4093
0000322521;3.6607;5.1284;2.6288;-0.7622;-1.1509;0.4686
0000322533;7.3143;3.5195;2.8012;-0.5790;-1.2021;0.5509
0000322541;9.1028;2.3918;2.7150;-0.4511;-1.1560;0.6010
0000322553;11.4036;0.9457;2.9975;-0.3873;-0.9850;0.6091
0000322561;11.9279;-0.0670;3.4979;-0.3794;-0.8246;0.5983
0000322569;12.2176;-0.8811;3.6895;-0.3465;-0.6540;0.5820
0000322637;8.3246;3.6847;1.9632;0.1812;-0.0064;0.3757
0000322645;8.0756;3.7206;2.0111;0.0838;-0.0179;0.3668
0000322657;8.2193;3.5889;1.8076;-0.0125;-0.0229;0.3352
0000322665;8.3653;3.1508;1.9201;-0.0329;-0.0180;0.3152
0000322676;8.3893;2.4086;2.0351;-0.0133;0.0152;0.3062
0000322684;8.7556;1.9872;1.9944;0.0234;0.0458;0.3162
0000322696;8.9112;1.6185;1.9896;0.1035;0.0787;0.3445
0000322704;9.2081;1.5850;1.9130;0.1527;0.1007;0.3645
0000322712;9.4499;1.8100;2.0087;0.2068;0.1160;0.3717
0000322723;9.4260;1.7645;1.9249;0.2362;0.1471;0.3616
0000322731;9.3757;2.0973;1.8387;0.2482;0.1737;0.3359
0000322743;9.2464;2.3415;1.5538;0.2362;0.2013;0.2745
0000322751;8.7795;2.3367;1.4916;0.2205;0.2053;0.2256
0000322759;8.2672;2.2553;1.3623;0.1997;0.2081;0.1904
0000322770;7.5441;2.2817;1.2905;0.1793;0.1880;0.1487
0000322778;7.1395;2.1308;1.1205;0.1716;0.1680;0.1400
0000322790;6.6272;1.7190;0.9074;0.1572;0.1124;0.1342
0000322798;6.5888;1.3216;0.9697;0.1553;0.0659;0.1455
0000322809;6.8426;1.0008;0.9361;0.1765;-0.0203;0.1605
0000322817;7.0246;0.7638;1.0391;0.1927;-0.0642;0.1728
0000322825;7.3071;0.6608;1.0702;0.2094;-0.1212;0.1777
0000322837;7.8865;0.7901;0.8308;0.2333;-0.1896;0.1863
0000322845;7.8290;0.8475;0.8787;0.2284;-0.2145;0.1998
0000322912;8.9399;1.2546;0.6943;0.0833;-0.2378;0.2196
0000322920;9.2536;1.2402;0.5626;0.0994;-0.2288;0.2078
0000322932;9.2464;1.2905;0.5315;0.0905;-0.2160;0.2030
0000322940;9.4715;1.5658;0.3711;0.0797;-0.2002;0.2030
0000322948;9.2799;1.5586;0.5555;0.0690;-0.1871;0.1993
0000322959;9.4164;1.7526;0.8045;0.0354;-0.1552;0.1788
0000322967;9.3494;1.8627;0.8595;0.0067;-0.1244;0.1475
0000322979;9.1171;1.6400;0.8212;-0.0320;-0.0961;0.0938
0000322987;9.0333;1.6352;0.7709;-0.0360;-0.0783;0.0697
0000322998;8.9902;1.6161;0.7757;0.0052;-0.0851;0.0452
0000323006;9.2033;1.9848;0.7590;0.0703;-0.1119;0.0374
0000323014;9.1889;2.3128;0.6800;0.1407;-0.1322;0.0298
0000323026;9.2488;3.0215;0.5435;0.2058;-0.1803;-0.0157
0000323034;9.5026;3.5985;0.4046;0.1955;-0.2069;-0.0593
0000323045;9.5864;4.0366;0.3424;0.1367;-0.2262;-0.1198
0000323053;9.6079;4.1563;0.2538;0.0977;-0.2273;-0.1659
0000323065;9.5840;4.1707;0.0814;0.0505;-0.2061;-0.2038
0000323073;9.3398;4.2042;0.1293;0.0398;-0.1688;-0.2077
0000323084;9.5241;4.4580;0.1269;0.0871;-0.1315;-0.2058
0000323092;9.4715;4.7094;0.1030;0.1254;-0.0889;-0.1893
0000323100;9.6678;4.9536;-0.0287;0.1491;-0.0522;-0.1768
0000323112;10.2568;5.6192;-0.1006;0.1284;0.0230;-0.1491
0000323120;10.4698;5.9759;-0.0934;0.0823;0.0927;-0.1328
0000323187;10.5010;4.9273;2.2338;-0.2955;0.6884;-0.5037
0000323195;10.2520;4.9105;2.9449;-0.2499;0.6941;-0.4374
0000323207;8.4036;5.1787;2.2553;-0.1607;0.6772;-0.3064
0000323215;6.6176;5.8323;2.3798;-0.0430;0.6213;-0.1907
0000323223;5.1260;5.9209;1.8076;-0.0012;0.5488;-0.0965
0000323234;4.3000;5.5426;0.8475;-0.0997;0.3842;-0.1126
0000323242;4.7573;4.8770;0.9840;-0.1632;0.2085;-0.1540
0000323254;7.9272;3.3064;2.4852;-0.2455;0.0742;-0.2401
0000323262;9.7588;2.6456;3.4620;-0.2658;0.0962;-0.3064
0000323273;11.6765;2.2649;4.1061;-0.2309;0.2501;-0.3176
0000323281;12.4953;2.1045;4.3072;-0.1528;0.4201;-0.3050
0000323293;12.7036;2.1859;4.2042;-0.0176;0.7218;-0.3071
0000323301;12.0476;2.1572;4.1204;0.0608;0.8922;-0.3122
0000323309;10.9319;2.2649;4.0534;0.1191;1.0211;-0.3095
0000323320;8.7317;2.2553;3.8571;0.2098;1.1182;-0.2405
0000323328;7.4603;2.5211;3.0670;0.2785;1.1166;-0.1701
0000323340;5.4061;2.9975;2.2218;0.3441;1.0307;-0.0652
0000323348;5.0111;3.4907;1.8771;0.3741;0.9226;-0.0172
0000323359;4.9895;3.9433;1.4557;0.3828;0.7694;-0.0203
0000323367;5.4205;4.0127;1.4629;0.3405;0.6768;-0.0791
0000323375;6.1555;4.0677;1.3072;0.2888;0.5891;-0.1728
0000323387;7.0773;3.6368;1.4940;0.1973;0.5029;-0.3111
0000323395;7.3837;3.5314;1.7047;0.1896;0.4632;-0.3770
0000323462;6.8067;2.4517;0.8021;0.6277;0.5028;-0.3417
0000323470;6.9336;2.6911;0.8021;0.5622;0.5373;-0.3323
0000323482;7.0222;2.6983;0.7207;0.4275;0.5861;-0.3184
0000323490;7.3789;2.8659;0.6584;0.3148;0.6055;-0.2952
0000323498;7.4412;2.6264;0.6871;0.1885;0.6390;-0.2645
0000323509;7.6974;2.0494;0.7039;0.0396;0.6765;-0.2154
0000323517;7.8219;1.6089;0.8882;-0.0329;0.7178;-0.1749
0000323529;7.6447;0.7997;1.2426;-0.0537;0.7665;-0.1272
0000323537;7.1946;0.3160;1.2546;-0.0187;0.7791;-0.1067
0000323548;6.9384;0.1077;1.5060;0.0422;0.7871;-0.0963
0000323556;6.5673;-0.0575;1.3767;0.0943;0.7906;-0.0922
0000323568;6.0430;0.4046;0.9984;0.1376;0.7739;-0.0919
0000323576;5.7820;0.6728;0.8691;0.1415;0.7441;-0.0918
0000323584;5.5593;1.0894;0.7422;0.0974;0.7100;-0.0945
0000323595;5.3008;1.5179;0.5626;0.0077;0.6522;-0.1235
0000323603;5.2050;1.7741;0.6584;-0.0476;0.6058;-0.1422
0000323615;4.7118;1.9872;0.8547;-0.0779;0.4979;-0.1909
0000323623;4.6902;2.2793;0.9912;-0.0790;0.4078;-0.2198
0000323634;4.3239;1.8794;0.6129;-0.0701;0.3082;-0.2427
0000323642;4.4843;2.0734;0.6560;-0.0789;0.2413;-0.2403
0000323650;4.5226;2.0614;0.7949;-0.0667;0.1616;-0.2304
0000323662;4.4700;2.1979;0.9816;-0.0353;0.0441;-0.2030
0000323670;4.5705;2.0542;1.0439;-0.0188;-0.0232;-0.1876
0000323737;5.8873;3.2537;0.0622;-0.0358;-0.2947;-0.1583
0000323745;5.6647;3.5985;0.0024;-0.0774;-0.3259;-0.1527
0000323757;5.2170;4.0414;-0.2682;-0.1507;-0.3762;-0.1607
0000323765;5.2744;4.4412;-0.3998;-0.1931;-0.4233;-0.1637
0000323776;5.6407;4.6783;-0.2562;-0.2237;-0.4562;-0.1524
0000323784;5.9616;4.6543;-0.4190;-0.2403;-0.4719;-0.1398
0000323792;6.1914;4.3048;-0.3448;-0.2446;-0.4610;-0.1280
0000323804;6.5074;3.9911;-0.3448;-0.2487;-0.4349;-0.1170
0000323812;6.2345;3.9672;-0.1939;-0.2527;-0.4017;-0.1069
0000323823;5.8969;3.5171;-0.2777;-0.2570;-0.3640;-0.0789
0000323831;5.3822;3.3351;-0.2753;-0.2598;-0.3421;-0.0485
0000323843;5.0949;3.2394;0.0862;-0.2074;-0.3523;0.0001
0000323851;5.2409;3.6895;-0.1484;-0.1669;-0.3710;0.0336
0000323862;5.3726;4.2258;-0.4501;-0.1440;-0.3853;0.0797
0000323870;5.3439;4.5418;-0.5914;-0.1557;-0.3994;0.0946
0000323878;5.4277;4.9991;-0.7590;-0.1789;-0.4129;0.0845
0000323890;5.6240;5.2289;-0.7566;-0.2579;-0.4255;0.0493
0000323898;5.6910;5.4229;-0.5962;-0.3143;-0.4321;0.0240
0000323909;5.7820;5.3199;-0.5171;-0.3833;-0.4684;-0.0129
0000323917;6.0071;5.4085;-0.6919;-0.4319;-0.4786;-0.0143
0000323929;6.1818;5.2984;-0.3759;-0.4515;-0.4875;0.0124
0000323937;6.1316;5.4731;0.4238;-0.4146;-0.4576;0.0577
0000324005;6.3422;7.1132;1.9632;-0.5411;0.0228;0.2138
0000324013;5.2888;6.3829;2.7270;-0.5083;0.0216;0.2301
0000324021;4.9775;5.9161;3.1484;-0.4703;-0.0322;0.2455
0000324033;4.9536;4.8770;3.2226;-0.4218;-0.1560;0.2377
0000324041;5.4923;4.1611;3.5147;-0.3821;-0.2526;0.2190
0000324053;5.8778;2.5762;3.7182;-0.3154;-0.3880;0.1861
0000324061;6.6894;1.8627;3.9959;-0.2643;-0.4505;0.1753
0000324073;7.1228;0.6776;4.4388;-0.1394;-0.5191;0.1306
0000324081;7.2377;0.4525;4.4341;-0.0506;-0.5472;0.0982
0000324093;7.4723;0.1389;4.1731;0.0546;-0.5757;0.0524
0000324101;7.2688;0.1891;3.6224;0.1022;-0.5773;0.0292
0000324109;7.0102;0.2322;3.1939;0.1335;-0.5648;0.0333
0000324120;7.1467;0.5818;2.5881;0.1875;-0.5961;0.0727
0000324128;7.4939;0.8859;2.4876;0.2328;-0.6139;0.1230
0000324140;8.2313;1.2594;2.1835;0.3087;-0.6254;0.2114
0000324148;8.4036;1.3503;1.8148;0.3355;-0.6043;0.2714
0000324159;9.3757;1.8004;1.5969;0.3902;-0.5585;0.3076
0000324167;9.7707;1.8124;1.4102;0.4238;-0.4950;0.2975
0000324175;10.1730;1.7142;1.1756;0.4676;-0.4229;0.2597
0000324187;10.5105;1.8651;1.0750;0.5021;-0.2803;0.2068
0000324195;10.2735;1.6975;1.1109;0.5263;-0.1895;0.1825
0000324262;6.7038;2.3990;1.5395;0.2229;0.0608;0.4153
0000324270;6.3183;1.9872;1.6305;0.1871;0.0072;0.4133
0000324282;6.0094;1.5778;1.6664;0.1949;-0.1106;0.3861
0000324290;5.6790;1.2043;1.7980;0.2293;-0.2045;0.3645
0000324298;5.7772;1.1037;1.7047;0.2561;-0.3023;0.3612
0000324309;6.3734;1.0247;1.5921;0.2801;-0.4227;0.3673
0000324317;6.8833;1.1732;1.4102;0.2904;-0.5028;0.3737
0000324329;7.6974;1.3144;1.2977;0.2843;-0.5906;0.3817
0000324337;8.2648;1.4748;1.1899;0.2713;-0.6155;0.3770
0000324349;8.8011;1.7454;1.0630;0.2475;-0.6238;0.3521
0000324357;9.1075;2.0399;0.8739;0.2245;-0.6065;0.3367
0000324365;9.4547;2.2865;0.7590;0.1978;-0.5772;0.3142
0000324377;9.5768;2.4876;0.6728;0.1669;-0.5079;0.2928
0000324385;9.3925;2.3631;0.6416;0.1516;-0.4638;0.2834
0000324396;9.3470;2.6073;0.6369;0.1494;-0.4005;0.2765
0000324404;9.4068;2.5738;0.6105;0.1535;-0.3643;0.2630
0000324416;9.2727;2.5977;0.4741;0.1402;-0.3094;0.2563
0000324424;9.3039;2.5546;0.4525;0.1406;-0.2705;0.2673
0000324432;9.0980;2.4852;0.4310;0.1412;-0.2381;0.2826
0000324444;9.0836;2.6767;0.3903;0.1354;-0.2097;0.3036
0000324452;8.8514;2.8299;0.4549;0.1171;-0.2017;0.3080
0000324464;9.2225;3.1627;0.3280;0.0601;-0.1861;0.2867
0000324472;9.0046;3.0167;0.4094;-0.0052;-0.1745;0.2603
0000324539;9.5457;3.3615;-0.3687;-0.1160;-0.1993;-0.1275
0000324547;9.7013;3.6655;-0.2514;-0.1848;-0.1880;-0.1990
0000324555;9.7013;3.9935;-0.0742;-0.2904;-0.1600;-0.2650
0000324567;9.7564;3.8786;0.2227;-0.4313;-0.1288;-0.3559
0000324575;9.3182;3.4500;0.3998;-0.4744;-0.1085;-0.3973
0000324587;8.9016;2.7390;0.6847;-0.4350;-0.0798;-0.4097
0000324595;8.5880;2.3990;0.6488;-0.3337;-0.0722;-0.3946
0000324607;8.1283;2.1979;0.4741;-0.1523;-0.0986;-0.3365
0000324615;8.0732;2.4828;0.3304;-0.0590;-0.1219;-0.2890
0000324627;8.1235;3.0574;0.3232;0.0085;-0.1607;-0.2409
0000324635;8.3989;3.3136;0.2155;0.0040;-0.1872;-0.2260
0000324643;8.5641;3.5889;0.2586;-0.0345;-0.1949;-0.2106
0000324655;9.0549;3.6416;0.4142;-0.1164;-0.1891;-0.2104
0000324663;9.3470;3.7302;0.3615;-0.1655;-0.1804;-0.2304
0000324675;9.8306;3.4836;0.2729;-0.2264;-0.1250;-0.2870
0000324683;10.3046;3.5195;-0.0048;-0.2439;-0.0621;-0.3341
0000324695;10.7093;3.5961;-0.1580;-0.2322;0.0488;-0.4359
0000324703;10.8242;4.2377;0.2849;-0.2348;0.1152;-0.4843
0000324715;10.7595;5.4492;1.2570;-0.3010;0.2017;-0.5184
0000324723;10.7667;6.1770;1.5850;-0.4165;0.2493;-0.4947
0000324735;9.2368;6.3039;2.1284;-0.5788;0.3184;-0.3990
0000324743;7.4244;6.7756;2.0470;-0.5685;0.3523;-0.3090
0000324751;5.9352;6.7086;1.9369;-0.5470;0.3572;-0.2000
0000324818;11.0157;5.7652;2.4612;-0.6013;0.2349;-0.0771
0000324827;10.7787;5.6431;2.6121;-0.5754;0.3489;-0.1403
0000324840;8.9256;4.9297;2.6169;-0.4864;0.4607;-0.2120
0000324849;7.7261;4.6591;2.6288;-0.4351;0.4718;-0.2517
0000324861;6.2177;4.0845;2.1787;-0.4061;0.4375;-0.2729
0000324870;5.4827;3.7613;2.0423;-0.4177;0.3828;-0.2434
0000324879;5.1643;3.4500;2.0662;-0.4307;0.3183;-0.1955
0000324892;5.2864;2.5857;2.4157;-0.4329;0.2100;-0.1288
0000324901;5.9280;2.0063;2.8563;-0.3989;0.1507;-0.0922
0000324914;6.8091;1.1971;3.2609;-0.2774;0.0727;-0.1025
0000324923;7.3071;1.0750;3.3662;-0.1603;0.0521;-0.1580
0000324936;7.5346;1.3599;3.4285;-0.0175;0.0890;-0.2859
0000324945;7.5130;1.8340;3.1364;0.0293;0.1247;-0.3826
0000324957;7.4508;2.4924;3.0430;0.0566;0.1821;-0.4467
0000324966;7.2544;2.6432;2.9712;0.0813;0.2130;-0.4531
0000324975;7.1012;2.8826;3.0119;0.0905;0.2481;-0.4263
0000324988;7.0820;3.0574;2.8276;0.0955;0.3168;-0.3507
0000324997;7.2209;3.0526;2.9042;0.1118;0.3734;-0.2950
0000325010;7.3095;3.0957;2.4469;0.1267;0.4627;-0.2437
0000325019;7.3981;3.1771;2.2051;0.1412;0.5019;-0.2435
0000325032;7.2999;3.1173;2.2458;0.1491;0.5722;-0.2514
0000325041;7.1491;3.1532;1.9489;0.1387;0.6033;-0.2697
0000325050;7.1204;2.9425;1.9130;0.1061;0.6342;-0.2773
0000325117;6.8738;0.7135;1.9609;0.1120;0.7348;-0.3092
0000325126;6.6607;0.5914;1.7741;0.1549;0.7362;-0.2875
0000325139;6.3901;0.8092;1.4293;0.1796;0.7278;-0.2493
0000325148;6.2896;1.0127;1.0678;0.1685;0.7208;-0.2265
0000325161;6.3734;0.9888;1.1732;0.1247;0.7145;-0.1929
0000325170;6.1459;0.6704;1.1971;0.1062;0.7135;-0.1709
0000325179;6.2441;0.6752;1.3024;0.1104;0.7079;-0.1672
0000325192;6.2632;0.6919;1.2881;0.1095;0.6904;-0.1692
0000325201;6.1555;0.7494;1.2234;0.1135;0.6582;-0.1824
0000325214;5.6503;0.9505;1.0104;0.1155;0.5816;-0.1700
0000325223;5.3726;1.3455;0.9792;0.1231;0.5029;-0.1681
0000325236;4.6495;1.7023;0.8523;0.1254;0.3822;-0.1553
0000325245;4.8650;2.4948;0.8260;0.1215;0.2950;-0.1597
0000325254;4.4580;3.1101;0.9481;0.1148;0.2141;-0.1628
0000325267;4.5562;4.1635;0.9194;0.0318;0.1294;-0.1708
0000325276;4.7501;4.5203;1.0439;-0.0644;0.0865;-0.1836
0000325289;4.9392;4.2593;1.3240;-0.2533;0.0574;-0.1695
0000325298;5.1020;3.7086;1.8196;-0.3439;0.0386;-0.1540
0000325311;5.2313;2.5786;2.1524;-0.3108;0.0060;-0.1311
0000325320;5.4779;2.1189;2.0039;-0.2352;-0.0084;-0.0873
0000325329;5.4947;2.0566;2.0901;-0.1366;-0.0112;-0.0465
0000325342;5.6743;2.4157;1.9082;-0.0373;0.0105;0.0035
0000325351;5.5450;2.7845;1.7837;-0.0296;0.0374;0.0183
0000325419;5.0733;2.2984;0.7159;-0.2721;0.0685;0.1430
0000325428;4.7980;2.6959;0.8140;-0.2527;0.0229;0.1840
0000325441;4.4604;2.9209;0.7853;-0.2707;-0.0476;0.2208
0000325450;4.0677;3.1196;0.8308;-0.3082;-0.1033;0.2337
0000325466;4.4388;3.3854;1.2977;-0.3429;-0.2421;0.2181
0000325475;4.6256;3.3375;1.6568;-0.3464;-0.3242;0.2038
0000325484;5.2816;3.4093;2.0087;-0.3119;-0.4038;0.1915
0000325497;5.5545;3.4069;2.2194;-0.2535;-0.4696;0.1728
0000325506;5.6910;3.4477;2.0159;-0.2374;-0.5164;0.1487
0000325518;6.2369;3.7254;1.2426;-0.2437;-0.5970;0.1069
0000325527;6.2968;3.8403;0.6560;-0.3008;-0.6338;0.0815
0000325540;5.7988;3.6847;0.5578;-0.3492;-0.6670;0.0477
0000325549;5.2984;3.7876;0.9960;-0.3597;-0.6743;0.0112
0000325558;4.9512;4.5921;1.9968;-0.3263;-0.6367;-0.0274
0000325570;4.0270;5.7293;2.7916;-0.3128;-0.5861;-0.0612
0000325579;4.7357;7.0485;2.9018;-0.3687;-0.5556;-0.0369
0000325592;7.2329;8.2361;3.2920;-0.4227;-0.5688;0.0246
0000325601;8.6479;8.3677;2.8635;-0.5201;-0.5195;0.0702
0000325613;9.4451;7.8027;2.5666;-0.6678;-0.3785;0.1575
0000325622;8.3438;7.0102;3.0358;-0.6940;-0.2494;0.2076
0000325691;6.1603;3.3303;3.7517;-0.3464;-0.5720;0.4250
0000325700;6.7876;2.4014;3.7493;-0.2920;-0.6121;0.3845
0000325709;7.2257;1.5203;3.6751;-0.2281;-0.6205;0.3472
0000325721;7.4531;0.7135;3.6823;-0.1355;-0.6302;0.2859
0000325730;7.3023;0.2682;3.7876;-0.0709;-0.6269;0.2677
0000325743;7.1228;-0.0192;3.7445;0.0108;-0.6290;0.2661
0000325752;7.1491;0.1891;3.5267;0.0793;-0.6723;0.2691
0000325764;7.2113;0.7159;3.5243;0.1624;-0.7490;0.2932
0000325773;7.3550;1.1636;3.3734;0.2166;-0.7930;0.3178
0000325782;7.4196;1.9106;3.0263;0.2470;-0.8378;0.3246
0000325795;7.4388;2.8587;2.6863;0.2258;-0.8663;0.3368
0000325804;7.0797;3.0406;2.4014;0.2030;-0.8949;0.3336
0000325816;7.0820;2.8156;2.3104;0.1852;-0.9270;0.3440
0000325825;7.4148;2.5522;2.1620;0.1978;-0.9361;0.3568
0000325838;7.8865;1.8196;2.0351;0.2625;-0.9389;0.3639
0000325847;8.1092;1.5538;1.9561;0.3190;-0.9403;0.3693
0000325856;8.2241;1.2833;2.0375;0.3688;-0.9268;0.3778
0000325868;8.2504;1.1061;1.9513;0.4443;-0.9016;0.3885
0000325877;8.2552;1.1061;1.8627;0.4934;-0.8871;0.3825
0000325890;8.4635;1.0918;1.6089;0.5267;-0.8267;0.3645
0000325899;8.6838;1.1085;1.4485;0.5295;-0.7917;0.3353
0000325911;8.7556;1.0104;1.1516;0.5228;-0.7484;0.2896
0000325920;8.9280;1.1205;1.1492;0.4924;-0.7063;0.2605
0000325929;8.9687;0.9816;1.3120;0.4634;-0.6779;0.2277
0000325998;9.0884;0.0934;1.4030;0.3724;-0.3108;0.0911
0000326007;8.9376;0.2394;1.5945;0.4175;-0.3066;0.1178
0000326019;8.6431;0.5483;1.3216;0.4686;-0.3255;0.1615
0000326028;8.7197;1.0247;1.4317;0.4716;-0.3385;0.1808
0000326041;9.1099;1.9273;1.4605;0.4475;-0.3623;0.1643
0000326050;9.3661;2.4277;1.4581;0.3856;-0.3509;0.1444
0000326059;9.5361;2.8970;1.1851;0.3035;-0.3425;0.1096
0000326071;9.7803;3.0335;1.4198;0.1917;-0.3168;0.0674
0000326080;9.8426;3.0358;1.3910;0.1338;-0.2979;0.0489
0000326093;9.6007;2.3248;1.3910;0.1254;-0.2789;0.0540
0000326102;9.7851;2.3559;1.7047;0.1611;-0.2619;0.0707
0000326114;9.6822;2.4900;1.9441;0.2445;-0.2282;0.1050
0000326123;9.6965;2.8994;1.8292;0.2746;-0.2012;0.1339
0000326132;9.6845;3.0837;1.7071;0.2706;-0.1803;0.1571
0000326145;10.0030;3.6129;1.6712;0.2126;-0.1176;0.1867
0000326154;10.2472;3.5123;1.6951;0.1712;-0.0745;0.1781
0000326166;10.6398;3.3184;1.5371;0.1119;-0.0079;0.1442
0000326175;10.4818;2.9090;1.4246;0.0961;0.0270;0.1175
0000326188;10.5129;2.5666;1.3910;0.1359;0.0703;0.0902
0000326197;10.6207;2.6624;1.4485;0.1909;0.0893;0.0645
0000326209;10.5465;3.0047;1.2258;0.2180;0.1311;0.0328
0000326218;10.3860;3.6105;0.7254;0.1889;0.1679;0.0152
0000326227;9.9479;3.7972;0.8021;0.1290;0.1989;-0.0116
0000326296;9.6247;2.8228;0.7039;-0.0016;0.3524;-0.0365
0000326305;9.6175;2.8898;0.7757;0.0504;0.3850;-0.0353
0000326317;10.2113;3.1388;0.6943;0.1100;0.4469;-0.0461
0000326326;10.5728;3.5674;0.7159;0.1498;0.4914;-0.0731
0000326339;10.9463;4.1683;0.6273;0.1691;0.5668;-0.1212
0000326348;10.9247;4.4221;0.6871;0.1645;0.6038;-0.1628
0000326357;11.2743;4.5250;0.8356;0.1406;0.6490;-0.2136
0000326369;11.5736;4.4724;1.0032;0.1331;0.6952;-0.2919
0000326378;11.5041;4.2090;1.0008;0.1440;0.7420;-0.3491
0000326391;11.4491;4.6687;1.1971;0.1632;0.8143;-0.4137
0000326400;11.1163;5.3391;1.6544;0.1411;0.8633;-0.4363
0000326412;10.1418;5.9831;1.9776;0.0536;0.9394;-0.4028
0000326421;9.1339;6.7684;1.8292;-0.0065;0.9955;-0.3321
0000326430;8.0397;7.3358;1.6161;-0.0433;1.0312;-0.2441
0000326443;7.4460;7.8266;1.0343;-0.1031;1.0273;-0.1543
0000326452;7.4412;7.6279;0.8930;-0.1699;0.9647;-0.1226
0000326464;8.1570;6.9456;1.2833;-0.2741;0.8680;-0.1227
0000326473;8.3127;6.2082;1.7166;-0.3483;0.8127;-0.1565
0000326486;8.0804;5.0566;2.0830;-0.4135;0.7442;-0.2110
0000326495;7.8171;3.5889;2.3104;-0.4066;0.6873;-0.2254
0000326507;7.2592;1.9752;2.8922;-0.3100;0.5910;-0.2304
0000326516;6.7062;1.0822;2.9975;-0.2133;0.5015;-0.2190
0000326525;6.1124;0.4238;3.0406;-0.1124;0.3994;-0.1937
0000326594;7.6710;3.4524;1.5275;0.2711;-0.1140;-0.1172
0000326603;8.3246;3.8451;1.3623;0.2697;-0.0906;-0.1852
0000326615;8.4180;3.8547;1.0199;0.2294;-0.0436;-0.2912
0000326624;8.2959;3.8331;0.9266;0.1978;-0.0115;-0.3580
0000326637;7.5872;3.1627;1.1564;0.1470;0.0430;-0.4373
0000326646;7.2903;2.7054;1.4509;0.1070;0.0753;-0.4719
0000326655;7.2712;2.4924;1.6855;0.0757;0.1082;-0.4988
0000326667;7.4196;1.8675;2.2386;0.0545;0.1705;-0.5017
0000326676;7.6854;1.5874;2.2601;0.0648;0.2200;-0.4904
0000326689;8.1882;1.2761;2.0782;0.0911;0.2876;-0.4592
0000326698;8.3390;1.2641;1.8483;0.1031;0.3263;-0.4313
0000326710;7.9296;0.9984;1.5730;0.0781;0.3877;-0.3587
0000326719;7.6327;0.8882;1.6281;0.0738;0.4277;-0.3172
0000326728;7.3310;0.8212;1.6927;0.0739;0.4662;-0.2714
0000326741;7.1156;1.1325;1.6400;0.0612;0.5116;-0.2515
0000326750;6.8474;1.2450;1.6017;0.0528;0.5231;-0.2538
0000326762;6.8163;1.6017;1.4078;0.0304;0.5116;-0.2491
0000326771;6.5050;1.5514;1.2833;0.0113;0.4864;-0.2354
0000326784;6.1196;1.6903;1.1923;0.0200;0.4194;-0.2425
0000326793;5.5905;1.7502;0.9912;0.0196;0.3595;-0.2555
0000326802;5.2601;1.8507;0.8811;0.0173;0.2886;-0.2751
0000326814;4.8411;2.1308;1.1612;0.0213;0.1951;-0.3268
0000326823;4.6711;2.1811;1.1325;0.0168;0.1308;-0.3664
0000326891;6.8690;2.2649;0.7709;0.0309;-0.0217;-0.2562
0000326900;6.7421;2.3727;0.8068;0.0432;0.0155;-0.2461
0000326912;6.4093;2.7797;0.6033;0.0246;0.0734;-0.2328
0000326921;6.2584;2.9760;0.5650;-0.0137;0.1094;-0.2273
0000326930;6.1196;3.2609;0.5986;-0.0489;0.1215;-0.2136
0000326943;6.1363;2.9999;0.6656;-0.0886;0.0967;-0.1980
0000326952;6.0813;3.0718;0.4764;-0.0970;0.0614;-0.1747
0000326963;6.0310;2.7725;0.2777;-0.0867;0.0220;-0.1387
0000326972;5.8490;2.8180;0.2370;-0.0414;-0.0068;-0.1110
0000326986;5.5617;3.1723;0.2753;0.0226;-0.0244;-0.0685
0000326995;5.3893;3.4764;0.2394;0.0541;-0.0430;-0.0606
0000327008;5.1667;3.9576;0.1891;0.0065;-0.0518;-0.0342
0000327017;5.5354;4.0725;0.1700;-0.0492;-0.0731;-0.0412
0000327026;5.4061;4.1276;0.2514;-0.1186;-0.0862;-0.0374
0000327038;5.4971;4.0677;0.2801;-0.1616;-0.1171;-0.0398
0000327047;5.3941;3.7517;0.4908;-0.1488;-0.1611;-0.0386
0000327060;5.4899;3.6152;0.4094;-0.1187;-0.2186;-0.0265
0000327069;5.3798;3.6966;0.4788;-0.0930;-0.2823;-0.0294
0000327081;5.5474;3.9528;0.2658;-0.1026;-0.3537;-0.0349
0000327090;5.3415;4.0510;0.2035;-0.1372;-0.4050;-0.0364
0000327159;7.9607;7.5920;2.1428;-0.1813;-0.5875;0.0043
0000327168;8.7700;8.3031;1.4916;-0.2479;-0.5029;-0.0075
0000327177;8.2648;8.4611;1.3384;-0.3752;-0.3728;0.0308
0000327189;6.8187;8.0900;1.4222;-0.5772;-0.2189;0.1615
0000327198;5.9520;7.5944;1.9417;-0.6808;-0.1695;0.2779
0000327211;4.7621;6.7301;3.0718;-0.7216;-0.1873;0.3997
0000327220;4.5346;6.2273;3.4477;-0.6804;-0.2511;0.4643
0000327232;5.1116;5.4061;3.6847;-0.5746;-0.3824;0.4739
0000327241;5.2241;4.5466;3.8714;-0.4807;-0.4748;0.4407
0000327254;5.8155;3.6631;3.8978;-0.3512;-0.5915;0.3802
0000327263;6.3207;3.0526;3.8188;-0.2726;-0.6876;0.3150
0000327272;7.0078;2.2984;3.6512;-0.2233;-0.7536;0.2674
0000327284;7.3789;1.6807;3.3423;-0.2038;-0.8280;0.2265
0000327293;7.5585;1.1109;3.4979;-0.1996;-0.8676;0.2090
0000327306;7.7261;0.7494;3.3303;-0.1431;-0.9277;0.1474
0000327315;7.5968;0.8188;3.1220;-0.1034;-0.9775;0.0687
0000327327;7.2999;1.0582;2.7414;-0.0276;-1.0516;-0.0393
0000327336;6.8785;1.2378;2.6073;0.0274;-1.1066;-0.0806
0000327345;6.7564;1.4102;2.3391;0.0715;-1.1419;-0.0873
0000327358;7.3598;1.6257;2.1644;0.1323;-1.1540;-0.0437
0000327367;7.9871;1.6065;1.9944;0.2022;-1.1583;-0.0215
0000327379;8.7221;1.9465;1.7621;0.2952;-1.1143;0.0345
0000327388;9.3853;2.2673;1.5993;0.3392;-1.0455;0.0982
0000327457;9.0214;0.8835;2.0016;0.1167;-0.3524;0.3357
0000327466;8.8250;0.4334;2.0016;0.1765;-0.2935;0.3364
0000327475;8.6742;0.2658;2.1308;0.2522;-0.2742;0.3348
0000327487;8.6957;0.2346;2.0973;0.3389;-0.2510;0.3409
0000327496;8.4013;0.3903;2.0279;0.3986;-0.2507;0.3501
0000327509;8.4013;0.8595;1.7310;0.4784;-0.2663;0.3428
0000327518;8.2289;1.1372;1.6951;0.5283;-0.2702;0.3131
0000327530;8.0373;1.7502;1.5179;0.5680;-0.2694;0.2750
0000327539;7.7117;1.8818;1.1205;0.5784;-0.2879;0.2607
0000327548;7.6160;2.1165;0.7757;0.5292;-0.3003;0.2699
0000327561;7.9775;2.6767;0.2203;0.4253;-0.3503;0.2988
0000327570;8.1451;2.7869;0.1317;0.3299;-0.3708;0.3148
0000327582;8.5353;2.9544;0.2251;0.2169;-0.4108;0.2919
0000327591;8.6574;3.1891;0.0838;0.1279;-0.4350;0.2314
0000327604;8.7652;3.4141;0.2610;-0.0485;-0.4326;0.1435
0000327613;8.8514;3.3495;0.4884;-0.1785;-0.4062;0.0750
0000327625;9.3446;2.9688;0.9960;-0.3139;-0.3432;0.0085
0000327634;9.2871;2.1668;1.3503;-0.3301;-0.3078;-0.0266
0000327643;9.3206;1.7980;1.7023;-0.2970;-0.2573;-0.0197
0000327656;9.5074;1.4198;2.2338;-0.1888;-0.2030;0.0257
0000327665;9.6702;1.2713;2.3128;-0.1010;-0.1727;0.0624
0000327677;9.7731;1.1971;2.2338;-0.0135;-0.0966;0.1256
0000327686;9.7300;1.2833;2.2290;0.0470;-0.0284;0.1755
0000327755;8.3055;2.3942;1.0702;0.0378;0.1196;0.3551
0000327764;7.7428;2.7557;0.9313;0.0414;0.0525;0.3435
0000327773;7.5944;3.2154;0.8116;0.0177;-0.0412;0.3242
0000327785;7.6878;3.4500;0.5435;-0.0942;-0.1601;0.2490
0000327794;7.8650;3.4620;0.1413;-0.1998;-0.2192;0.1863
0000327807;8.3055;3.2154;0.3519;-0.2899;-0.2621;0.1154
0000327816;8.5976;2.9808;0.4597;-0.3074;-0.2570;0.0881
0000327828;8.7795;2.9305;0.6393;-0.2637;-0.2481;0.0843
0000327837;9.3541;3.3662;0.5243;-0.2340;-0.2300;0.0957
0000327846;10.1347;3.7373;0.2921;-0.2686;-0.1728;0.0935
0000327859;10.9056;4.0606;0.1820;-0.3720;-0.0636;0.0530
0000327868;11.1666;3.8738;0.2538;-0.4378;0.0248;0.0137
0000327880;11.2264;3.7421;0.5602;-0.4699;0.1523;-0.0320
0000327889;10.7548;2.9784;0.8475;-0.4471;0.2506;-0.0573
0000327902;10.4244;2.3272;1.1253;-0.3445;0.3790;-0.0859
0000327911;10.1394;1.7837;1.3408;-0.2395;0.4538;-0.0766
0000327923;9.8426;1.5107;1.2210;-0.0842;0.5241;-0.0568
0000327932;9.7851;1.5778;1.2258;0.0401;0.5677;-0.0312
0000327941;9.7468;1.9178;1.1660;0.1483;0.5982;-0.0032
0000327954;9.7827;2.5642;0.9529;0.2368;0.6181;0.0044
0000327963;9.6582;3.2250;0.5866;0.2598;0.6201;-0.0001
0000327975;9.4547;3.6919;0.1221;0.2173;0.6039;-0.0057
0000327984;9.6845;4.1755;-0.1437;0.1260;0.5776;-0.0020
0000328053;8.1211;7.3598;1.5323;-0.3106;0.2848;0.2462
0000328062;8.6646;7.3957;0.9337;-0.3846;0.2224;0.2449
0000328071;9.6391;6.9863;1.1396;-0.4558;0.1520;0.2020
0000328083;10.9080;6.0166;2.4612;-0.4908;0.1319;0.0815
0000328092;11.3964;5.9065;3.1268;-0.4191;0.1599;-0.0364
0000328105;12.0883;5.7245;3.3279;-0.2395;0.2938;-0.1523
0000328114;12.2607;5.5545;3.3136;-0.1066;0.4022;-0.2313
0000328126;11.8513;5.5067;3.1747;0.0008;0.5538;-0.3194
0000328135;10.9080;5.1906;2.9018;0.0072;0.6508;-0.3760
0000328148;9.5193;4.6304;2.9616;-0.0446;0.7633;-0.4261
0000328157;8.7197;4.2258;3.1029;-0.0966;0.8106;-0.4411
0000328166;8.1116;3.5171;3.3040;-0.1700;0.8595;-0.4299
0000328178;7.3574;1.9752;3.7613;-0.2164;0.8871;-0.3996
0000328187;7.5824;1.1732;4.0007;-0.1961;0.8940;-0.3732
0000328200;7.7548;-0.1820;4.1252;-0.1025;0.9013;-0.2956
0000328209;8.1139;-0.8140;4.0558;0.0056;0.9121;-0.2306
0000328221;7.9823;-1.0534;3.8858;0.1864;0.8980;-0.1741
0000328230;7.6543;-0.7757;3.8044;0.3375;0.8672;-0.1492
0000328239;7.3813;0.2442;3.3950;0.4827;0.8025;-0.1657
0000328252;6.8331;1.7669;2.4229;0.6402;0.7079;-0.2282
0000328261;6.4500;2.8611;2.0327;0.6742;0.6306;-0.2802
0000328273;6.7804;3.9217;1.2330;0.6095;0.5251;-0.3560
0000328282;6.8450;3.7182;1.0223;0.4934;0.4610;-0.4128
0000328351;7.2880;2.1883;1.9393;0.3804;0.3595;-0.4975
0000328360;7.5992;1.8890;2.0806;0.3111;0.4036;-0.4427
0000328372;7.9847;1.3934;1.9585;0.2290;0.4563;-0.3595
0000328381;8.0182;1.2210;1.9441;0.1978;0.4910;-0.2950
0000328390;7.8410;0.7566;2.0782;0.1984;0.5233;-0.2221
0000328403;7.5082;0.6895;1.9872;0.2418;0.5332;-0.1476
0000328412;7.0820;0.8021;1.9776;0.2892;0.5213;-0.1151
0000328424;6.5122;1.2617;1.7382;0.3254;0.5012;-0.1085
0000328433;6.2273;1.7957;1.4916;0.3252;0.4722;-0.1240
0000328447;5.7150;2.3822;1.2809;0.2862;0.3969;-0.1796
0000328456;5.7245;2.8826;1.2689;0.2321;0.3491;-0.2213
0000328465;5.5761;2.7557;1.2330;0.1935;0.2915;-0.2683
0000328478;5.3798;2.1572;1.2833;0.1314;0.2133;-0.3024
0000328487;5.4013;1.8196;1.3336;0.1315;0.1491;-0.3091
0000328499;5.7628;1.7023;1.7190;0.1761;0.0841;-0.2972
0000328508;5.9640;1.5012;1.8890;0.2197;0.0385;-0.2835
0000328521;6.3063;1.6688;1.6616;0.2638;-0.0069;-0.2529
0000328530;6.3925;1.9585;1.6568;0.2822;-0.0204;-0.2401
0000328539;6.3686;2.1931;1.4653;0.2767;-0.0313;-0.2461
0000328551;6.3829;2.5546;1.2905;0.2109;-0.0273;-0.2423
0000328560;6.2082;2.6983;1.1827;0.1559;-0.0246;-0.2354
0000328573;5.9448;2.6480;0.8882;0.0717;-0.0234;-0.2125
0000328582;5.6360;2.5331;0.9122;0.0330;-0.0312;-0.1969
0000328651;5.9161;3.1795;0.3567;-0.1017;-0.0830;-0.0600
0000328660;5.8442;3.4572;0.5507;-0.1183;-0.0921;-0.0616
0000328669;5.6192;3.5075;0.6943;-0.1330;-0.0829;-0.0617
0000328682;6.0047;3.7589;0.9984;-0.1166;-0.0921;-0.0802
0000328691;6.2417;3.6943;1.1875;-0.0723;-0.0991;-0.1042
0000328703;7.1515;3.5817;1.1301;0.0504;-0.1014;-0.1270
0000328712;7.6399;3.2010;-0.7087;0.0665;-0.1039;-0.1041
0000328725;7.3047;3.2609;-0.3807;0.0300;-0.1083;-0.0167
0000328734;7.1658;3.7373;-0.2729;0.0454;-0.0994;0.0457
0000328746;6.1579;4.9728;-0.4980;0.0549;-0.1303;0.0557
0000328755;5.6455;6.2345;-0.7590;0.0108;-0.1512;0.0428
0000328764;5.2744;7.1084;-0.7087;-0.0982;-0.1877;0.0197
0000328777;4.6017;7.2185;-0.8140;-0.2919;-0.2860;0.0183
0000328786;4.5346;6.9887;-0.3759;-0.4056;-0.3529;0.0502
0000328798;4.6328;6.4189;1.1803;-0.3765;-0.4453;0.1146
0000328807;4.8674;6.3686;2.3224;-0.2554;-0.5019;0.1579
0000328820;6.9959;7.1778;3.0263;-0.0505;-0.5580;0.1925
0000328829;8.5305;7.9248;2.5762;-0.0032;-0.5456;0.1972
0000328841;9.9024;8.7173;2.3415;-0.0899;-0.4618;0.1728
0000328850;9.8162;8.8083;1.9872;-0.2583;-0.3368;0.1760
0000328859;9.2225;8.1068;1.5730;-0.4378;-0.2197;0.2202
0000328872;7.4220;6.4045;2.0614;-0.5878;-0.1098;0.3243
0000328881;6.2680;5.2840;2.4732;-0.5824;-0.1053;0.3966
0000328950;7.7428;1.1372;3.0742;0.1244;-0.5205;0.2956
0000328959;8.0397;0.7159;2.9353;0.1525;-0.5067;0.2446
0000328972;8.1642;0.4741;2.5139;0.1375;-0.4438;0.1947
0000328981;8.1906;0.5195;2.4373;0.1415;-0.3921;0.1780
0000328990;8.1403;0.6033;2.3774;0.1709;-0.3585;0.1793
0000329002;7.9440;1.0199;2.2745;0.2190;-0.3250;0.2105
0000329011;7.8314;1.1684;2.0207;0.2514;-0.3167;0.2514
0000329024;7.6231;1.6592;1.6999;0.2722;-0.3256;0.2939
0000329033;7.7237;2.0614;1.4724;0.2675;-0.3444;0.3158
0000329045;7.3933;1.9968;1.1420;0.2655;-0.3773;0.3336
0000329054;7.3310;1.7023;1.0295;0.2723;-0.3984;0.3403
0000329063;7.6998;1.5897;1.0151;0.2813;-0.4092;0.3483
0000329076;7.9942;1.3671;1.1564;0.3044;-0.4219;0.3540
0000329085;8.2768;1.2570;1.1253;0.3208;-0.4361;0.3545
0000329097;8.4539;1.3479;1.2091;0.3243;-0.4318;0.3651
0000329106;8.4731;1.2522;1.1325;0.3174;-0.4080;0.3536
0000329119;8.3486;1.2306;1.2163;0.3066;-0.3659;0.3139
0000329128;8.3079;1.2737;1.2306;0.2947;-0.3333;0.2734
0000329137;8.1020;1.3288;1.1109;0.2727;-0.2979;0.2201
0000329149;8.1092;1.6855;0.9864;0.2482;-0.2910;0.1451
0000329158;7.9176;1.8579;0.9984;0.2109;-0.2910;0.1151
0000329171;7.7237;2.0877;0.8452;0.1584;-0.3215;0.1005
0000329180;7.7405;2.1476;0.7685;0.1278;-0.3567;0.1126
0000329249;8.6479;2.2242;0.6871;0.2276;-0.5800;0.1928
0000329258;8.8322;2.2027;0.6249;0.2526;-0.5997;0.1867
0000329267;8.9783;2.3918;0.4190;0.2533;-0.5885;0.1797
0000329280;9.2416;2.7964;0.0646;0.2105;-0.5682;0.1571
0000329289;9.3709;2.9544;-0.1963;0.1675;-0.5520;0.1398
0000329301;9.5170;2.8228;-0.3496;0.0981;-0.4940;0.1431
0000329310;9.7803;2.7318;-0.2538;0.0537;-0.4305;0.1611
0000329323;10.0126;2.4660;-0.0383;0.0385;-0.3492;0.1659
0000329332;10.3118;2.5283;0.1915;0.0537;-0.2950;0.1426
0000329344;9.9862;2.5594;0.4190;0.0613;-0.2150;0.0970
0000329353;9.9383;2.6432;0.4860;0.0441;-0.1699;0.0536
0000329362;9.8354;2.7342;0.4693;0.0045;-0.1231;0.0012
0000329375;9.4499;2.6911;0.5387;-0.0246;-0.0577;-0.0658
0000329384;9.4379;2.6408;0.4956;-0.0192;-0.0233;-0.1073
0000329396;9.2392;2.7629;0.3831;-0.0149;0.0238;-0.1335
0000329405;9.2296;2.8491;0.3567;-0.0049;0.0613;-0.1368
0000329418;9.1459;2.8922;0.3591;0.0318;0.0925;-0.1326
0000329427;9.1818;3.1627;0.3208;0.0405;0.1219;-0.1090
0000329436;8.8825;3.3232;0.3711;0.0460;0.1486;-0.0950
0000329448;8.6503;3.5171;0.0670;0.0248;0.1907;-0.0687
0000329457;8.5904;3.7757;0.0192;0.0013;0.2114;-0.0536
0000329470;8.3965;3.6966;-0.0934;-0.0305;0.2097;-0.0225
0000329479;8.5042;3.7661;-0.1532;-0.0770;0.2104;-0.0075
0000329548;9.5768;1.7310;1.1229;-0.0428;0.5690;-0.0124
0000329557;10.0173;2.3008;1.0511;0.0585;0.6238;-0.0492
0000329566;9.9048;2.4397;1.0056;0.1226;0.6788;-0.0845
0000329579;9.7995;3.0023;0.4286;0.1427;0.7317;-0.1338
0000329588;9.4523;3.2513;0.1508;0.1124;0.7525;-0.1617
0000329600;9.1985;3.7278;-0.9218;0.0390;0.7460;-0.1816
0000329609;8.6455;3.9313;-1.3767;-0.0205;0.7544;-0.1635
0000329622;8.4180;5.0709;-1.4533;-0.0795;0.7715;-0.1591
0000329631;8.2648;5.8562;-1.5610;-0.1683;0.7694;-0.1799
0000329643;8.3007;7.0078;-1.7621;-0.4061;0.7610;-0.1728
0000329652;7.9152;7.2209;-1.3647;-0.6484;0.7538;-0.1390
0000329661;7.9487;6.9719;-0.6153;-0.8883;0.7454;-0.1127
0000329674;7.2496;6.5793;-0.6249;-1.1852;0.6971;-0.0473
0000329683;6.1770;6.2201;0.5914;-1.2404;0.6340;0.0226
0000329695;5.8131;5.9735;1.0223;-1.1122;0.4967;0.0775
0000329704;6.3614;5.5258;1.1492;-1.0316;0.3449;0.0211
0000329717;7.1850;5.4636;2.1620;-0.8747;0.1740;-0.0829
0000329726;8.4036;5.4995;2.4445;-0.7560;0.1096;-0.1324
0000329735;9.2129;5.3654;2.8371;-0.6745;0.0845;-0.1883
0000329747;9.8354;5.0757;3.3064;-0.6265;0.1142;-0.2527
0000329756;9.9623;4.6543;3.5745;-0.5921;0.1684;-0.2959
0000329769;9.5912;3.7397;3.7278;-0.4984;0.2842;-0.3356
0000329778;9.5098;3.3184;3.9480;-0.4090;0.3545;-0.3451
0000329847;7.2712;2.3727;4.1731;-0.1813;0.5673;-0.2346
0000329856;7.2520;1.8244;4.2617;-0.1198;0.5753;-0.1985
0000329869;7.3933;1.6328;4.2377;0.0152;0.5950;-0.1625
0000329878;7.2018;1.5538;3.9169;0.0922;0.6033;-0.1368
0000329887;7.2353;1.9417;3.7302;0.1354;0.6269;-0.1139
0000329899;7.2640;2.6169;3.0670;0.1498;0.6440;-0.1190
0000329908;6.9576;3.0670;2.7174;0.1283;0.6418;-0.1484
0000329921;6.5410;3.0406;2.2913;0.0549;0.6271;-0.1919
0000329930;6.2153;2.8898;2.2649;0.0076;0.6047;-0.2249
0000329942;5.7533;2.2745;2.4110;-0.0264;0.5524;-0.2631
0000329951;5.6240;1.9249;2.5570;0.0043;0.4960;-0.3032
0000329960;5.4229;1.4940;2.4948;0.0433;0.4245;-0.3254
0000329974;5.6216;1.2282;2.4038;0.1234;0.3255;-0.3415
0000329983;5.8442;1.1061;2.5522;0.1676;0.2878;-0.3400
0000329996;6.2321;1.1708;2.4397;0.2092;0.2635;-0.3327
0000330005;6.7828;1.4413;2.5211;0.2046;0.2793;-0.3260
0000330017;7.0844;1.4724;2.2577;0.1491;0.3194;-0.3134
0000330026;7.1706;1.3671;2.4110;0.0890;0.3671;-0.2990
0000330035;7.4292;1.2282;2.5690;0.0376;0.4273;-0.2810
0000330048;7.3765;1.1396;2.4780;0.0013;0.5040;-0.2574
0000330057;7.4077;1.0989;2.3248;-0.0060;0.5470;-0.2430
0000330069;7.1946;0.9936;2.0494;0.0084;0.5953;-0.2069
0000330078;6.5793;0.9361;1.9944;0.0348;0.6330;-0.1755
0000330145;5.3798;2.3727;1.5323;-0.1122;0.4899;-0.1046
0000330154;5.5354;2.4134;1.5347;-0.1031;0.4303;-0.1227
0000330163;5.2960;2.1500;1.5634;-0.0597;0.3557;-0.1652
0000330175;4.9943;1.8220;1.3934;0.0075;0.2531;-0.1903
0000330184;5.1116;1.9561;1.4533;0.0561;0.1695;-0.1855
0000330197;4.8961;1.9776;1.3599;0.1223;0.0558;-0.1728
0000330206;4.9416;2.4301;1.3408;0.1443;-0.0200;-0.1699
0000330218;4.5801;2.5642;1.3168;0.1294;-0.0998;-0.1462
0000330227;4.5083;3.1196;1.2546;0.0946;-0.1700;-0.1403
0000330240;4.5729;3.2058;1.1085;0.0289;-0.2667;-0.1136
0000330249;4.8435;3.3351;0.9888;-0.0075;-0.3315;-0.0903
0000330258;4.8794;3.0742;0.8332;-0.0322;-0.3926;-0.0759
0000330270;5.3271;3.0167;0.9960;-0.0320;-0.4590;-0.0548
0000330279;5.4851;2.8515;1.3096;-0.0188;-0.4939;-0.0538
0000330292;5.9161;2.7414;1.4198;0.0057;-0.5331;-0.0678
0000330301;6.0454;2.5738;1.5179;0.0213;-0.5550;-0.0906
0000330313;6.2513;2.5953;1.5179;0.0196;-0.5676;-0.1107
0000330322;6.3997;2.7294;1.6640;0.0171;-0.5490;-0.1134
0000330331;6.2153;2.4972;2.0087;0.0341;-0.5432;-0.1158
0000330344;6.4260;2.3846;2.2170;0.0574;-0.5117;-0.0943
0000330353;6.8857;2.2769;2.0303;0.0628;-0.4779;-0.0673
0000330365;7.1539;1.9225;1.8914;0.1002;-0.4209;-0.0274
0000330374;7.4819;2.2793;1.6879;0.1371;-0.3860;0.0088
0000330443;5.5929;3.9672;1.1827;-0.1507;-0.4054;-0.0352
0000330452;5.7389;3.6009;1.1995;-0.1507;-0.4656;-0.0338
0000330464;6.3375;3.6823;1.0870;-0.1364;-0.5738;-0.0408
0000330473;6.4260;3.7350;0.9529;-0.1507;-0.6443;-0.0422
0000330482;6.4979;4.1084;1.2067;-0.1883;-0.7139;-0.0640
0000330495;6.7157;4.7477;1.3001;-0.2991;-0.7906;-0.1160
0000330504;6.5769;4.9752;1.3503;-0.4040;-0.8404;-0.1612
0000330516;6.2728;5.0278;1.4150;-0.5095;-0.9433;-0.2113
0000330525;5.9711;4.8842;1.7813;-0.5331;-0.9982;-0.2253
0000330538;5.3941;4.8674;1.7238;-0.5101;-1.0733;-0.2216
0000330547;5.6767;5.1930;3.2322;-0.4319;-1.0563;-0.1916
0000330559;6.7828;5.6982;3.8092;-0.2939;-1.0183;-0.1657
0000330568;8.9495;6.7445;3.1101;-0.2257;-0.9741;-0.1186
0000330577;10.5560;7.0533;2.8587;-0.2096;-0.8741;-0.0450
0000330590;12.0309;7.0318;2.6217;-0.3372;-0.6157;0.0915
0000330599;11.2049;6.3518;2.8323;-0.4710;-0.3752;0.1708
0000330611;9.3757;5.9975;3.1316;-0.6083;-0.0554;0.2875
0000330620;8.1307;5.8083;3.7948;-0.6282;0.1050;0.3475
0000330633;6.8546;5.8155;4.5993;-0.5828;0.1958;0.3934
0000330642;6.2608;5.1356;4.8602;-0.5688;0.1853;0.4189
0000330654;5.8826;3.8403;5.1308;-0.5189;0.1069;0.4576
0000330663;5.7437;2.7701;5.1236;-0.4607;0.0184;0.4879
0000330672;5.4899;2.0901;4.9919;-0.3645;-0.0899;0.5015
0000330741;6.2321;0.3879;4.0486;-0.1937;-0.3460;0.3993
0000330750;6.3303;0.3855;3.9528;-0.1166;-0.4092;0.4124
0000330762;6.7828;0.6919;3.7230;-0.0080;-0.4978;0.4198
0000330771;7.1539;0.8691;3.3136;0.0667;-0.5476;0.4109
0000330784;8.1547;1.2905;2.9736;0.1394;-0.5478;0.4089
0000330793;8.4036;1.4581;2.4565;0.1555;-0.5240;0.4121
0000330802;8.6933;1.6281;2.2314;0.1440;-0.4854;0.4175
0000330814;8.9519;1.8603;2.2458;0.1519;-0.4278;0.4290
0000330823;8.6718;1.7861;2.3176;0.1671;-0.4024;0.4415
0000330836;8.2744;1.9800;2.0470;0.1831;-0.3565;0.4755
0000330845;8.4180;2.0542;2.0446;0.1907;-0.3208;0.4954
0000330857;8.4324;2.2194;2.0279;0.1904;-0.2848;0.5141
0000330866;8.5880;2.2146;2.1045;0.1804;-0.2601;0.5123
0000330875;8.6455;2.0997;1.9752;0.1673;-0.2362;0.4886
0000330888;8.6550;1.8675;2.3152;0.1559;-0.2216;0.4307
0000330897;8.2600;1.4533;2.4565;0.1540;-0.2182;0.3920
0000330909;8.2720;1.0032;2.6456;0.1936;-0.2534;0.3349
0000330918;7.9871;0.9146;2.6791;0.2332;-0.2799;0.2951
0000330931;7.7381;0.7805;2.6432;0.3088;-0.3461;0.2426
0000330940;7.6830;1.1995;2.5067;0.3460;-0.3838;0.2293
0000330949;7.7285;1.3503;2.3415;0.3910;-0.4363;0.2045
0000330961;7.8506;1.8076;1.8699;0.4147;-0.4764;0.1905
0000330970;8.2672;2.0877;1.6017;0.4078;-0.4758;0.1872
0000331039;9.4786;0.7925;2.3200;0.2181;-0.2141;0.1776
0000331048;9.8043;0.6297;2.4325;0.2650;-0.1592;0.1616
0000331060;9.9144;0.5171;2.4612;0.3675;-0.0974;0.1206
0000331069;9.9216;0.6728;2.4301;0.4478;-0.0493;0.0895
0000331078;9.9934;1.0439;2.3056;0.5107;-0.0144;0.0654
0000331091;9.7396;1.6999;2.0830;0.5337;0.0537;0.0594
0000331100;9.5577;2.1787;1.9752;0.5204;0.1045;0.0689
0000331112;9.1219;2.3942;1.8531;0.4794;0.1604;0.1058
0000331121;9.0285;2.5067;1.9130;0.4434;0.2026;0.1298
0000331134;8.8633;2.2290;1.9848;0.4061;0.2565;0.1661
0000331143;9.1075;2.0662;1.9369;0.4022;0.2946;0.1937
0000331152;9.4284;2.0518;1.8699;0.4186;0.3291;0.2124
0000331164;10.0317;1.9944;1.8699;0.4495;0.3800;0.2236
0000331173;10.3142;2.0446;1.6951;0.4830;0.4032;0.2145
0000331186;10.3166;2.4995;1.5610;0.5045;0.4543;0.2006
0000331195;10.0628;2.6240;1.5131;0.5084;0.4768;0.1633
0000331207;9.7396;2.9113;1.2186;0.4491;0.5183;0.1132
0000331216;9.8833;3.0598;1.2761;0.3862;0.5466;0.0839
0000331225;9.9168;3.0861;1.3048;0.3439;0.5668;0.0536
0000331238;9.9838;2.7653;1.2929;0.3273;0.5957;0.0215
0000331247;10.2424;2.8994;1.3599;0.3226;0.6129;0.0076
0000331259;10.0892;3.0694;1.2761;0.3195;0.6359;-0.0113
0000331268;9.8186;3.1603;1.0989;0.3188;0.6444;-0.0338
0000331337;9.6391;2.5498;1.0702;0.1156;0.7418;-0.0934
0000331346;9.5792;2.7581;0.9912;0.1172;0.7605;-0.1120
0000331355;9.4523;2.9018;0.8045;0.1107;0.7782;-0.1300
0000331367;9.2823;3.1005;0.8978;0.1023;0.7883;-0.1414
0000331376;9.0860;3.1580;0.9218;0.0987;0.7870;-0.1440
0000331389;9.1339;3.2010;1.0032;0.0901;0.7634;-0.1636
0000331398;9.0381;2.9353;1.0942;0.0706;0.7474;-0.1771
0000331410;9.0525;2.3128;1.4269;0.0546;0.7464;-0.2036
0000331419;8.9519;1.8316;1.5682;0.0862;0.7540;-0.2230
0000331428;8.7676;1.4772;1.8268;0.1459;0.7524;-0.2430
0000331442;8.2648;2.1955;1.9201;0.2654;0.7313;-0.2305
0000331451;7.7333;2.8802;1.6424;0.3324;0.6865;-0.2108
0000331464;7.5250;4.0917;0.4621;0.3488;0.5874;-0.1952
0000331473;7.6231;4.8291;-0.1748;0.2975;0.5119;-0.2060
0000331485;9.2344;6.2369;-0.5818;0.1661;0.4134;-0.2742
0000331494;9.6750;7.1156;0.3472;-0.0027;0.3984;-0.3179
0000331503;9.7516;8.0685;1.4006;-0.1665;0.4386;-0.3393
0000331516;9.8210;8.6694;1.1013;-0.3976;0.4926;-0.3553
0000331525;9.6822;8.6910;0.6704;-0.5437;0.5215;-0.3529
0000331537;9.5624;7.8290;1.8387;-0.5942;0.5504;-0.3487
0000331546;9.5529;6.9240;2.1165;-0.5157;0.5562;-0.3568
0000331615;7.6686;4.9057;2.9568;-0.4037;0.5435;-0.4734
0000331624;7.8410;4.3383;3.0742;-0.3516;0.5473;-0.4620
0000331633;7.9200;3.8235;3.0574;-0.3292;0.5746;-0.4450
0000331645;8.0756;3.2920;3.0933;-0.3238;0.6404;-0.4158
0000331654;7.8530;2.8108;3.2441;-0.3214;0.7128;-0.4009
0000331667;7.6231;2.0087;3.0502;-0.2927;0.8019;-0.3894
0000331676;7.2712;1.5299;3.0861;-0.2466;0.8420;-0.3832
0000331688;7.0054;1.3767;2.9018;-0.1664;0.8612;-0.3941
0000331697;6.4739;1.1372;2.6552;-0.1037;0.8656;-0.3868
0000331710;5.7628;1.2713;2.3679;0.0063;0.8358;-0.3721
0000331719;5.3127;1.5610;2.1668;0.0576;0.7994;-0.3544
0000331728;5.4061;2.0207;2.0063;0.0757;0.7588;-0.3242
0000331740;5.3750;2.4852;1.7980;0.0813;0.6772;-0.2828
0000331749;5.7150;2.7677;1.6520;0.0821;0.6145;-0.2514
0000331762;5.5330;2.4373;1.5083;0.0818;0.5355;-0.2130
0000331771;5.5857;2.1883;1.5060;0.1082;0.4788;-0.1961
0000331783;5.4827;1.7142;1.5275;0.1593;0.4147;-0.1712
0000331792;5.4684;1.3671;1.5347;0.1972;0.3778;-0.1472
0000331801;5.7341;1.2953;1.5658;0.2497;0.3459;-0.1320
0000331814;5.8586;1.1660;1.6735;0.3084;0.3095;-0.1238
0000331823;5.8778;1.0319;1.6376;0.3179;0.2964;-0.1180
0000331835;6.0286;1.1109;1.6472;0.3082;0.2923;-0.1187
0000331844;5.8299;0.9385;1.5179;0.2858;0.2948;-0.1239
0000331913;5.9137;1.6328;1.2139;0.3047;0.2825;-0.0683
0000331922;5.6527;1.7765;1.2115;0.2778;0.2647;-0.0628
0000331931;5.6958;1.8435;1.1684;0.2361;0.2493;-0.0340
0000331943;5.5258;1.7669;1.2426;0.1970;0.2132;-0.0128
0000331952;5.4827;1.7837;1.2330;0.1819;0.1835;0.0040
0000331965;5.3175;1.9968;1.2067;0.1712;0.1283;0.0270
0000331974;5.1332;1.9585;1.3192;0.1769;0.0841;0.0529
0000331986;5.2529;2.2122;1.2857;0.1692;0.0333;0.0863
0000331995;5.2840;2.4972;1.3312;0.1641;-0.0112;0.1059
0000332004;5.3582;2.5211;1.4748;0.1645;-0.0466;0.1254
0000332017;5.4947;2.6169;1.5371;0.1636;-0.0990;0.1346
0000332026;5.6192;2.4756;1.3575;0.1664;-0.1207;0.1342
0000332038;6.1028;2.6025;1.4341;0.1644;-0.1374;0.1430
0000332047;6.2321;2.5881;1.3096;0.1715;-0.1581;0.1440
0000332060;6.1244;2.3008;1.1684;0.1840;-0.1768;0.1452
0000332069;5.8155;2.2745;1.2019;0.1837;-0.1937;0.1584
0000332078;5.7341;2.3966;1.0558;0.1915;-0.2338;0.1641
0000332090;5.5138;2.6097;0.9792;0.1757;-0.2898;0.1982
0000332099;5.1954;2.7509;0.9337;0.1524;-0.3443;0.2330
0000332112;5.0254;2.8994;0.8859;0.1248;-0.4254;0.2918
0000332121;5.2577;2.6360;0.8906;0.1252;-0.4948;0.3216
0000332133;5.3893;2.4349;0.8715;0.1412;-0.5808;0.3512
0000332142;5.6527;2.5762;0.7638;0.1689;-0.6500;0.3689
0000332151;5.6886;2.6456;0.7278;0.2076;-0.7232;0.3561
0000332219;7.5705;4.0510;0.2179;0.0392;-0.8653;0.1468
0000332228;7.5322;3.8738;0.0814;-0.0169;-0.8096;0.1559
0000332240;7.7309;3.8954;-0.1915;-0.1003;-0.7370;0.2010
0000332249;7.6255;3.5650;-0.0694;-0.1568;-0.7073;0.2425
0000332262;7.6375;3.2944;0.3184;-0.1973;-0.6595;0.3082
0000332271;7.5417;3.1436;0.2538;-0.2096;-0.6467;0.3355
0000332280;7.2927;2.9281;0.0670;-0.2061;-0.6328;0.3625
0000332292;7.1299;2.8659;-0.1053;-0.1816;-0.6346;0.3643
0000332301;7.0413;2.9090;0.0455;-0.1443;-0.6217;0.3609
0000332314;7.0054;2.9784;0.0311;-0.1021;-0.6336;0.3600
0000332323;7.1874;2.9975;-0.2394;-0.1010;-0.6302;0.3556
0000332335;7.9464;3.2394;-0.6440;-0.1031;-0.6439;0.3536
0000332344;8.0948;2.9999;-0.8882;-0.1091;-0.6482;0.3724
0000332357;7.8482;2.7222;-1.2737;-0.0993;-0.6233;0.3856
0000332366;7.3478;2.7485;-1.1444;-0.1055;-0.6005;0.3957
0000332375;6.7924;2.6671;-1.0319;-0.1203;-0.5894;0.4297
0000332387;6.3925;2.8730;-0.9481;-0.0950;-0.6474;0.4614
0000332396;6.2848;3.2202;-0.2538;-0.0501;-0.6939;0.4930
0000332409;6.6056;3.9863;1.6568;0.1212;-0.7550;0.4632
0000332418;8.2576;5.0063;2.5690;0.2478;-0.7458;0.3619
0000332430;11.8513;6.5601;3.6009;0.3938;-0.5934;0.0871
0000332439;14.1042;7.8889;3.1843;0.3934;-0.3536;-0.1452
0000332508;3.7230;2.4684;2.2242;-0.0051;0.7071;0.4016
0000332517;4.0773;2.4756;2.1691;0.1788;0.5255;0.4405
0000332526;4.7956;2.5474;1.8771;0.3324;0.3631;0.4285
0000332538;6.5290;2.6743;1.6448;0.4519;0.2110;0.3683
0000332547;7.6734;2.7940;1.4533;0.4700;0.1736;0.3042
0000332560;8.8490;2.7150;1.4078;0.3861;0.2142;0.1952
0000332569;9.2991;2.4995;1.3216;0.2982;0.2755;0.1350
0000332581;9.4403;1.7645;1.5036;0.1739;0.3922;0.0807
0000332590;10.0102;1.4653;2.0614;0.1411;0.4912;0.0698
0000332599;10.2376;1.0750;2.3990;0.1641;0.5864;0.0428
0000332612;10.1969;0.8068;2.4229;0.2269;0.7392;0.0113
0000332621;10.2759;0.8212;2.3631;0.2757;0.8470;-0.0135
0000332633;9.9311;1.1756;2.2290;0.3348;1.0067;-0.0171
0000332642;9.3877;1.5610;1.9297;0.3809;1.1056;-0.0089
0000332655;9.0261;2.2218;1.6664;0.4479;1.2328;0.0472
0000332664;8.9040;2.8371;1.2833;0.4808;1.2970;0.0987
0000332673;8.8825;3.1101;1.0846;0.5008;1.3362;0.1631
0000332685;9.2871;3.5554;0.8643;0.4916;1.3937;0.2618
0000332694;9.3685;3.2705;0.7302;0.4854;1.4396;0.3030
0000332707;9.8904;3.0430;0.5195;0.4698;1.5167;0.3247
0000332716;9.8569;2.6336;0.7542;0.4823;1.5765;0.3174
0000332725;9.7851;2.3032;0.8595;0.5296;1.6237;0.2821
0000332739;9.2201;1.9824;0.7446;0.6043;1.6906;0.2306
0000332748;9.1746;2.2122;0.5555;0.6672;1.7219;0.2021
0000332817;8.5042;1.8411;0.2227;0.6039;1.6201;0.1042
0000332826;8.5904;1.5610;0.0862;0.6532;1.5998;0.0550
0000332838;8.7987;1.6592;0.0862;0.7422;1.5918;0.0020
0000332847;8.8705;2.1715;0.0790;0.7946;1.5942;-0.0225
0000332856;9.1626;2.8491;-0.1101;0.8386;1.6053;-0.0358
0000332869;9.1554;3.8068;-0.6823;0.8307;1.6510;-0.0580
0000332878;9.0285;4.3263;-0.9170;0.7806;1.6968;-0.0667
0000332890;8.6862;4.8076;-1.1756;0.6740;1.7768;-0.0544
0000332899;8.4300;4.9488;-1.3767;0.5734;1.8279;-0.0366
0000332912;7.9009;4.8435;-1.1851;0.4267;1.8995;-0.0124
0000332921;7.9799;4.6687;-1.0558;0.3419;1.9377;0.0021
0000332930;7.7907;4.4748;-0.8739;0.2952;1.9621;0.0125
0000332942;7.4795;4.0893;-0.6536;0.2609;1.9778;0.0164
0000332951;7.4891;4.0893;-0.6800;0.2326;1.9738;0.0242
0000332965;7.3263;3.8427;-0.7805;0.1974;1.9235;0.0270
0000332974;7.1778;3.6344;-0.8523;0.1759;1.8678;0.0481
0000332987;6.8857;3.5434;-0.8404;0.1603;1.7577;0.0721
0000332996;6.6080;3.5745;-0.8954;0.1585;1.6577;0.0790
0000333005;6.4332;3.8235;-1.2641;0.1383;1.5589;0.0922
0000333017;5.8083;3.6703;-1.3144;0.1003;1.4214;0.0847
0000333026;5.8993;3.6368;-1.2426;0.0847;1.3045;0.0787
0000333095;8.8657;1.7693;-1.1732;0.2022;0.8535;0.1220
0000333104;9.4619;1.5203;-1.1947;0.2798;0.8843;0.1399
0000333116;10.1586;1.6137;-1.4293;0.3636;0.9507;0.1340
0000333125;10.1873;1.1923;-1.4724;0.3957;1.0128;0.1073
0000333138;10.5991;0.9864;-1.6568;0.4493;1.1107;0.0250
0000333147;10.4052;0.5674;-1.6807;0.4660;1.2013;-0.0332
0000333156;10.5656;0.7518;-1.5131;0.5172;1.2939;-0.1207
0000333168;10.3022;1.0271;-0.8212;0.6171;1.4285;-0.2441
0000333177;10.2017;1.9154;0.3855;0.6595;1.5569;-0.3573
0000333190;9.7516;5.2672;2.8850;0.6215;1.7207;-0.4672
0000333199;8.6143;8.2001;3.9911;0.3786;1.7736;-0.4170
0000333211;5.3798;11.6550;3.0239;-0.1414;1.8898;-0.2326
0000333220;1.7382;13.1992;1.6448;-0.2378;1.9886;-0.0212
0000333229;0.6488;13.8648;0.8499;-0.0127;1.8177;0.2514
0000333242;6.4907;8.3773;-0.2562;-0.0294;1.4233;0.2851
0000333251;8.4084;5.5282;0.7518;-0.1320;1.3765;0.1541
0000333263;10.8912;2.3487;1.3072;-0.1067;1.4186;0.0266
0000333272;12.2870;0.9960;1.1205;-0.0079;1.5056;-0.0805
0000333285;11.9519;-0.2538;1.2234;0.0877;1.6671;-0.2153
0000333294;10.8074;-0.3639;1.3240;0.1208;1.7492;-0.2678
0000333306;8.4731;0.5770;1.1420;0.1881;1.7352;-0.3100
0000333315;5.7964;1.5897;0.6943;0.2101;1.6294;-0.3036
0000333324;3.4620;2.7438;0.1269;0.1996;1.4615;-0.2990
0000333393;6.2800;3.4836;-0.1532;-0.0354;0.4628;-0.1955
0000333402;7.2736;3.1196;0.0072;-0.0652;0.4959;-0.1434
0000333414;7.6351;2.4157;0.0551;-0.0600;0.5979;-0.1196
0000333423;7.8937;2.0063;-0.1101;-0.0358;0.6797;-0.1331
0000333436;7.9296;1.7717;0.1748;0.0253;0.7905;-0.1276
0000333445;7.9511;1.9417;0.1077;0.0734;0.8600;-0.1146
0000333454;7.6662;2.0135;0.0670;0.1182;0.9128;-0.1065
0000333466;7.1347;2.6169;-0.0215;0.1387;0.9907;-0.0825
0000333475;6.7971;3.0981;-0.3184;0.1160;1.0257;-0.0537
0000333488;5.8347;3.5219;-0.4788;0.0373;1.0778;0.0464
0000333497;5.4851;3.6368;-0.4860;0.0007;1.0970;0.1556
0000333509;5.5354;3.6464;-0.3304;-0.0254;1.1217;0.2967
0000333518;5.5952;3.3902;-0.4453;-0.0493;1.1403;0.3830
0000333531;5.8179;3.0694;-0.1772;-0.0560;1.1562;0.4610
0000333540;5.8754;2.8299;-0.1221;-0.0711;1.1588;0.4798
0000333549;6.2680;3.0430;-0.0958;-0.0751;1.1596;0.4571
0000333561;6.3758;3.1077;-0.1269;-0.0777;1.1469;0.3989
0000333570;6.1914;3.2346;-0.1963;-0.0774;1.1271;0.3240
0000333583;6.1148;3.3447;-0.3472;-0.0855;1.0768;0.2277
0000333592;5.9544;3.4165;-0.6369;-0.0991;1.0369;0.1845
0000333604;5.8610;3.4907;-0.8284;-0.1302;0.9731;0.1525
0000333613;5.7078;3.5865;-0.8978;-0.1495;0.9196;0.1386
0000333622;5.8012;3.7014;-0.9768;-0.1584;0.8703;0.1384
0000333691;4.9440;2.3535;-0.9170;0.0065;0.5232;0.1019
0000333700;5.1092;2.1979;-0.8954;0.0649;0.4854;0.1279
0000333712;5.2289;1.9992;-0.7614;0.1504;0.4455;0.1752
0000333721;5.6790;2.0614;-0.6943;0.2197;0.4162;0.2001
0000333734;6.1986;1.9489;-0.7422;0.3235;0.3832;0.2213
0000333743;6.4284;1.9920;-0.8835;0.3583;0.3865;0.2426
0000333752;6.8378;2.1955;-0.9242;0.3858;0.3744;0.2662
0000333764;7.0940;2.8060;0.1987;0.4187;0.3628;0.3405
0000333773;7.6543;3.9456;1.2306;0.4121;0.3653;0.3742
0000333786;9.4164;6.3662;1.5538;0.2687;0.4307;0.2910
0000333795;10.8026;7.3765;1.0846;0.1019;0.5120;0.1294
0000333807;11.2934;7.4723;0.1652;-0.0204;0.6374;-0.1327
0000333816;9.8114;6.5098;-0.5100;-0.0541;0.7373;-0.2462
0000333825;7.5298;5.0757;-0.3089;-0.0440;0.8228;-0.2228
0000333838;4.6136;3.3471;0.8523;0.1599;0.8509;-0.1066
0000333847;2.8635;2.8467;1.0774;0.3399;0.7814;-0.0181
0000333859;1.4748;3.2489;0.9601;0.4770;0.6055;0.0413
0000333868;1.3360;3.3423;0.6800;0.4762;0.4521;0.0390
0000333881;2.4541;3.7014;1.0032;0.4234;0.2056;-0.0284
0000333890;4.1611;3.4141;1.2306;0.3535;0.0552;-0.0474
0000333899;6.3303;3.1915;1.3527;0.2757;-0.0434;-0.0155
0000333911;9.3853;3.1436;1.6424;0.2419;-0.0867;-0.0494
0000333920;11.0301;3.0382;1.6927;0.2260;-0.0325;-0.1065
0000333989;7.9392;3.0526;0.2729;0.2610;1.2339;-0.0665
0000333996;7.6662;3.2082;0.2298;0.2777;1.2922;-0.0004
0000334007;7.8817;3.8714;0.0551;0.3002;1.3230;0.1055
0000334015;8.2121;4.0725;-0.0622;0.3060;1.3294;0.1621
0000334027;8.4827;3.9720;-0.3448;0.2900;1.3303;0.1861
0000334035;8.4994;3.5937;-0.3950;0.2862;1.3316;0.1767
0000334043;8.4204;3.2537;-0.2801;0.2864;1.3262;0.1615
0000334054;8.4779;2.5163;-0.1030;0.3024;1.3261;0.1160
0000334062;8.4276;2.2960;-0.1030;0.3248;1.3205;0.0687
0000334074;8.0230;2.0830;-0.1532;0.3461;1.3098;0.0039
