time;acc_x;acc_y;acc_z;gyro_x;gyro_y;gyro_z
0001156097;-2.4780;-7.0820;4.7190;-0.0103;-0.0376;-0.0199
0001156105;-2.5450;-7.1204;4.6878;-0.0045;-0.0356;-0.0188
0001156112;-2.4277;-7.0413;4.6783;-0.0052;-0.0388;-0.0217
0001156120;-2.5043;-7.1443;4.7190;-0.0031;-0.0361;-0.0200
0001156129;-2.3942;-6.9959;4.6998;0.0028;-0.0417;-0.0261
0001156137;-2.5881;-7.1611;4.7262;0.0033;-0.0386;-0.0238
0001156149;-2.4277;-7.0006;4.6495;0.0064;-0.0350;-0.0221
0001156157;-2.3631;-7.0078;4.6950;0.0028;-0.0377;-0.0221
0001156168;-2.4062;-7.0054;4.6591;0.0061;-0.0392;-0.0207
0001156176;-2.1955;-6.9623;4.6088;0.0035;-0.0398;-0.0218
0001156184;-2.4780;-7.1706;4.6424;0.0120;-0.0409;-0.0272
0001156196;-2.4205;-7.0653;4.6136;0.0077;-0.0394;-0.0204
0001156204;-2.5091;-7.1275;4.6495;0.0080;-0.0401;-0.0274
0001156215;-2.4541;-7.0701;4.6064;0.0051;-0.0378;-0.0226
0001156223;-2.5690;-7.1467;4.6831;0.0056;-0.0414;-0.0297
0001156235;-2.2697;-6.9168;4.6543;0.0064;-0.0402;-0.0310
0001156243;-2.4493;-7.0174;4.5777;0.0044;-0.0320;-0.0273
0001156254;-2.3727;-6.9408;4.6687;0.0088;-0.0385;-0.0320
0001156262;-2.3655;-7.0557;4.6471;0.0008;-0.0393;-0.0290
0001156270;-2.4277;-7.0677;4.6567;-0.0044;-0.0330;-0.0284
0001156282;-2.5426;-7.1323;4.5777;-0.0056;-0.0286;-0.0274
0001156290;-2.5474;-7.0294;4.6328;-0.0069;-0.0298;-0.0290
0001156358;-2.5235;-7.0557;4.6759;-0.0091;-0.0374;-0.0155
0001156366;-2.4493;-7.0006;4.6519;-0.0107;-0.0368;-0.0187
0001156378;-2.5355;-7.0773;4.6950;-0.0073;-0.0348;-0.0157
0001156386;-2.6456;-7.1850;4.5179;-0.0073;-0.0425;-0.0152
0001156397;-2.7270;-7.3646;4.6711;0.0005;-0.0453;-0.0173
0001156405;-2.5307;-7.1611;4.6615;0.0008;-0.0544;-0.0208
0001156417;-2.5857;-7.2425;4.6280;0.0077;-0.0565;-0.0242
0001156425;-2.4253;-7.2233;4.7022;0.0109;-0.0521;-0.0261
0001156436;-2.4948;-7.2018;4.6304;0.0079;-0.0461;-0.0261
0001156444;-2.3679;-7.0964;4.6328;0.0093;-0.0414;-0.0241
0001156452;-2.3727;-6.8833;4.5897;0.0105;-0.0406;-0.0332
0001156464;-2.3894;-7.0964;4.7238;0.0101;-0.0370;-0.0297
0001156472;-2.1404;-6.9025;4.6639;0.0128;-0.0292;-0.0320
0001156483;-2.5402;-7.1299;4.6735;0.0236;-0.0364;-0.0434
0001156491;-2.4373;-7.0677;4.6184;0.0225;-0.0356;-0.0365
0001156503;-2.4062;-7.1084;4.6519;0.0284;-0.0408;-0.0433
0001156511;-2.4756;-7.1299;4.6256;0.0246;-0.0425;-0.0429
0001156522;-2.3583;-7.1275;4.6639;0.0329;-0.0420;-0.0490
0001156530;-2.4349;-7.1467;4.6591;0.0318;-0.0324;-0.0429
0001156542;-2.4421;-7.1611;4.6208;0.0305;-0.0301;-0.0433
0001156550;-2.6719;-7.2209;4.6304;0.0286;-0.0329;-0.0489
0001156558;-2.3415;-7.0701;4.6926;0.0358;-0.0290;-0.0472
0001156625;-2.3439;-6.9743;4.6807;0.0143;-0.0428;-0.0340
0001156633;-2.2913;-6.9240;4.7046;0.0096;-0.0425;-0.0317
0001156645;-2.5211;-6.9839;4.6280;0.0039;-0.0377;-0.0273
0001156653;-2.4349;-7.0485;4.6352;0.0048;-0.0365;-0.0226
0001156664;-2.4181;-7.0294;4.7070;-0.0017;-0.0402;-0.0226
0001156672;-2.4517;-6.9815;4.6160;-0.0033;-0.0428;-0.0203
0001156684;-2.4493;-7.0150;4.6687;-0.0121;-0.0406;-0.0165
0001156692;-2.4876;-7.0342;4.6711;-0.0155;-0.0482;-0.0195
0001156703;-2.3870;-7.0006;4.6807;-0.0211;-0.0489;-0.0077
0001156711;-2.5355;-7.0916;4.6112;-0.0213;-0.0445;-0.0127
0001156719;-2.3798;-7.0773;4.6519;-0.0215;-0.0504;-0.0188
0001156731;-2.5163;-7.1946;4.6807;-0.0268;-0.0454;-0.0091
0001156739;-2.5809;-7.1347;4.6376;-0.0240;-0.0525;-0.0129
0001156750;-2.3798;-7.1706;4.6711;-0.0185;-0.0553;-0.0127
0001156758;-2.3703;-7.1275;4.7525;-0.0212;-0.0450;-0.0031
0001156770;-2.3439;-7.0174;4.6615;-0.0189;-0.0454;-0.0059
0001156778;-2.4588;-7.2233;4.6376;-0.0161;-0.0522;-0.0113
0001156789;-2.6145;-7.1682;4.6807;-0.0189;-0.0446;-0.0109
0001156797;-2.3894;-7.0461;4.6998;-0.0144;-0.0490;-0.0117
0001156809;-2.5594;-7.1012;4.7118;-0.0135;-0.0453;-0.0080
0001156817;-2.3894;-7.0509;4.6591;-0.0151;-0.0466;-0.0084
0001156885;-2.3391;-6.9839;4.6280;-0.0024;-0.0466;-0.0144
0001156893;-2.3391;-7.0581;4.6878;-0.0037;-0.0442;-0.0097
0001156901;-2.4110;-7.1563;4.6663;-0.0051;-0.0446;-0.0153
0001156913;-2.5043;-7.0964;4.7764;0.0001;-0.0432;-0.0159
0001156921;-2.6576;-7.3119;4.7094;-0.0020;-0.0466;-0.0195
0001156932;-2.3200;-7.0820;4.7788;0.0012;-0.0445;-0.0163
0001156940;-2.3104;-7.0557;4.7118;0.0029;-0.0448;-0.0211
0001156952;-2.2769;-7.0916;4.6878;0.0052;-0.0474;-0.0220
0001156960;-2.5738;-7.2257;4.7094;0.0009;-0.0445;-0.0151
0001156971;-2.4852;-7.0773;4.6376;0.0049;-0.0464;-0.0184
0001156979;-2.5833;-7.2880;4.7166;0.0071;-0.0490;-0.0184
0001156991;-2.3966;-7.0916;4.6639;0.0029;-0.0440;-0.0164
0001156999;-2.5187;-7.0820;4.7190;0.0051;-0.0465;-0.0175
0001157007;-2.4972;-7.1491;4.7285;-0.0024;-0.0434;-0.0135
0001157018;-2.3894;-7.0988;4.7190;0.0060;-0.0444;-0.0132
0001157026;-2.4014;-7.0820;4.6807;0.0015;-0.0390;-0.0116
0001157038;-2.5570;-7.1898;4.6831;0.0083;-0.0433;-0.0115
0001157046;-2.4421;-7.1180;4.7764;0.0077;-0.0476;-0.0140
0001157057;-2.6097;-7.0342;4.7142;0.0131;-0.0518;-0.0151
0001157065;-2.5163;-7.2496;4.7238;0.0193;-0.0610;-0.0199
0001157077;-2.4349;-6.9695;4.7740;0.0199;-0.0577;-0.0195
0001157085;-2.2889;-7.0054;4.7453;0.0281;-0.0628;-0.0232
0001157153;-2.4948;-7.4723;4.8961;0.0970;-0.0465;-0.0580
0001157161;-2.5977;-7.4579;4.8243;0.1128;-0.0496;-0.0642
0001157169;-2.5283;-7.2808;4.8698;0.1364;-0.0600;-0.0786
0001157181;-2.5953;-7.4029;4.7573;0.1588;-0.0618;-0.0930
0001157189;-2.2170;-7.0701;4.7166;0.1719;-0.0572;-0.1033
0001157200;-2.1715;-7.2568;4.7716;0.1819;-0.0381;-0.1091
0001157208;-2.1955;-7.2353;4.8195;0.1936;-0.0301;-0.1178
0001157220;-1.9178;-6.9576;4.7645;0.1955;-0.0059;-0.1240
0001157228;-1.9632;-7.1682;4.7980;0.2022;0.0101;-0.1316
0001157239;-1.9848;-7.1084;4.7716;0.2081;0.0416;-0.1336
0001157247;-1.9058;-7.1730;4.7525;0.2192;0.0632;-0.1328
0001157255;-2.0877;-7.4268;4.8602;0.2210;0.0921;-0.1280
0001157267;-1.9992;-7.3957;4.7956;0.2458;0.1234;-0.1323
0001157275;-2.2051;-7.5465;4.7262;0.2619;0.1324;-0.1414
0001157286;-2.3343;-7.5776;4.7788;0.2805;0.1520;-0.1376
0001157294;-2.2673;-7.4675;4.6280;0.3068;0.1537;-0.1506
0001157306;-2.2577;-7.5058;4.5921;0.3337;0.1527;-0.1701
0001157314;-2.3535;-7.3239;4.6160;0.3465;0.1523;-0.1796
0001157325;-2.2817;-7.1515;4.5226;0.3561;0.1422;-0.2017
0001157333;-2.4828;-7.1706;4.6950;0.3607;0.1408;-0.2121
0001157345;-2.6432;-7.0366;4.6998;0.3709;0.1366;-0.2076
0001157353;-2.8204;-7.0509;4.6783;0.3838;0.1194;-0.2144
0001157361;-3.0957;-7.2065;4.6400;0.3972;0.0887;-0.2170
0001157429;-1.4796;-8.1475;4.8291;0.8773;-0.2338;-0.5576
0001157437;-1.4820;-8.1977;4.9752;0.9232;-0.1760;-0.5886
0001157449;-1.5060;-8.0254;5.0757;1.0027;-0.0955;-0.6039
0001157457;-1.3695;-7.9080;4.9584;1.0396;-0.0398;-0.5907
0001157469;-1.3934;-7.6950;4.8842;1.1046;0.0536;-0.5530
0001157477;-1.4653;-7.6016;4.8770;1.1235;0.1115;-0.5343
0001157488;-1.8340;-7.4196;4.7190;1.1574;0.1712;-0.5212
0001157496;-2.2242;-7.2808;4.6926;1.1747;0.2044;-0.5136
0001157504;-2.5618;-7.1754;4.7238;1.2001;0.2133;-0.5229
0001157516;-3.0646;-6.8378;4.6855;1.2121;0.2377;-0.5184
0001157524;-3.4884;-7.0174;4.5801;1.2237;0.2074;-0.5124
0001157535;-3.6607;-7.2257;4.6615;1.2173;0.1490;-0.4704
0001157543;-3.7757;-7.2329;4.6304;1.2251;0.0995;-0.4250
0001157555;-3.4907;-6.7804;4.5298;1.2259;0.0513;-0.3571
0001157563;-3.3423;-6.5457;4.5753;1.2252;0.0165;-0.3187
0001157574;-3.0191;-6.3063;4.4412;1.2005;-0.0282;-0.3064
0001157582;-2.7797;-5.9568;4.5633;1.1702;-0.0168;-0.2940
0001157590;-2.6169;-6.0669;4.5346;1.1449;-0.0024;-0.2799
0001157602;-2.7031;-6.1028;4.4628;1.1058;-0.0017;-0.2642
0001157610;-2.7414;-6.3039;4.1707;1.0866;-0.0318;-0.2699
0001157622;-2.6600;-6.5122;4.5179;1.0527;-0.0365;-0.2490
0001157630;-2.7629;-6.5218;4.4317;1.0464;-0.0633;-0.2426
0001157698;-2.7318;-6.6104;4.6591;0.9734;-0.1759;-0.2731
0001157706;-2.8180;-6.7157;4.6591;0.9792;-0.1813;-0.2741
0001157717;-3.0263;-7.0174;4.6088;1.0091;-0.2030;-0.2762
0001157725;-2.7174;-6.8187;4.5681;1.0168;-0.2232;-0.2691
0001157737;-2.4062;-6.6726;4.4484;1.0319;-0.2374;-0.2655
0001157745;-2.3320;-6.4667;4.3934;1.0392;-0.2414;-0.2602
0001157753;-2.1620;-6.2608;4.3862;1.0259;-0.2290;-0.2523
0001157764;-2.1524;-6.1339;4.4867;0.9932;-0.2001;-0.2515
0001157772;-2.0710;-6.0956;4.4508;0.9694;-0.1823;-0.2595
0001157784;-2.3343;-5.7341;4.4245;0.9288;-0.1635;-0.2453
0001157792;-2.4181;-5.8969;4.4125;0.9126;-0.1757;-0.2435
0001157803;-2.6600;-5.7293;4.2784;0.8653;-0.1853;-0.2140
0001157811;-2.7366;-5.7533;4.3981;0.8392;-0.1976;-0.2005
0001157823;-2.6408;-5.6575;4.4939;0.8025;-0.2241;-0.1773
0001157831;-2.4708;-5.5043;4.4077;0.7735;-0.2174;-0.1595
0001157842;-2.5522;-5.5258;4.4293;0.7418;-0.1945;-0.1466
0001157850;-2.2865;-5.5569;4.4197;0.7109;-0.1817;-0.1478
0001157858;-2.4469;-5.6000;4.3311;0.6847;-0.1923;-0.1551
0001157870;-2.5786;-5.6096;4.4197;0.6503;-0.1940;-0.1641
0001157878;-2.6145;-5.6360;4.2856;0.6382;-0.2113;-0.1801
0001157890;-2.5570;-5.6431;4.3598;0.6146;-0.2194;-0.1901
0001157898;-2.4612;-5.7006;4.4532;0.6098;-0.2373;-0.1986
0001157965;-2.4732;-5.4875;4.5753;0.5087;-0.2884;-0.2763
0001157973;-2.3272;-5.2601;4.6687;0.5023;-0.2860;-0.2671
0001157984;-2.4565;-5.2337;4.6256;0.4750;-0.2770;-0.2538
0001157992;-2.5690;-5.2385;4.6112;0.4624;-0.2770;-0.2447
0001158004;-2.7054;-5.2481;4.6831;0.4478;-0.2958;-0.2362
0001158012;-2.6240;-5.2648;4.8363;0.4387;-0.2855;-0.2162
0001158020;-2.3990;-5.1188;4.7621;0.4203;-0.2818;-0.1939
0001158031;-2.4157;-4.8602;4.7645;0.3930;-0.2843;-0.1571
0001158039;-2.3631;-4.7692;4.7788;0.3750;-0.2860;-0.1350
0001158051;-2.2386;-4.4460;4.7214;0.3305;-0.2831;-0.1156
0001158059;-1.8435;-4.2497;4.7429;0.2990;-0.2723;-0.1131
0001158070;-1.8914;-4.2976;4.8722;0.2509;-0.2477;-0.1375
0001158078;-1.8196;-4.3527;4.6352;0.2194;-0.2269;-0.1552
0001158090;-1.7813;-4.5418;4.7142;0.1780;-0.2042;-0.1663
0001158098;-1.9249;-4.9368;4.7046;0.1516;-0.1990;-0.1676
0001158106;-2.0327;-4.9488;4.7357;0.1274;-0.1916;-0.1615
0001158117;-2.0973;-4.7429;4.7022;0.1065;-0.1935;-0.1620
0001158125;-2.0782;-4.7549;5.0039;0.0823;-0.1988;-0.1599
0001158137;-2.0135;-4.9967;5.0685;0.0545;-0.1848;-0.1637
0001158145;-1.9824;-5.3056;5.2625;0.0510;-0.1773;-0.1605
0001158157;-2.0614;-6.2417;5.4564;0.0529;-0.1639;-0.1556
0001158165;-2.0614;-6.8402;5.6934;0.0717;-0.1340;-0.1310
0001158233;-2.1069;-3.7493;5.0398;-0.0502;-0.1234;0.2755
0001158241;-1.9920;-3.7804;4.9177;-0.1386;-0.0947;0.3100
0001158252;-1.7382;-4.1827;4.8602;-0.2493;-0.0646;0.3325
0001158260;-1.7119;-4.7597;4.6519;-0.3108;-0.0388;0.3267
0001158268;-1.5203;-5.0733;4.7142;-0.3467;-0.0265;0.3150
0001158280;-1.6520;-5.7916;4.5897;-0.3800;-0.0167;0.2761
0001158288;-1.7454;-5.9640;4.5825;-0.3708;-0.0193;0.2394
0001158299;-1.9944;-6.3614;4.5801;-0.3579;-0.0260;0.1797
0001158307;-1.8555;-6.3686;4.7022;-0.3361;-0.0348;0.1271
0001158319;-2.1237;-6.3686;4.8123;-0.3076;-0.0349;0.0505
0001158327;-1.9704;-6.2130;4.8722;-0.2759;-0.0457;-0.0029
0001158338;-1.9776;-6.3111;4.8578;-0.2419;-0.0574;-0.0726
0001158346;-2.0255;-6.3686;4.9584;-0.2154;-0.0560;-0.1098
0001158358;-2.0997;-6.5386;5.2002;-0.1780;-0.0594;-0.1621
0001158366;-2.1117;-6.6487;5.1715;-0.1563;-0.0560;-0.1816
0001158374;-1.9585;-6.6080;5.3726;-0.1290;-0.0632;-0.1901
0001158385;-2.0183;-6.4548;5.4109;-0.0911;-0.0645;-0.1828
0001158393;-2.3774;-6.5888;5.5306;-0.0602;-0.0640;-0.1764
0001158405;-2.1165;-6.2560;5.3463;-0.0191;-0.0625;-0.1676
0001158413;-2.1883;-6.0645;5.4779;0.0000;-0.0677;-0.1681
0001158425;-1.9752;-5.9951;5.3917;0.0208;-0.0709;-0.1556
0001158433;-2.1979;-5.8921;5.4133;0.0310;-0.0789;-0.1601
0001158501;-1.8052;-5.7197;5.4037;-0.0478;-0.0508;-0.1178
0001158509;-1.8699;-5.5857;5.5426;-0.0600;-0.0469;-0.1065
0001158520;-1.9249;-5.5809;5.4612;-0.0858;-0.0408;-0.0801
0001158528;-1.8794;-5.5545;5.4564;-0.1088;-0.0326;-0.0655
0001158540;-1.8364;-5.5138;5.4708;-0.1416;-0.0164;-0.0413
0001158548;-1.7597;-5.5737;5.5474;-0.1608;-0.0089;-0.0199
0001158556;-1.8220;-5.5306;5.5354;-0.1815;-0.0080;-0.0049
0001158567;-1.9297;-5.6743;5.4612;-0.2190;0.0083;0.0286
0001158575;-1.9249;-5.7006;5.4372;-0.2372;0.0095;0.0417
0001158588;-2.0135;-5.7509;5.5282;-0.2587;0.0113;0.0687
0001158595;-1.6400;-5.6958;5.4564;-0.2753;0.0215;0.0798
0001158606;-1.7789;-5.8658;5.5426;-0.2962;0.0356;0.0950
0001158614;-1.7741;-5.7078;5.4205;-0.3011;0.0418;0.1057
0001158626;-1.7095;-5.8371;5.4444;-0.3063;0.0482;0.1296
0001158634;-1.9441;-5.9807;5.4947;-0.3147;0.0490;0.1442
0001158642;-2.1237;-5.9592;5.5354;-0.3066;0.0380;0.1536
0001158654;-2.1524;-6.1028;5.4468;-0.3146;0.0488;0.1843
0001158662;-2.0327;-6.0047;5.4229;-0.3083;0.0468;0.1885
0001158674;-1.9489;-5.9759;5.3558;-0.3102;0.0440;0.2006
0001158682;-1.9537;-6.0908;5.4444;-0.3062;0.0477;0.2052
0001158694;-1.7861;-6.1052;5.2912;-0.3059;0.0534;0.2058
0001158702;-1.9872;-6.1627;5.3510;-0.3067;0.0594;0.2084
0001158770;-1.9513;-5.9448;5.1811;-0.3224;0.0598;0.2092
0001158778;-2.0686;-6.0334;5.2241;-0.3236;0.0633;0.2078
0001158786;-2.1476;-6.2273;5.2720;-0.3199;0.0562;0.2068
0001158797;-2.2051;-6.1124;5.1380;-0.3198;0.0597;0.2102
0001158805;-2.2769;-6.2584;5.1284;-0.3128;0.0556;0.2062
0001158817;-2.1739;-6.1435;5.1811;-0.3054;0.0473;0.2044
0001158825;-2.3248;-6.1675;5.0805;-0.2954;0.0522;0.2065
0001158837;-2.3008;-6.2321;5.1475;-0.2713;0.0420;0.2000
0001158845;-2.2553;-6.3949;5.1260;-0.2497;0.0432;0.1900
0001158856;-2.3511;-6.4356;5.0518;-0.2181;0.0462;0.1792
0001158864;-2.3990;-6.4811;5.0159;-0.1901;0.0438;0.1676
0001158876;-2.3870;-6.5625;5.1140;-0.1516;0.0426;0.1518
0001158884;-2.2697;-6.2513;4.9991;-0.1139;0.0321;0.1340
0001158892;-2.3463;-6.3470;5.0374;-0.0857;0.0254;0.1255
0001158903;-2.5953;-6.4045;5.0254;-0.0474;0.0056;0.1023
0001158911;-2.4325;-6.1675;5.0589;-0.0217;-0.0004;0.0946
0001158923;-2.5809;-6.1627;5.1595;0.0151;-0.0211;0.0802
0001158931;-2.6240;-6.2441;5.0973;0.0420;-0.0344;0.0654
0001158942;-2.4038;-5.8203;5.0302;0.0729;-0.0416;0.0478
0001158950;-2.3104;-5.7724;4.9656;0.0935;-0.0452;0.0308
0001158962;-2.1811;-5.7844;4.8842;0.1287;-0.0433;0.0185
0001158970;-2.2553;-5.7652;4.7908;0.1459;-0.0370;0.0155
0001158978;-2.1668;-5.9328;4.8530;0.1688;-0.0342;0.0081
0001159046;-2.2984;-6.2130;4.7645;0.4026;-0.0826;-0.2093
0001159054;-2.1428;-5.8921;4.5586;0.3980;-0.0726;-0.2046
0001159066;-2.3200;-5.5833;4.6591;0.3805;-0.0576;-0.1876
0001159074;-2.3583;-5.1427;4.6591;0.3617;-0.0461;-0.1711
0001159085;-2.4062;-4.7908;4.6926;0.3190;-0.0508;-0.1402
0001159093;-2.1979;-4.5753;4.8483;0.2856;-0.0497;-0.1211
0001159105;-2.4588;-4.6663;4.8602;0.2316;-0.0340;-0.0989
0001159113;-2.3798;-4.8195;4.8650;0.2102;-0.0257;-0.0949
0001159121;-2.2817;-5.0470;4.8746;0.1880;-0.0200;-0.0911
0001159132;-2.2434;-5.2241;4.7716;0.1627;-0.0141;-0.0877
0001159140;-2.2218;-5.3941;4.7094;0.1527;-0.0180;-0.0817
0001159152;-2.1931;-5.4013;4.6615;0.1436;-0.0316;-0.0834
0001159160;-2.2051;-5.2289;4.7573;0.1400;-0.0368;-0.0866
0001159171;-2.0614;-5.1188;4.7597;0.1226;-0.0332;-0.0855
0001159179;-2.1213;-4.9680;4.7453;0.1062;-0.0249;-0.0857
0001159191;-2.1380;-4.9344;4.7549;0.0890;-0.0212;-0.0958
0001159199;-1.9680;-4.8171;4.8363;0.0733;-0.0085;-0.1039
0001159210;-2.1524;-5.0446;4.7908;0.0573;-0.0127;-0.1210
0001159218;-2.1715;-5.1451;4.8483;0.0532;-0.0193;-0.1392
0001159226;-2.1308;-5.2218;4.8602;0.0492;-0.0052;-0.1514
0001159238;-2.2745;-5.4061;4.7190;0.0564;-0.0008;-0.1512
0001159246;-2.3080;-5.3965;4.8195;0.0705;-0.0123;-0.1506
0001159314;-2.1644;-5.0901;5.0446;0.1203;0.0277;-0.1126
0001159322;-2.1620;-4.8626;5.1260;0.1303;0.0236;-0.1228
0001159334;-2.1907;-4.8722;5.1739;0.1331;0.0189;-0.1231
0001159342;-2.3391;-5.0589;5.2050;0.1464;0.0163;-0.1272
0001159353;-2.1787;-4.9656;5.1739;0.1565;0.0181;-0.1227
0001159361;-2.2458;-4.9943;5.3199;0.1775;0.0084;-0.1223
0001159369;-2.4972;-5.1451;5.3750;0.1864;0.0099;-0.1210
0001159381;-2.5331;-4.8746;5.3893;0.2250;-0.0041;-0.1220
0001159389;-2.6288;-4.9297;5.5091;0.2411;-0.0092;-0.1184
0001159400;-2.5259;-5.0374;5.4851;0.2677;-0.0177;-0.1194
0001159408;-2.5331;-5.0063;5.5569;0.2858;-0.0196;-0.1239
0001159420;-2.5259;-5.0973;5.6455;0.3248;-0.0378;-0.1294
0001159428;-2.8180;-5.1547;5.7174;0.3383;-0.0440;-0.1336
0001159440;-2.6073;-4.9129;5.8658;0.3689;-0.0642;-0.1410
0001159448;-2.8180;-4.8842;6.1220;0.3965;-0.0722;-0.1492
0001159460;-3.0837;-4.9512;6.1579;0.4567;-0.0783;-0.1476
0001159468;-3.5410;-5.0829;6.1220;0.4719;-0.0658;-0.1490
0001159476;-3.2633;-5.0039;6.1746;0.4533;-0.0490;-0.1450
0001159487;-3.3447;-5.0398;6.3686;0.4486;-0.0048;-0.1310
0001159495;-3.3830;-4.8961;6.5386;0.4675;0.0329;-0.0895
0001159507;-4.0079;-5.0470;6.5936;0.5160;0.0422;-0.0265
0001159515;-4.0630;-5.1811;6.6032;0.5179;0.0225;0.0008
0001159583;-1.1971;-5.5426;5.3367;0.4630;-0.2742;-0.1438
0001159591;-0.9912;-5.7820;5.1595;0.4243;-0.2403;-0.1593
0001159603;-0.5938;-5.6886;4.9249;0.3798;-0.1545;-0.1933
0001159611;-0.6608;-5.6360;4.9464;0.3407;-0.0947;-0.2230
0001159622;-1.1037;-5.6383;4.9416;0.2995;-0.0264;-0.2810
0001159630;-1.3886;-5.8323;5.0063;0.2541;0.0256;-0.3208
0001159638;-1.7669;-5.8083;4.9991;0.2234;0.0669;-0.3580
0001159650;-2.0614;-6.1603;4.9225;0.2120;0.0993;-0.4053
0001159658;-2.6193;-6.3853;4.8291;0.2049;0.0965;-0.4317
0001159669;-2.8515;-6.9049;4.8459;0.2165;0.0818;-0.4499
0001159677;-2.9090;-7.0509;4.7716;0.2136;0.0670;-0.4478
0001159689;-2.7964;-7.1012;4.8339;0.2392;0.0302;-0.4591
0001159697;-2.6121;-6.9623;4.8770;0.2618;0.0019;-0.4732
0001159708;-2.2984;-6.4883;4.8866;0.2854;-0.0257;-0.5200
0001159716;-2.2266;-6.5912;4.9895;0.3060;-0.0230;-0.5498
0001159724;-2.0039;-6.4859;4.8028;0.3216;-0.0125;-0.5878
0001159736;-1.9106;-6.5003;4.7812;0.3627;0.0101;-0.6399
0001159744;-1.6305;-6.3279;4.8530;0.3837;0.0337;-0.6646
0001159755;-1.9201;-6.5984;4.9249;0.4175;0.0421;-0.6895
0001159763;-2.1356;-6.7564;4.9249;0.4375;0.0456;-0.7071
0001159775;-2.4684;-6.8666;5.0302;0.4823;0.0580;-0.7233
0001159783;-2.4948;-6.7516;5.0230;0.5079;0.0606;-0.7302
0001159851;-2.3391;-6.9767;4.8650;0.7157;-0.0414;-0.8487
0001159859;-2.4660;-7.2760;4.8123;0.7504;-0.0385;-0.8632
0001159867;-2.3415;-7.0677;4.7980;0.7861;-0.0346;-0.8741
0001159879;-2.4014;-7.1658;4.8267;0.8455;-0.0320;-0.8925
0001159887;-2.5426;-7.1395;4.8100;0.8788;-0.0429;-0.8985
0001159898;-2.4636;-6.8235;4.7980;0.9080;-0.0530;-0.9066
0001159906;-2.3248;-6.5912;4.8530;0.9070;-0.0546;-0.8970
0001159918;-2.4852;-6.4596;4.7621;0.9140;-0.0678;-0.8819
0001159926;-2.3966;-6.1986;4.8123;0.8976;-0.0809;-0.8655
0001159938;-2.3535;-5.9209;4.7070;0.8865;-0.1018;-0.8468
0001159946;-2.0399;-5.8634;4.8267;0.8656;-0.1015;-0.8144
0001159958;-1.7909;-5.9999;4.7788;0.8376;-0.1010;-0.7783
0001159966;-1.7693;-6.0669;4.6232;0.8192;-0.0934;-0.7694
0001159974;-1.5754;-6.0956;4.5873;0.8017;-0.0803;-0.7485
0001159986;-1.6879;-6.2369;4.4891;0.7609;-0.0670;-0.7103
0001159994;-1.4844;-6.3470;4.5274;0.7301;-0.0541;-0.6916
0001160006;-1.4676;-6.3638;4.4700;0.7004;-0.0385;-0.6483
0001160014;-1.5323;-6.4260;4.4939;0.6852;-0.0329;-0.6222
0001160025;-1.3288;-6.2465;4.4293;0.6769;-0.0325;-0.6111
0001160033;-1.4126;-6.3375;4.4652;0.6596;-0.0159;-0.6037
0001160045;-1.3168;-6.5960;4.5059;0.6526;0.0108;-0.6013
0001160053;-1.3072;-6.5529;4.4077;0.6432;0.0310;-0.5913
0001160121;-1.7573;-6.4141;4.3311;0.5625;0.0604;-0.4932
0001160129;-1.8459;-6.3590;4.3000;0.5516;0.0506;-0.4898
0001160137;-1.8866;-6.3734;4.3742;0.5388;0.0482;-0.4908
0001160149;-1.9944;-6.6607;4.3383;0.5204;0.0441;-0.5019
0001160157;-1.7693;-6.4189;4.3479;0.5049;0.0482;-0.4996
0001160169;-1.7765;-6.6391;4.4556;0.4964;0.0626;-0.4888
0001160177;-1.7382;-6.6200;4.3551;0.4888;0.0687;-0.4810
0001160189;-1.5610;-6.4715;4.4556;0.4812;0.0874;-0.4583
0001160197;-1.7885;-6.4979;4.4221;0.4690;0.0909;-0.4441
0001160209;-1.8340;-6.5984;4.4149;0.4509;0.1061;-0.4186
0001160217;-1.8459;-6.4284;4.4101;0.4349;0.1140;-0.4057
0001160225;-1.9345;-6.4763;4.4843;0.4183;0.1158;-0.3926
0001160236;-2.0590;-6.3686;4.4772;0.3984;0.1066;-0.3810
0001160244;-2.0686;-6.2776;4.5370;0.3804;0.1070;-0.3651
0001160256;-2.2290;-6.2106;4.6136;0.3632;0.1057;-0.3516
0001160264;-2.2386;-6.3638;4.5346;0.3532;0.1050;-0.3459
0001160276;-2.3918;-6.3877;4.6136;0.3291;0.1123;-0.3277
0001160284;-2.3296;-6.4763;4.5610;0.3254;0.1066;-0.3191
0001160296;-2.2817;-6.6391;4.6519;0.3063;0.0993;-0.2987
0001160304;-2.3152;-6.8977;4.5753;0.3034;0.0907;-0.2975
0001160312;-2.3008;-6.9456;4.7094;0.3150;0.0803;-0.2998
0001160380;-2.6863;-6.6894;4.8985;0.2473;0.1033;-0.2741
0001160388;-2.7916;-6.7588;4.8483;0.2310;0.0941;-0.2697
0001160400;-2.8395;-6.8402;4.8746;0.2108;0.0835;-0.2457
0001160408;-2.9066;-6.8714;4.8459;0.1944;0.0609;-0.2450
0001160420;-2.7605;-7.1778;4.7477;0.1715;0.0230;-0.2466
0001160428;-2.7701;-7.1204;4.8339;0.1427;0.0125;-0.2434
0001160440;-2.5115;-6.9408;4.8818;0.0957;-0.0005;-0.2493
0001160448;-2.4780;-6.8714;4.9344;0.0628;0.0027;-0.2543
0001160456;-2.1668;-6.7325;4.9201;0.0240;0.0088;-0.2446
0001160468;-2.4062;-6.8115;4.7549;-0.0242;0.0245;-0.2294
0001160476;-2.4756;-6.8331;4.8937;-0.0522;0.0462;-0.2144
0001160488;-2.4660;-6.8977;4.8483;-0.0839;0.0658;-0.1840
0001160496;-2.6097;-7.0797;4.8123;-0.0927;0.0673;-0.1641
0001160508;-2.9066;-7.5465;4.6783;-0.1083;0.0590;-0.1641
0001160516;-2.9377;-7.6040;4.6998;-0.1243;0.0489;-0.1855
0001160528;-2.8299;-7.7333;4.4987;-0.1194;0.0446;-0.2086
0001160536;-2.8635;-8.0637;4.5107;-0.1136;0.0540;-0.2229
0001160547;-2.7414;-8.0804;4.1300;-0.1120;0.0703;-0.2438
0001160555;-3.0287;-8.1547;4.0390;-0.1038;0.0558;-0.2562
0001160563;-2.7964;-7.9416;4.0438;-0.0934;0.0456;-0.2539
0001160575;-2.8491;-8.0732;4.0534;-0.0774;0.0416;-0.2394
0001160583;-2.7342;-7.7381;4.1084;-0.0581;0.0360;-0.2341
0001160651;-2.8323;-7.6902;3.8283;0.0007;-0.0441;-0.2160
0001160659;-2.7940;-7.6519;3.8259;-0.0017;-0.0510;-0.2086
0001160671;-2.7557;-7.5441;3.7924;0.0040;-0.0725;-0.1940
0001160679;-2.8922;-7.7333;3.8499;0.0097;-0.0618;-0.1840
0001160691;-2.6959;-7.7093;3.7852;0.0160;-0.0494;-0.2014
0001160699;-2.5809;-7.7333;3.7996;0.0234;-0.0368;-0.2106
0001160711;-2.6384;-8.1283;3.7924;0.0489;-0.0358;-0.2325
0001160719;-2.7270;-8.0924;3.8116;0.0691;-0.0390;-0.2249
0001160727;-2.6504;-8.1618;3.7062;0.0925;-0.0394;-0.2318
0001160739;-2.5809;-8.2887;3.8235;0.1192;-0.0326;-0.2312
0001160747;-2.9090;-8.4348;3.7757;0.1375;-0.0313;-0.2321
0001160759;-2.7366;-8.0732;3.8427;0.1608;-0.0409;-0.2141
0001160767;-2.6815;-7.8937;3.8882;0.1735;-0.0470;-0.2120
0001160779;-2.6815;-7.8171;3.8858;0.1956;-0.0496;-0.2062
0001160787;-2.5474;-7.6830;3.9385;0.2166;-0.0658;-0.2088
0001160799;-2.5809;-7.8314;3.7685;0.2366;-0.0714;-0.2102
0001160807;-2.6600;-7.7883;3.9241;0.2503;-0.0809;-0.2136
0001160815;-2.5211;-7.7668;3.9911;0.2675;-0.0801;-0.2180
0001160827;-2.7078;-7.9487;4.0677;0.2876;-0.0847;-0.2241
0001160835;-2.5666;-8.0110;3.9911;0.3018;-0.0855;-0.2249
0001160847;-2.7509;-8.2265;4.0031;0.3280;-0.0945;-0.2165
0001160855;-2.7270;-8.0661;3.9361;0.3413;-0.0885;-0.2136
0001160923;-2.8683;-7.5178;4.1563;0.3411;-0.0512;-0.1367
0001160931;-2.8276;-7.5729;3.8355;0.3371;-0.0638;-0.1352
0001160943;-3.0909;-7.7835;3.7373;0.3657;-0.1111;-0.1272
0001160951;-3.1580;-7.6447;3.8738;0.3754;-0.1368;-0.1242
0001160963;-3.2178;-7.6902;3.9935;0.3857;-0.1707;-0.1296
0001160971;-3.1843;-7.5657;4.0175;0.3841;-0.1865;-0.1435
0001160979;-3.1651;-7.5058;3.9193;0.3848;-0.2020;-0.1549
0001160991;-2.8347;-7.4244;3.9624;0.3904;-0.2020;-0.1541
0001160999;-3.0263;-7.4531;3.9097;0.3998;-0.2042;-0.1510
0001161011;-2.8419;-7.1754;4.0677;0.4042;-0.1955;-0.1466
0001161019;-2.8611;-7.2185;3.9313;0.4061;-0.1996;-0.1498
0001161031;-2.8036;-7.1802;4.1180;0.4032;-0.2042;-0.1518
0001161039;-2.9544;-7.4555;4.3191;0.4001;-0.2180;-0.1532
0001161051;-2.9832;-7.3358;4.8411;0.3704;-0.2455;-0.1533
0001161059;-2.8467;-7.3478;5.4085;0.3232;-0.2762;-0.1494
0001161071;-2.0279;-6.7373;6.1531;0.2026;-0.3074;-0.1226
0001161079;-1.2641;-6.2465;5.8921;0.1232;-0.2455;-0.0959
0001161087;-0.5578;-5.9209;5.1427;0.0949;-0.1400;-0.0801
0001161099;-0.3711;-5.2194;4.6328;0.0845;-0.0096;-0.0610
0001161108;-1.3599;-5.5138;4.6711;0.0394;0.0839;-0.0801
0001161121;-3.1771;-6.8905;4.3431;-0.0173;0.1468;-0.1907
0001161130;-3.9528;-7.8602;4.2425;-0.0177;0.1030;-0.2779
0001161199;-1.9800;-6.6032;4.5514;0.0410;-0.2136;-0.1644
0001161208;-1.9321;-6.4500;4.6184;-0.0007;-0.2281;-0.1320
0001161221;-1.7190;-6.5098;4.4796;-0.0520;-0.2509;-0.0731
0001161230;-1.7454;-6.8354;4.4365;-0.0801;-0.2405;-0.0386
0001161243;-2.0614;-7.4843;4.5538;-0.0829;-0.1911;-0.0308
0001161252;-2.4924;-7.8554;4.5490;-0.0835;-0.1482;-0.0205
0001161261;-2.6815;-7.7620;4.5466;-0.0713;-0.1450;-0.0288
0001161274;-2.9951;-7.6303;4.5035;-0.0687;-0.1783;-0.0156
0001161283;-2.7509;-7.3885;4.6471;-0.0745;-0.2146;0.0032
0001161296;-2.1715;-7.1730;4.5298;-0.1023;-0.2296;0.0329
0001161305;-2.0853;-7.1228;4.6783;-0.1178;-0.2245;0.0434
0001161318;-2.1907;-7.4124;4.7238;-0.1356;-0.1970;0.0445
0001161327;-2.4086;-7.6878;4.6280;-0.1408;-0.1763;0.0473
0001161340;-2.4565;-7.9128;4.6902;-0.1326;-0.1849;0.0330
0001161349;-2.5618;-8.0589;4.6759;-0.1242;-0.1820;0.0358
0001161362;-2.4588;-7.9033;4.6471;-0.1062;-0.1970;0.0302
0001161371;-2.4828;-7.8793;4.7621;-0.0907;-0.2118;0.0077
0001161380;-2.4995;-7.9559;4.7573;-0.0819;-0.2057;-0.0053
0001161393;-2.2697;-7.8697;4.7860;-0.0506;-0.2230;-0.0257
0001161402;-2.3104;-7.9152;4.7429;-0.0369;-0.2118;-0.0310
0001161415;-2.1332;-7.9966;4.5801;-0.0124;-0.2074;-0.0442
0001161424;-2.3080;-8.1187;4.6184;-0.0021;-0.1956;-0.0433
0001161493;-2.3583;-7.8171;4.7429;0.0919;-0.2028;-0.0831
0001161502;-2.5283;-7.9128;4.7525;0.1053;-0.2146;-0.0975
0001161515;-2.0997;-7.6782;4.7932;0.1188;-0.2142;-0.1019
0001161524;-2.1811;-7.7045;4.8674;0.1155;-0.2052;-0.1098
0001161537;-2.3080;-7.8027;4.7453;0.1302;-0.1962;-0.1238
0001161546;-2.2553;-7.8602;4.9560;0.1346;-0.1857;-0.1428
0001161555;-2.2577;-7.7668;4.8483;0.1383;-0.1684;-0.1402
0001161568;-2.2745;-7.9799;4.8315;0.1444;-0.1529;-0.1450
0001161577;-2.2841;-7.8889;4.7908;0.1520;-0.1512;-0.1492
0001161593;-2.2721;-7.7740;4.9081;0.1688;-0.1482;-0.1676
0001161602;-2.1261;-7.8410;4.8674;0.1581;-0.1278;-0.1572
0001161615;-2.1955;-7.9320;4.7597;0.1625;-0.1196;-0.1560
0001161624;-2.2170;-7.8434;4.7716;0.1625;-0.1104;-0.1492
0001161636;-2.1955;-7.6591;4.8650;0.1761;-0.0997;-0.1540
0001161645;-2.4157;-7.6591;4.8937;0.1769;-0.0950;-0.1683
0001161658;-2.2793;-7.7165;4.9560;0.1772;-0.0799;-0.1824
0001161667;-2.4876;-7.8626;4.9201;0.1735;-0.0735;-0.1923
0001161676;-2.3343;-7.7428;4.9799;0.1764;-0.0617;-0.2025
0001161688;-2.3415;-7.9080;5.0853;0.1860;-0.0310;-0.2206
0001161697;-2.1787;-7.8745;5.1260;0.2024;-0.0137;-0.2407
0001161766;-3.4907;-8.0852;6.2991;0.2253;0.1691;-0.4495
0001161775;-3.5099;-8.0996;6.5027;0.2358;0.1819;-0.4836
0001161787;-4.1180;-8.2456;6.9408;0.2622;0.1944;-0.5167
0001161796;-4.2186;-8.3893;7.0318;0.2818;0.1943;-0.5269
0001161809;-4.5969;-8.3965;7.3813;0.3226;0.1704;-0.5369
0001161818;-4.8722;-8.4707;7.4029;0.3621;0.1595;-0.5316
0001161830;-5.0039;-8.3103;7.5537;0.4122;0.1474;-0.4910
0001161839;-5.4324;-8.3653;7.6351;0.4526;0.1234;-0.4490
0001161848;-5.5186;-8.4443;7.5154;0.4950;0.1078;-0.4084
0001161861;-5.6312;-8.5305;7.3981;0.5407;0.0406;-0.3760
0001161870;-5.1978;-8.4707;7.2161;0.5621;-0.0516;-0.3740
0001161882;-4.6352;-8.2839;6.9623;0.6022;-0.1629;-0.3988
0001161891;-4.0366;-8.3246;6.7900;0.6050;-0.2261;-0.4195
0001161904;-2.7821;-8.0828;6.4955;0.6237;-0.3064;-0.4750
0001161913;-1.7741;-7.9392;6.2896;0.6472;-0.3529;-0.5225
0001161925;-0.9529;-7.9607;5.8442;0.6664;-0.3379;-0.5466
0001161934;-0.4429;-8.2408;5.6838;0.6804;-0.3150;-0.5272
0001161943;-0.1293;-8.2744;5.5210;0.6983;-0.2854;-0.4880
0001161956;-0.1484;-8.4731;5.2912;0.7266;-0.2377;-0.3708
0001161965;-0.2011;-8.3629;5.3056;0.7601;-0.2136;-0.2832
0001161977;-0.1532;-8.2241;5.0135;0.7738;-0.2042;-0.1960
0001161986;-0.4621;-8.2576;5.0829;0.7657;-0.1561;-0.1502
0001162055;-1.6089;-6.9168;4.8842;0.3854;-0.0705;0.0093
0001162064;-1.3264;-7.0174;4.8507;0.3473;-0.0813;0.0148
0001162076;-1.1444;-7.2042;5.0542;0.3122;-0.0891;0.0184
0001162085;-1.2977;-7.5968;5.0805;0.3139;-0.1114;-0.0016
0001162098;-1.0630;-7.8745;5.0781;0.3187;-0.0947;-0.0304
0001162107;-1.1875;-8.1427;5.1787;0.3320;-0.0751;-0.0578
0001162116;-1.0367;-8.0278;4.9943;0.3424;-0.0429;-0.0649
0001162128;-0.9625;-7.9655;4.9752;0.3543;-0.0425;-0.0705
0001162137;-0.9816;-8.0302;4.8219;0.3621;-0.0405;-0.0596
0001162150;-0.8356;-7.5992;4.8435;0.3692;-0.0514;-0.0489
0001162159;-0.9505;-7.7476;4.8267;0.3567;-0.0516;-0.0265
0001162171;-0.9122;-7.4891;4.8028;0.3453;-0.0377;0.0049
0001162180;-1.0630;-7.2903;4.7118;0.3364;-0.0346;0.0172
0001162193;-0.9888;-7.1946;4.7740;0.2983;-0.0449;0.0273
0001162202;-0.9337;-7.1299;4.8770;0.2618;-0.0437;0.0309
0001162211;-0.8930;-6.9719;4.9009;0.2406;-0.0338;0.0409
0001162223;-1.3072;-6.9767;5.0302;0.2361;-0.0254;0.0723
0001162232;-1.7573;-7.0413;5.0254;0.2269;-0.0191;0.0993
0001162245;-1.8100;-7.0078;5.1236;0.2044;-0.0613;0.0910
0001162254;-1.8914;-7.2640;5.1332;0.1980;-0.0785;0.0802
0001162266;-1.3551;-7.2449;5.0685;0.2002;-0.0982;0.0793
0001162275;-1.2091;-7.3670;5.0446;0.2060;-0.0686;0.0657
0001162344;-1.7406;-7.1491;5.2313;0.2455;0.1062;0.0945
0001162353;-1.9201;-7.3813;5.2122;0.2442;0.0774;0.0658
0001162362;-1.8675;-7.2472;5.2337;0.2354;0.0480;0.0317
0001162374;-1.6472;-7.1323;5.3391;0.2133;0.0168;-0.0144
0001162383;-1.7573;-7.2018;5.4396;0.2076;0.0056;-0.0417
0001162396;-1.6544;-7.0102;5.7365;0.1921;0.0332;-0.0366
0001162405;-1.6376;-7.0270;5.5833;0.1896;0.0405;-0.0065
0001162417;-1.4006;-7.0461;5.5737;0.1903;0.0123;0.0053
0001162426;-1.2330;-7.0366;5.6719;0.1937;-0.0083;0.0111
0001162439;-1.0582;-7.0677;5.6623;0.1940;-0.0003;0.0368
0001162448;-0.8356;-6.9863;5.5498;0.1715;-0.0083;0.0605
0001162457;-1.1157;-6.8546;5.6503;0.1679;0.0039;0.0838
0001162469;-1.0008;-6.0932;5.5713;0.1280;-0.0067;0.1334
0001162478;-1.3192;-6.1076;5.6647;0.0914;-0.0093;0.1836
0001162491;-1.2617;-6.1603;5.6264;0.0362;-0.0518;0.2296
0001162500;-1.1349;-6.2824;5.5689;0.0151;-0.0446;0.2477
0001162512;-0.9529;-6.5122;5.5402;-0.0180;-0.0253;0.2657
0001162521;-0.9888;-6.5505;5.4348;-0.0318;0.0021;0.2661
0001162534;-1.2546;-6.6080;5.4205;-0.0498;0.0143;0.2466
0001162543;-1.5107;-6.6272;5.3774;-0.0582;0.0205;0.2277
0001162552;-1.3862;-6.6248;5.5282;-0.0537;0.0027;0.1939
0001162564;-1.7358;-6.7086;5.6168;-0.0573;-0.0310;0.1620
0001162573;-1.6783;-6.7253;5.6168;-0.0586;-0.0438;0.1545
0001162641;-1.4269;-6.4069;5.6479;-0.0285;-0.0325;0.1286
0001162650;-1.6017;-6.5170;5.7796;-0.0317;-0.0205;0.1286
0001162662;-1.8124;-6.5721;5.7820;-0.0144;-0.0234;0.1240
0001162671;-1.9106;-6.7157;5.7269;-0.0056;-0.0051;0.1400
0001162684;-1.7693;-6.7469;5.6503;0.0265;0.0203;0.1471
0001162693;-1.9034;-6.9911;5.5330;0.0521;0.0306;0.1455
0001162705;-1.7741;-6.8618;5.4708;0.0750;0.0632;0.1384
0001162714;-1.9058;-7.0390;5.3463;0.1063;0.0719;0.1206
0001162723;-1.8340;-6.9288;5.1858;0.1270;0.0817;0.1099
0001162736;-1.9273;-6.7971;5.2672;0.1438;0.1073;0.1071
0001162745;-1.9201;-6.8019;5.3893;0.1523;0.1069;0.0886
0001162757;-1.9800;-6.6391;5.2768;0.1604;0.1078;0.0898
0001162766;-1.9489;-6.3973;5.4157;0.1625;0.1014;0.0978
0001162779;-2.1428;-6.2441;5.4564;0.1559;0.1334;0.1248
0001162788;-2.2194;-5.9879;5.2864;0.1519;0.1363;0.1392
0001162797;-2.2290;-5.9735;5.3582;0.1360;0.1311;0.1512
0001162809;-2.2960;-5.9328;5.2313;0.1170;0.1062;0.1536
0001162818;-2.3439;-5.8754;5.2648;0.0962;0.0857;0.1609
0001162831;-2.4565;-6.0908;5.3247;0.0858;0.0669;0.1605
0001162840;-2.2889;-6.1196;5.2625;0.0765;0.0442;0.1585
0001162852;-2.0877;-6.3231;5.2601;0.0747;0.0374;0.1508
0001162861;-2.1045;-6.4524;5.2553;0.0682;0.0377;0.1539
0001162930;-2.2003;-5.6814;5.1332;-0.0264;-0.0023;0.1656
0001162939;-2.2482;-5.6455;5.0613;-0.0405;-0.0084;0.1552
0001162948;-2.0446;-5.6790;5.0901;-0.0494;-0.0088;0.1522
0001162960;-2.0542;-5.9209;4.9129;-0.0497;-0.0268;0.1239
0001162969;-2.1428;-5.8610;4.9584;-0.0536;-0.0312;0.1069
0001162982;-2.3152;-6.1794;4.9823;-0.0584;-0.0478;0.0697
0001162991;-2.5283;-6.2393;4.9177;-0.0653;-0.0662;0.0421
0001163003;-2.5594;-6.1459;4.9440;-0.0565;-0.1015;0.0264
0001163012;-2.6193;-6.0813;4.9033;-0.0585;-0.1391;0.0103
0001163025;-2.6647;-5.9664;5.0206;-0.0596;-0.1913;-0.0136
0001163034;-2.5690;-5.8514;4.8985;-0.0669;-0.2252;-0.0350
0001163045;-2.3248;-5.9256;4.9584;-0.0622;-0.2518;-0.0737
0001163054;-1.9992;-5.8562;4.9560;-0.0786;-0.2479;-0.0795
0001163063;-1.8794;-5.9711;5.0446;-0.0565;-0.2547;-0.1175
0001163077;-1.7190;-6.0549;5.0566;-0.0629;-0.2156;-0.1398
0001163086;-1.8244;-6.0334;5.1475;-0.0734;-0.1948;-0.1524
0001163099;-1.9632;-6.1148;5.1930;-0.0835;-0.1763;-0.1651
0001163108;-1.9154;-6.1124;5.1978;-0.0901;-0.1601;-0.1637
0001163120;-1.8866;-5.9951;5.1595;-0.0870;-0.1384;-0.1629
0001163129;-2.1069;-6.1579;5.1667;-0.0843;-0.1156;-0.1537
0001163198;-0.2035;-7.5776;5.7557;0.1152;-0.0938;-0.2864
0001163207;-0.8260;-8.0110;5.7581;0.1467;-0.0097;-0.2710
0001163219;-2.1955;-8.3438;5.5809;0.1860;0.1054;-0.2593
0001163228;-3.5003;-8.1858;5.4348;0.2426;0.1374;-0.1968
0001163237;-4.0773;-7.5226;5.3151;0.3160;0.0285;-0.1422
0001163250;-3.9911;-6.3159;4.9823;0.3499;-0.1865;-0.0865
0001163259;-3.1819;-5.5450;4.9704;0.3279;-0.2739;-0.0345
0001163271;-2.3272;-4.6687;5.2936;0.2665;-0.2920;0.0197
0001163280;-1.6472;-4.1970;5.3941;0.1879;-0.2673;0.0366
0001163293;-1.2881;-4.5801;5.3367;0.0707;-0.2012;0.0200
0001163302;-1.2234;-5.2361;5.3056;0.0079;-0.1544;-0.0047
0001163314;-1.4533;-6.6535;5.3247;-0.0230;-0.1467;-0.0727
0001163323;-1.8435;-7.5322;5.2026;-0.0087;-0.1717;-0.1246
0001163336;-2.0710;-8.0421;5.0853;0.1086;-0.2517;-0.2022
0001163345;-2.0351;-7.7045;5.2050;0.1927;-0.2935;-0.2450
0001163354;-1.8771;-7.3047;5.4253;0.2757;-0.3180;-0.2996
0001163366;-2.0662;-6.7301;5.6575;0.3541;-0.3002;-0.3425
0001163375;-2.3846;-6.2513;5.6168;0.3850;-0.2813;-0.3367
0001163388;-2.7198;-5.9209;5.4851;0.4024;-0.2814;-0.3115
0001163397;-2.8012;-6.0430;5.4779;0.4178;-0.3087;-0.2892
0001163409;-2.2290;-5.9161;5.3582;0.4122;-0.3258;-0.2761
0001163418;-1.7597;-6.0741;5.3630;0.4149;-0.3168;-0.2821
0001163487;-2.1715;-6.3327;5.2984;0.6098;-0.1402;-0.3517
0001163496;-2.2386;-6.2632;5.3606;0.6390;-0.1496;-0.3473
0001163505;-2.2170;-5.9831;5.3534;0.6447;-0.1588;-0.3260
0001163517;-2.4325;-5.9687;5.4205;0.6554;-0.1668;-0.2998
0001163526;-2.2098;-5.7437;5.3822;0.6714;-0.1801;-0.2863
0001163539;-2.0925;-5.7868;5.3175;0.6785;-0.1644;-0.2635
0001163548;-1.9704;-5.7126;5.4588;0.6837;-0.1446;-0.2626
0001163560;-1.8651;-5.8514;5.2960;0.6864;-0.1146;-0.2567
0001163569;-1.9369;-6.0358;5.3630;0.7019;-0.0987;-0.2491
0001163582;-1.9010;-5.9951;5.4300;0.7484;-0.0765;-0.2390
0001163591;-1.9920;-6.1268;5.5426;0.7773;-0.0674;-0.2205
0001163603;-2.0877;-5.8155;5.6168;0.8172;-0.0633;-0.2054
0001163612;-2.0901;-5.5737;5.9113;0.8416;-0.0689;-0.2020
0001163621;-2.3296;-5.3175;6.0621;0.8509;-0.0653;-0.1815
0001163634;-2.5809;-5.2864;6.2584;0.8735;-0.0781;-0.1478
0001163643;-2.6264;-4.8770;6.4045;0.8948;-0.0927;-0.1290
0001163655;-3.0981;-4.7453;6.6176;0.8962;-0.0973;-0.1047
0001163664;-3.3112;-4.6160;6.8067;0.8972;-0.1062;-0.0965
0001163677;-3.8642;-4.3886;6.9671;0.8755;-0.1324;-0.0794
0001163686;-3.8930;-4.0055;7.1994;0.8541;-0.1647;-0.0679
0001163698;-3.9241;-4.1970;7.3047;0.8184;-0.2289;-0.0959
0001163707;-3.7110;-3.7804;7.4915;0.7625;-0.2657;-0.1326
0001163776;-2.2865;-5.4923;6.7253;0.5237;-0.5195;-0.2634
0001163785;-1.9776;-5.5976;6.6248;0.5163;-0.5341;-0.2743
0001163794;-1.5299;-5.5593;6.5697;0.5127;-0.5510;-0.2912
0001163806;-0.8787;-5.6551;6.4260;0.5083;-0.5427;-0.3222
0001163815;-0.8188;-5.8754;6.2800;0.4995;-0.5240;-0.3456
0001163828;-0.3974;-5.8921;6.2249;0.4984;-0.4900;-0.3714
0001163837;-0.3711;-6.0454;6.0334;0.5072;-0.4707;-0.4044
0001163849;-0.4764;-6.1052;6.0645;0.5120;-0.4266;-0.4363
0001163858;-0.7518;-6.2201;6.0597;0.5245;-0.3877;-0.4502
0001163871;-1.1588;-6.3303;6.0286;0.5624;-0.3688;-0.4980
0001163880;-1.1372;-6.3686;6.0549;0.5941;-0.3733;-0.5383
0001163892;-1.1708;-6.1914;5.9975;0.6282;-0.3922;-0.5600
0001163901;-1.0151;-6.0334;6.0885;0.6588;-0.4077;-0.5753
0001163910;-0.7398;-5.8083;6.1459;0.6678;-0.3977;-0.5765
0001163923;-0.5315;-5.5522;6.1770;0.6703;-0.3833;-0.5692
0001163932;-0.7374;-5.4348;6.1962;0.6708;-0.3761;-0.5680
0001163944;-0.3304;-4.9847;6.2513;0.6331;-0.3647;-0.5570
0001163953;-0.4405;-4.9081;6.3255;0.5794;-0.3400;-0.5548
0001163966;-0.1269;-4.5945;6.1507;0.4988;-0.2896;-0.5287
0001163975;-0.2682;-4.7094;6.2369;0.4465;-0.2587;-0.4988
0001163987;-0.4310;-5.1834;6.3375;0.3792;-0.2465;-0.4686
0001163996;-0.4238;-5.3343;6.2608;0.3248;-0.2249;-0.4431
0001164065;-0.1987;-5.8778;5.6168;0.3627;-0.1199;-0.4495
0001164074;-0.4717;-5.8802;5.8155;0.3644;-0.1054;-0.4561
0001164083;-0.7015;-5.5665;5.8371;0.3671;-0.0970;-0.4297
0001164095;-0.9242;-5.2744;5.9065;0.3653;-0.1156;-0.3894
0001164104;-0.7398;-5.1643;6.0885;0.3569;-0.1272;-0.3693
0001164117;-0.8499;-5.2050;6.1076;0.3340;-0.1300;-0.3385
0001164126;-0.7590;-5.2289;6.1387;0.3187;-0.1512;-0.3246
0001164138;-0.6153;-5.2050;6.2010;0.2979;-0.1482;-0.3096
0001164147;-0.2873;-5.2074;6.1076;0.2847;-0.1360;-0.2955
0001164160;-0.1796;-5.2529;6.1627;0.2533;-0.0965;-0.2872
0001164169;-0.4046;-5.1619;6.1004;0.2320;-0.0726;-0.2611
0001164181;-0.6057;-5.2194;6.2034;0.2140;-0.0890;-0.2317
0001164190;-0.7087;-5.2984;6.2465;0.1833;-0.1007;-0.2110
0001164199;-0.7302;-5.2720;6.4763;0.1728;-0.0966;-0.1820
0001164212;-0.7661;-5.3654;6.4093;0.1512;-0.0866;-0.1312
0001164221;-0.8691;-5.4588;6.2537;0.1426;-0.1260;-0.1243
0001164233;-0.4669;-5.2840;6.4979;0.1223;-0.1195;-0.1179
0001164242;-0.5315;-5.3103;6.4165;0.1120;-0.0950;-0.0838
0001164255;-0.1532;-5.1188;6.3566;0.1026;-0.0942;-0.0725
0001164264;-0.3136;-5.3295;6.3327;0.0986;-0.0855;-0.0711
0001164276;-0.2729;-5.3726;6.4141;0.1118;-0.0561;-0.0496
0001164285;-0.6560;-5.6120;6.4428;0.1087;-0.0481;-0.0183
0001164294;-0.7614;-5.5450;6.5266;0.1216;-0.0526;-0.0015
0001164363;-0.8045;-5.4253;6.4763;0.1328;-0.0859;-0.0568
0001164372;-0.6153;-5.2529;6.4691;0.1272;-0.1001;-0.0661
0001164384;-0.6081;-5.5258;6.1842;0.1102;-0.1587;-0.1148
0001164393;-0.4669;-5.4684;6.4811;0.0951;-0.1306;-0.1316
0001164406;-0.6057;-5.3798;6.4117;0.1021;-0.0613;-0.1288
0001164415;-0.6297;-5.3271;6.3159;0.1035;-0.0862;-0.1583
0001164427;-0.2849;-5.4253;6.2824;0.1160;-0.1171;-0.1940
0001164436;-0.0790;-5.6383;6.4093;0.1166;-0.1254;-0.2296
0001164449;-0.4932;-5.5330;6.2991;0.1467;-0.0373;-0.2348
0001164458;-0.4812;-5.2672;6.0501;0.1593;-0.0734;-0.2381
0001164467;-0.5195;-5.3439;6.2704;0.1696;-0.1167;-0.2527
0001164479;-0.2634;-5.0949;6.3710;0.1659;-0.0881;-0.2633
0001164488;-0.3400;-5.1691;6.5194;0.1488;-0.0570;-0.2563
0001164502;-0.9697;-5.1044;6.5745;0.1491;-0.0421;-0.2076
0001164511;-0.9864;-5.2170;6.6463;0.1470;-0.0469;-0.1941
0001164524;-0.9409;-5.1308;6.7205;0.1483;-0.0506;-0.1781
0001164533;-0.7542;-5.2146;6.4739;0.1480;-0.0608;-0.1759
0001164545;-0.6776;-5.3415;6.4548;0.1366;-0.0621;-0.1872
0001164554;-0.4693;-5.3343;6.6008;0.1374;-0.0310;-0.1743
0001164567;-0.5866;-5.4181;6.5457;0.1226;-0.0234;-0.1957
0001164576;-0.6033;-5.3774;6.5362;0.1288;-0.0045;-0.1811
0001164585;-0.6943;-5.3702;6.4835;0.1287;-0.0004;-0.1825
0001164655;-1.1133;-5.4205;6.2968;0.1214;0.1170;-0.1815
0001164664;-0.8643;-5.3510;6.3542;0.1159;0.1332;-0.1873
0001164677;-0.8380;-5.4779;6.2106;0.1013;0.1597;-0.1859
0001164686;-0.9409;-5.4396;6.3231;0.1014;0.1784;-0.1780
0001164698;-0.4908;-5.3558;6.1555;0.1013;0.1921;-0.1751
0001164707;-1.0870;-5.6814;6.2608;0.0919;0.2301;-0.1627
0001164720;-1.0942;-5.6048;6.2369;0.0762;0.2136;-0.1544
0001164729;-0.9625;-5.4109;6.3446;0.0689;0.2005;-0.1527
0001164738;-0.9840;-5.3941;6.4380;0.0564;0.1888;-0.1591
0001164750;-0.7853;-5.3103;6.6631;0.0193;0.1909;-0.1400
0001164759;-0.7470;-5.5019;6.5625;0.0047;0.2012;-0.1139
0001164772;-0.8619;-5.3510;6.3470;-0.0353;0.1708;-0.0998
0001164781;-1.0750;-5.5019;6.4883;-0.0588;0.1687;-0.0658
0001164793;-0.9697;-5.4923;6.6319;-0.1045;0.1382;-0.0252
0001164802;-0.9625;-5.4779;6.6032;-0.1339;0.1182;0.0071
0001164815;-0.9697;-5.7078;6.6008;-0.1887;0.1286;0.0757
0001164824;-0.8667;-5.4277;6.3758;-0.2133;0.1100;0.1070
0001164836;-0.9337;-5.3103;6.3135;-0.2356;0.0953;0.1364
0001164845;-1.1636;-5.6743;6.4955;-0.2438;0.1240;0.1760
0001164854;-1.2234;-5.6120;6.1770;-0.2258;0.0938;0.1849
0001164867;-1.4629;-5.5019;6.1818;-0.1960;0.0486;0.1641
0001164876;-1.4820;-5.8012;6.1842;-0.1735;0.0393;0.1322
0001164946;-1.6328;-5.6120;6.1387;0.0458;0.0296;-0.1096
0001164955;-1.8172;-5.5617;6.3087;0.0540;0.0168;-0.1406
0001164968;-1.8316;-5.4157;6.3997;0.0593;-0.0171;-0.1865
0001164977;-1.7166;-5.3965;6.2728;0.0528;-0.0183;-0.2069
0001164989;-1.4222;-5.4971;6.3590;0.0372;-0.0188;-0.2461
0001164998;-1.3192;-5.7006;6.3398;0.0278;-0.0041;-0.2650
0001165007;-1.2378;-5.8203;6.1842;0.0201;0.0079;-0.2694
0001165020;-1.4150;-5.8610;6.1651;0.0211;0.0053;-0.2643
0001165029;-1.5443;-5.9616;6.1076;0.0280;-0.0089;-0.2525
0001165041;-1.7238;-5.8754;6.1363;0.0144;-0.0342;-0.2178
0001165050;-1.6688;-5.6336;6.0765;0.0040;-0.0600;-0.1980
0001165063;-1.6975;-5.1020;6.0645;-0.0132;-0.0979;-0.1747
0001165072;-1.6831;-4.8219;6.0693;-0.0314;-0.1106;-0.1783
0001165084;-1.6903;-5.1715;6.0382;-0.0682;-0.0994;-0.2033
0001165093;-1.2761;-5.3175;5.6934;-0.0830;-0.0706;-0.2090
0001165106;-1.3910;-6.0023;5.4253;-0.0645;-0.0350;-0.1913
0001165115;-1.3455;-6.4979;5.2792;-0.0290;-0.0326;-0.1687
0001165124;-1.3671;-6.6391;5.3558;0.0039;-0.0173;-0.1379
0001165136;-1.8603;-6.6870;5.3870;0.0589;-0.0171;-0.1260
0001165145;-2.1931;-6.5194;5.3846;0.0781;-0.0097;-0.1216
0001165158;-2.3679;-6.2872;5.3702;0.1046;-0.0380;-0.1302
0001165167;-2.4995;-6.0166;5.4109;0.1050;-0.0502;-0.1267
0001165237;-1.6281;-6.1483;5.3774;0.1018;-0.1829;-0.0802
0001165246;-1.6185;-6.0885;5.2625;0.1071;-0.1853;-0.0514
0001165259;-1.4389;-5.8442;5.3319;0.1146;-0.1847;-0.0159
0001165268;-1.6807;-5.9233;5.3463;0.1158;-0.1789;0.0049
0001165280;-1.6927;-5.8275;5.4995;0.1214;-0.1717;0.0270
0001165289;-1.7669;-5.8945;5.5258;0.1234;-0.1703;0.0228
0001165298;-1.6448;-5.8586;5.3965;0.1290;-0.1713;0.0148
0001165311;-1.7190;-6.1555;5.2074;0.1589;-0.1617;0.0091
0001165320;-1.5514;-6.2417;4.4796;0.1953;-0.1210;0.0139
0001165332;-1.5275;-6.7277;5.8203;0.2232;-0.1905;0.0211
0001165341;-1.5060;-6.5290;6.7756;0.1833;-0.3323;0.0614
0001165354;-1.3527;-4.8004;6.9121;0.1148;-0.3375;0.1639
0001165363;-1.5395;-3.4716;7.4316;0.0129;-0.2918;0.1989
0001165375;-0.8930;-2.0973;6.9240;-0.1511;-0.1893;0.1613
0001165384;-0.5770;-2.9568;6.4787;-0.2535;-0.1006;0.1021
0001165393;-0.6009;-4.5083;6.0310;-0.2754;-0.0392;0.0241
0001165406;-1.2474;-6.4691;5.7700;-0.2298;0.0137;-0.0805
0001165415;-1.7957;-7.6255;5.7772;-0.1557;0.0204;-0.1452
0001165427;-2.2146;-8.4587;5.8012;-0.0266;-0.0211;-0.1576
0001165436;-2.1596;-8.3079;5.8514;0.0646;-0.0887;-0.1422
0001165449;-1.5060;-7.0868;5.9999;0.1444;-0.1659;-0.0995
0001165458;-1.1492;-6.1746;6.2656;0.1565;-0.1613;-0.0626
0001165528;-2.4636;-5.8873;6.7780;-0.2410;-0.0989;-0.1857
0001165537;-2.2098;-6.0501;6.6535;-0.2634;-0.1204;-0.1901
0001165550;-1.6017;-5.9711;6.8115;-0.2809;-0.1423;-0.1961
0001165559;-1.5275;-5.9544;6.7995;-0.2856;-0.1525;-0.1801
0001165568;-1.3527;-5.9161;6.8690;-0.3002;-0.1605;-0.1608
0001165580;-1.3360;-5.9472;6.9336;-0.3138;-0.1989;-0.1299
0001165589;-1.1995;-5.8538;7.1371;-0.3295;-0.2150;-0.0954
0001165602;-0.9960;-5.7533;7.1515;-0.3401;-0.2086;-0.0541
0001165611;-1.3288;-5.6216;7.3382;-0.3192;-0.2177;-0.0390
0001165623;-1.7478;-5.5617;7.4723;-0.3072;-0.2210;-0.0577
0001165632;-1.9225;-5.7820;7.6591;-0.3308;-0.2352;-0.1184
0001165645;-2.5929;-6.4404;7.6279;-0.3360;-0.2634;-0.2156
0001165654;-2.5426;-6.9791;7.4388;-0.3082;-0.3030;-0.2741
0001165666;-1.9896;-7.3167;7.6375;-0.2549;-0.3396;-0.3080
0001165675;-1.8052;-7.5226;7.8219;-0.2072;-0.3508;-0.3226
0001165688;-1.6544;-7.2065;7.6950;-0.1544;-0.3086;-0.3296
0001165697;-1.6424;-6.9935;7.5705;-0.1327;-0.2767;-0.3287
0001165706;-1.4198;-6.6679;7.4627;-0.1187;-0.2647;-0.3228
0001165718;-1.3192;-6.1555;7.3239;-0.1174;-0.2635;-0.3010
0001165727;-1.2330;-5.9520;7.1802;-0.1235;-0.2651;-0.2751
0001165740;-1.0271;-5.7389;6.9839;-0.1386;-0.2570;-0.2270
0001165749;-1.0271;-5.5091;6.9791;-0.1628;-0.2526;-0.2126
0001165819;-1.2785;-6.9647;6.9480;-0.1198;-0.3074;-0.0594
0001165828;-1.0487;-6.7828;7.0246;-0.0877;-0.3035;-0.0171
0001165841;-0.9433;-6.8354;6.9743;-0.0675;-0.2982;0.0413
0001165850;-0.6440;-6.5290;7.0366;-0.0670;-0.2912;0.0797
0001165862;-0.4717;-6.1004;7.0820;-0.0801;-0.2634;0.1138
0001165871;-0.6009;-6.2153;7.0342;-0.0971;-0.2485;0.1322
0001165880;-0.6895;-6.2441;7.0126;-0.1095;-0.2433;0.1392
0001165893;-0.4836;-6.2872;6.9360;-0.1352;-0.2328;0.1507
0001165902;-0.5746;-6.4883;6.8833;-0.1491;-0.2326;0.1576
0001165914;-0.1006;-6.3039;6.8738;-0.1559;-0.2280;0.1672
0001165923;0.0910;-6.4189;6.7756;-0.1524;-0.2097;0.1768
0001165936;0.1365;-6.5146;6.7660;-0.1495;-0.1619;0.1949
0001165945;0.3352;-6.3829;6.7397;-0.1360;-0.1324;0.1997
0001165957;0.3903;-6.3805;6.6583;-0.1147;-0.0821;0.1988
0001165966;0.1317;-6.3997;6.5745;-0.1034;-0.0550;0.1864
0001165980;0.0766;-6.2153;6.5481;-0.0707;-0.0261;0.1709
0001165989;-0.1484;-6.3542;6.5338;-0.0625;-0.0079;0.1603
0001165998;-0.2203;-6.2441;6.4883;-0.0422;0.0009;0.1480
0001166011;-0.2418;-6.3662;6.5362;-0.0230;0.0105;0.1450
0001166020;-0.1939;-6.2513;6.4667;-0.0133;0.0269;0.1605
0001166032;-0.2873;-6.0430;6.5553;-0.0091;0.0514;0.1892
0001166041;-0.3543;-5.8969;6.6032;-0.0169;0.0693;0.2094
0001166110;-0.5962;-5.7054;6.8354;-0.1856;0.0951;0.3299
0001166119;-0.4262;-5.8299;6.7756;-0.1788;0.0838;0.3388
0001166131;-0.2825;-6.2273;6.7516;-0.1752;0.0870;0.3627
0001166140;-0.2897;-6.3231;6.6559;-0.1556;0.0903;0.3845
0001166149;-0.2035;-6.4069;6.6583;-0.1303;0.0762;0.3826
0001166162;-0.1317;-6.3566;6.5841;-0.1107;0.0861;0.3722
0001166171;-0.2682;-6.3470;6.7301;-0.1069;0.0978;0.3503
0001166183;-0.3232;-6.1914;6.6726;-0.0939;0.1063;0.3160
0001166192;-0.3041;-6.1459;6.7157;-0.0981;0.1176;0.2911
0001166205;-0.3304;-6.1723;6.6607;-0.0958;0.1154;0.2406
0001166214;-0.4884;-6.0932;6.6176;-0.0961;0.1172;0.2172
0001166226;-0.3591;-6.0190;6.6679;-0.0923;0.1140;0.1949
0001166235;-0.3376;-6.0717;6.6631;-0.0795;0.1151;0.1899
0001166244;-0.6177;-6.0238;6.7301;-0.0811;0.1275;0.1957
0001166257;-0.7230;-5.9137;6.5027;-0.0766;0.1075;0.1777
0001166266;-0.6560;-5.7102;6.5194;-0.0887;0.0991;0.1661
0001166278;-0.7638;-5.5617;6.5912;-0.1071;0.1050;0.1533
0001166287;-0.9050;-5.5881;6.6391;-0.1263;0.1075;0.1524
0001166300;-0.6728;-5.3965;6.5601;-0.1386;0.1001;0.1628
0001166309;-0.8188;-5.4971;6.5769;-0.1398;0.0914;0.1700
0001166321;-0.9792;-5.6838;6.5769;-0.1511;0.0901;0.1896
0001166330;-0.8284;-5.5713;6.5841;-0.1595;0.0683;0.1867
0001166339;-1.1396;-5.7604;6.7205;-0.1723;0.0534;0.1943
0001166408;-0.3160;-6.2130;6.5505;-0.1154;0.0846;0.1844
0001166417;-0.4429;-6.2441;6.5218;-0.0922;0.0838;0.1879
0001166429;-0.6273;-6.3853;6.3949;-0.0473;0.0823;0.1883
0001166438;-0.5148;-6.2752;6.4069;-0.0128;0.0644;0.1728
0001166451;-0.6967;-6.2297;6.4308;0.0246;0.0586;0.1523
0001166460;-0.4717;-6.1842;6.4955;0.0520;0.0546;0.1334
0001166472;-0.5315;-6.0597;6.4165;0.0762;0.0645;0.1136
0001166481;-0.3160;-6.0382;6.4045;0.0939;0.0528;0.0790
0001166490;-0.5674;-6.1004;6.4189;0.1021;0.0562;0.0538
0001166503;-0.5746;-6.0597;6.4715;0.1214;0.0514;0.0151
0001166512;-0.5770;-6.0717;6.4931;0.1264;0.0481;-0.0095
0001166524;-0.2945;-5.9209;6.4212;0.1479;0.0288;-0.0573
0001166533;-0.5435;-6.1316;6.6272;0.1553;0.0333;-0.0791
0001166546;-0.2849;-6.1842;6.4811;0.1697;0.0230;-0.1252
0001166555;-0.3591;-6.0214;6.5170;0.1785;0.0372;-0.1388
0001166567;-0.2825;-5.9352;6.6008;0.2002;0.0493;-0.1611
0001166576;-0.4334;-5.9879;6.5170;0.2016;0.0421;-0.1831
0001166585;-0.4238;-6.0214;6.3375;0.2086;0.0316;-0.1940
0001166598;-0.2179;-6.0382;6.4691;0.2218;0.0246;-0.2036
0001166607;-0.2107;-5.8514;6.4308;0.2288;0.0658;-0.1953
0001166619;-0.3328;-5.8107;6.3590;0.2337;0.0677;-0.2033
0001166628;-0.3998;-5.7557;6.2728;0.2286;0.0628;-0.2176
0001166697;-0.8236;-5.8658;6.3734;0.1832;0.1632;-0.3371
0001166706;-0.6081;-5.8682;6.2082;0.1823;0.1703;-0.3293
0001166718;-0.8164;-5.8945;6.2968;0.1756;0.1867;-0.3215
0001166727;-1.0750;-5.8179;6.2680;0.1569;0.2025;-0.3126
0001166736;-1.3982;-5.8035;6.2297;0.1386;0.2028;-0.3184
0001166749;-1.4581;-5.7078;6.4524;0.1179;0.1986;-0.3162
0001166758;-1.6041;-5.7150;6.3614;0.0973;0.1903;-0.3110
0001166770;-1.2091;-5.5569;6.2513;0.0687;0.1796;-0.3002
0001166779;-1.1516;-5.6838;6.2201;0.0573;0.1595;-0.2895
0001166792;-1.2186;-5.5641;6.1507;0.0265;0.1771;-0.2525
0001166801;-1.3838;-5.6934;6.1746;0.0095;0.1844;-0.2249
0001166813;-1.4724;-5.7389;6.1746;-0.0169;0.1669;-0.2013
0001166822;-1.3599;-5.7557;6.1196;-0.0256;0.1620;-0.2037
0001166831;-1.2809;-5.6623;6.2153;-0.0424;0.1785;-0.1853
0001166844;-1.3503;-5.7221;6.0765;-0.0538;0.1805;-0.1615
0001166853;-1.4413;-5.8682;6.0573;-0.0633;0.1725;-0.1470
0001166865;-1.2929;-5.6695;6.0932;-0.0909;0.1455;-0.1318
0001166874;-1.5131;-5.9568;6.0837;-0.1075;0.1302;-0.1258
0001166887;-1.4198;-5.6695;6.0597;-0.1302;0.1291;-0.1100
0001166896;-1.2953;-5.7604;6.1148;-0.1466;0.1307;-0.0901
0001166908;-1.4174;-5.7772;5.9687;-0.1773;0.1049;-0.0877
0001166917;-1.3120;-5.9017;6.0717;-0.1888;0.0942;-0.0957
0001166986;-1.6376;-6.2153;6.0525;-0.2277;0.0694;-0.0581
0001166995;-1.2570;-6.0717;6.0047;-0.2306;0.0698;-0.0613
0001167004;-1.3791;-5.9735;5.9807;-0.2390;0.0930;-0.0462
0001167016;-1.4964;-6.1100;6.0238;-0.2487;0.0845;-0.0529
0001167025;-1.6831;-6.1004;5.8921;-0.2525;0.0775;-0.0556
0001167038;-1.6281;-6.1483;5.9185;-0.2494;0.0699;-0.0498
0001167047;-1.8004;-6.4356;5.9951;-0.2467;0.0694;-0.0436
0001167059;-1.7885;-6.4260;5.8849;-0.2365;0.0589;-0.0517
0001167068;-1.7693;-6.5481;5.8778;-0.2346;0.0596;-0.0501
0001167081;-1.5347;-6.5960;5.9328;-0.2218;0.0513;-0.0582
0001167090;-1.5419;-6.6032;5.9280;-0.2098;0.0488;-0.0602
0001167102;-1.3575;-6.6224;5.8347;-0.2012;0.0440;-0.0665
0001167111;-1.3815;-6.4811;5.8083;-0.2018;0.0414;-0.0621
0001167120;-1.4964;-6.7253;5.9161;-0.1982;0.0444;-0.0706
0001167133;-1.1827;-6.6535;5.9472;-0.1856;0.0741;-0.0665
0001167142;-1.0989;-6.7971;5.8514;-0.1800;0.1011;-0.0608
0001167154;-1.2570;-6.9552;5.9089;-0.1579;0.1300;-0.0596
0001167163;-1.4126;-7.1036;5.9185;-0.1398;0.1266;-0.0746
0001167176;-1.7238;-7.3526;5.9041;-0.0883;0.1046;-0.0817
0001167185;-1.6305;-7.3382;5.9233;-0.0674;0.0998;-0.0829
0001167197;-1.5634;-7.0437;6.0142;-0.0280;0.0861;-0.0894
0001167206;-1.5251;-6.9216;5.9592;-0.0120;0.0902;-0.0918
0001167275;-1.3144;-6.8474;5.9496;0.0517;0.0926;-0.0967
0001167284;-1.5897;-6.9528;5.8347;0.0585;0.1050;-0.0850
0001167293;-1.4629;-6.9336;5.8275;0.0600;0.1276;-0.0789
0001167305;-1.7549;-6.9168;5.8012;0.0564;0.1460;-0.0759
0001167314;-1.5802;-6.7014;5.7509;0.0624;0.1439;-0.0755
0001167327;-1.8938;-6.7540;5.6814;0.0553;0.1404;-0.0597
0001167336;-2.2697;-6.6846;5.8442;0.0536;0.1491;-0.0428
0001167348;-2.1691;-6.7325;5.6599;0.0534;0.1198;-0.0254
0001167357;-2.3535;-6.9145;5.7389;0.0542;0.1207;-0.0148
0001167370;-2.0039;-6.6559;5.6934;0.0477;0.1200;-0.0151
0001167379;-1.9154;-6.4045;5.7437;0.0484;0.1268;-0.0116
0001167388;-2.1261;-6.6128;5.6743;0.0313;0.1254;0.0008
0001167400;-2.1620;-6.4859;5.6000;0.0269;0.1240;-0.0076
0001167409;-2.2984;-6.5769;5.5378;0.0250;0.1038;-0.0023
0001167423;-1.9058;-6.3734;5.7174;0.0157;0.0895;0.0151
0001167432;-2.0853;-6.6463;5.6623;0.0084;0.0731;0.0297
0001167445;-2.1045;-6.5625;5.6527;0.0020;0.0505;0.0428
0001167454;-2.0925;-6.7038;5.6982;0.0029;0.0417;0.0582
0001167463;-2.0039;-6.7756;5.5569;-0.0068;0.0304;0.0665
0001167475;-1.5921;-6.5721;5.5545;-0.0139;0.0277;0.0721
0001167484;-2.0853;-6.8474;5.5833;-0.0155;0.0404;0.0778
0001167552;-1.5323;-6.5529;5.3870;-0.0181;0.0883;0.1943
0001167561;-1.6017;-6.2513;5.3846;-0.0294;0.1246;0.2066
0001167573;-1.7837;-5.9807;5.2241;-0.0469;0.1322;0.2064
0001167582;-1.8818;-6.1004;5.3343;-0.0564;0.1533;0.2146
0001167595;-1.9776;-6.2058;5.3175;-0.0604;0.1382;0.2190
0001167604;-1.9513;-6.2465;5.2888;-0.0686;0.1324;0.2136
0001167613;-2.2051;-6.2944;5.3343;-0.0652;0.1300;0.2152
0001167625;-2.1787;-6.3566;5.1858;-0.0626;0.1124;0.2164
0001167634;-2.1284;-6.2537;5.0470;-0.0513;0.0849;0.2109
0001167647;-2.3224;-6.5673;5.1499;-0.0504;0.0982;0.2089
0001167656;-2.1452;-6.5434;5.0925;-0.0268;0.0600;0.1789
0001167668;-2.2673;-6.5864;5.2672;-0.0052;0.0516;0.1468
0001167677;-2.1691;-6.5697;5.1451;0.0056;0.0536;0.1268
0001167690;-2.1189;-6.6056;4.8722;0.0035;0.0500;0.1283
0001167699;-2.2649;-6.5817;4.9057;-0.0083;0.0558;0.1340
0001167708;-2.3032;-6.4859;4.9632;-0.0242;0.0436;0.1352
0001167720;-2.3942;-6.1746;5.0182;-0.0508;0.0377;0.1506
0001167729;-2.5833;-6.1100;5.0757;-0.0683;0.0289;0.1599
0001167742;-2.3679;-5.7533;5.0661;-0.1015;-0.0211;0.1573
0001167751;-2.4373;-5.9017;5.1475;-0.1311;-0.0377;0.1518
0001167763;-2.1907;-5.8826;5.1308;-0.1575;-0.0646;0.1304
0001167772;-2.4205;-6.0406;5.0374;-0.1779;-0.0742;0.1017
0001167841;-2.4205;-6.1651;5.0230;-0.2830;-0.1879;0.0586
0001167850;-2.1069;-6.0382;5.0925;-0.2894;-0.1891;0.0542
0001167862;-2.1500;-6.2489;5.2265;-0.2947;-0.1931;0.0556
0001167871;-2.2194;-6.1435;5.0733;-0.2936;-0.1768;0.0717
0001167880;-2.2697;-6.1507;5.1092;-0.2975;-0.1799;0.0795
0001167893;-2.5235;-6.2369;5.0470;-0.2962;-0.2076;0.0915
0001167902;-2.5546;-6.1124;5.1667;-0.2883;-0.2415;0.0942
0001167914;-2.5905;-5.9376;5.0733;-0.2923;-0.2834;0.1019
0001167923;-2.5139;-5.7988;5.0685;-0.2975;-0.3198;0.0993
0001167936;-2.3056;-5.7245;5.2625;-0.3086;-0.3497;0.1010
0001167945;-2.1213;-5.7557;5.2218;-0.3164;-0.3373;0.1071
0001167957;-1.9130;-5.8897;5.0278;-0.3250;-0.3154;0.1033
0001167966;-1.9010;-6.0813;5.0661;-0.3347;-0.2840;0.0983
0001167979;-1.8148;-6.2010;5.3606;-0.3187;-0.2670;0.0891
0001167988;-1.8364;-6.7086;6.6487;-0.2481;-0.2831;0.0723
0001167997;-0.5986;-7.0126;5.8442;-0.1681;-0.2305;0.0249
0001168009;0.5315;-7.2520;4.9464;-0.1563;-0.1162;-0.0642
0001168018;0.2059;-7.5848;5.2984;-0.1827;0.0141;-0.0746
0001168031;-2.0901;-8.0062;5.5162;-0.1276;0.1474;0.0386
0001168040;-3.5338;-7.4101;5.5929;-0.0622;0.1182;0.1340
0001168052;-3.9169;-5.8466;5.3846;-0.0288;-0.0216;0.2185
0001168061;-3.2298;-4.9416;5.4037;-0.0528;-0.1146;0.2613
0001168130;-1.7286;-7.4962;5.0518;-0.3512;-0.0409;0.0935
0001168139;-2.0255;-7.4148;5.0374;-0.3054;-0.0580;0.0769
0001168148;-2.5139;-7.3239;5.0925;-0.2597;-0.0730;0.0624
0001168160;-2.8036;-6.8761;5.1691;-0.2082;-0.1003;0.0441
0001168169;-2.7246;-6.4356;5.2409;-0.1864;-0.1148;0.0354
0001168182;-2.8276;-6.3853;5.3678;-0.1533;-0.1502;0.0156
0001168191;-2.7270;-6.5505;5.3439;-0.1315;-0.1721;-0.0055
0001168203;-2.4636;-7.0246;5.3726;-0.0907;-0.2142;-0.0433
0001168212;-2.2075;-6.9983;5.4229;-0.0446;-0.2437;-0.0923
0001168225;-1.8579;-7.4962;5.4612;0.0293;-0.2485;-0.1525
0001168234;-2.0063;-7.6064;5.3870;0.0830;-0.2457;-0.1908
0001168246;-2.0614;-7.3550;5.5689;0.1647;-0.2767;-0.2394
0001168255;-2.0590;-7.0940;5.6767;0.2053;-0.2922;-0.2633
0001168264;-1.8818;-6.9408;5.6671;0.2511;-0.3144;-0.2855
0001168277;-1.6831;-6.5649;5.7844;0.2798;-0.2992;-0.2892
0001168286;-1.3862;-6.5601;5.8826;0.2898;-0.2733;-0.2970
0001168298;-1.1181;-6.4332;5.9735;0.3047;-0.2197;-0.2883
0001168307;-1.4748;-6.4212;5.8730;0.3082;-0.1839;-0.2763
0001168320;-1.3264;-6.6008;6.0334;0.3276;-0.1616;-0.2565
0001168329;-1.3743;-6.5266;5.9927;0.3368;-0.1383;-0.2273
0001168341;-1.4629;-6.6295;6.0118;0.3461;-0.1264;-0.2273
0001168350;-1.4868;-6.5577;6.0454;0.3507;-0.1159;-0.2233
0001168416;-1.3264;-6.7062;5.9185;0.4214;-0.1581;-0.2747
0001168425;-1.3767;-6.8235;5.8849;0.4281;-0.1495;-0.2914
0001168434;-1.5706;-6.9073;5.8059;0.4430;-0.1492;-0.3080
0001168446;-1.4940;-6.7516;5.8251;0.4553;-0.1487;-0.3347
0001168455;-1.4916;-6.5625;5.7964;0.4570;-0.1474;-0.3379
0001168468;-1.6879;-6.4500;5.7676;0.4631;-0.1591;-0.3548
0001168477;-1.9058;-6.4787;5.7652;0.4676;-0.1805;-0.3668
0001168489;-1.8244;-6.3614;5.9185;0.4603;-0.2125;-0.3672
0001168498;-1.6927;-6.4667;5.8826;0.4640;-0.2286;-0.3684
0001168511;-1.6257;-6.4476;5.8634;0.4554;-0.2529;-0.3595
0001168520;-1.7358;-6.3949;5.8610;0.4319;-0.2633;-0.3525
0001168532;-1.6496;-6.2225;5.8251;0.3973;-0.2734;-0.3320
0001168541;-1.7190;-6.1627;5.7964;0.3745;-0.2903;-0.3196
0001168550;-1.7023;-6.2034;5.8251;0.3413;-0.3047;-0.3131
0001168563;-1.7310;-5.9616;5.9352;0.2946;-0.3034;-0.2972
0001168572;-1.7358;-5.9328;5.9209;0.2755;-0.3052;-0.2799
0001168584;-1.8340;-5.8347;5.9328;0.2713;-0.3277;-0.2799
0001168593;-1.7885;-6.1603;5.9999;0.2703;-0.3541;-0.3039
0001168606;-1.7526;-6.5577;6.2656;0.2843;-0.3588;-0.3052
0001168615;-1.7095;-6.7086;6.2800;0.3115;-0.3572;-0.3044
0001168627;-1.6161;-6.9408;6.1651;0.3633;-0.3629;-0.2974
0001168636;-1.4605;-6.7947;6.2201;0.4036;-0.3695;-0.2886
0001168702;-1.9561;-5.3678;6.4691;0.4370;-0.2336;-0.0111
0001168711;-2.4493;-5.5665;6.6439;0.4359;-0.2433;0.0036
0001168720;-2.3391;-5.3654;6.8690;0.4405;-0.2778;-0.0043
0001168734;-2.1332;-5.5474;6.9576;0.4530;-0.3094;-0.0133
0001168743;-1.7430;-5.4133;7.0294;0.4756;-0.3200;-0.0332
0001168756;-1.6544;-5.4324;7.1658;0.4818;-0.2884;-0.0633
0001168765;-1.4437;-5.3702;7.2951;0.5003;-0.2522;-0.0907
0001168777;-1.4509;-5.4875;7.3717;0.5024;-0.1799;-0.1010
0001168786;-1.6903;-5.3463;7.4005;0.5013;-0.1320;-0.1035
0001168799;-2.0782;-5.4947;7.7572;0.5025;-0.0795;-0.0974
0001168808;-2.3272;-5.4947;7.8338;0.5101;-0.0608;-0.0990
0001168820;-2.4756;-5.4995;7.9679;0.5065;-0.0606;-0.1065
0001168829;-2.6384;-5.3127;7.9918;0.5084;-0.0620;-0.1271
0001168838;-2.3679;-4.8937;8.0996;0.4959;-0.0597;-0.1555
0001168851;-2.4110;-4.7501;8.3031;0.4735;-0.0369;-0.2002
0001168860;-2.1859;-4.6950;8.2624;0.4687;-0.0274;-0.2402
0001168872;-2.4205;-4.9105;8.1499;0.4407;-0.0125;-0.2794
0001168881;-2.3631;-5.2122;8.0206;0.4253;0.0052;-0.2834
0001168895;-1.8866;-5.3367;7.6830;0.4069;0.0128;-0.2866
0001168904;-1.5730;-5.4133;7.6902;0.4185;0.0164;-0.2928
0001168970;-0.2538;-5.9568;6.8738;0.4485;0.0706;-0.3593
0001168979;-0.1413;-5.8371;6.6918;0.4269;0.0922;-0.4054
0001168988;-0.2227;-5.8730;6.7325;0.4070;0.1258;-0.4299
0001169000;-0.2682;-5.9352;6.6295;0.4041;0.1536;-0.4611
0001169009;-0.6847;-6.2656;6.6080;0.4102;0.1518;-0.4939
0001169022;-0.7494;-6.3877;6.3782;0.4385;0.1319;-0.5486
0001169031;-0.9409;-6.6918;6.2944;0.4543;0.1198;-0.5730
0001169043;-1.0606;-6.8498;6.1100;0.4915;0.0937;-0.5914
0001169052;-1.1013;-6.7876;6.0358;0.5288;0.0461;-0.6045
0001169065;-1.0223;-6.4548;6.0573;0.5529;-0.0047;-0.6504
0001169074;-0.9290;-6.5960;6.0813;0.5610;-0.0116;-0.6652
0001169083;-0.7159;-6.1555;6.0645;0.5682;-0.0071;-0.6937
0001169095;-0.9122;-6.1435;6.1435;0.5693;-0.0149;-0.6951
0001169104;-0.8428;-6.0549;6.1555;0.5616;-0.0211;-0.6900
0001169117;-0.8164;-5.7293;6.1914;0.5377;-0.0257;-0.6924
0001169126;-0.7661;-5.7748;6.2537;0.5240;-0.0349;-0.7019
0001169138;-0.6847;-5.8299;6.1651;0.5071;-0.0221;-0.7153
0001169147;-0.7254;-6.0501;6.0478;0.4838;-0.0020;-0.6969
0001169160;-0.6297;-6.2297;6.0023;0.4719;-0.0001;-0.6809
0001169169;-0.6656;-6.3925;5.9592;0.4618;-0.0065;-0.6792
0001169181;-0.5124;-6.5122;5.9448;0.4490;0.0004;-0.6520
0001169190;-0.5674;-6.4428;5.9544;0.4549;-0.0053;-0.6531
0001169199;-0.3926;-6.2728;5.8921;0.4387;-0.0093;-0.6303
0001169265;-0.0862;-6.3327;5.8921;0.3857;0.0560;-0.5097
0001169274;-0.3400;-6.6463;5.7988;0.3781;0.0774;-0.4728
0001169286;-0.1724;-6.5027;5.8419;0.3676;0.0903;-0.4575
0001169295;0.0886;-6.4787;5.9400;0.3587;0.1045;-0.4345
0001169308;-0.1772;-6.4763;6.0023;0.3395;0.1222;-0.3862
0001169317;-0.1508;-6.3470;5.8730;0.3203;0.1286;-0.3589
0001169329;-0.3041;-6.0573;6.0669;0.2895;0.1367;-0.3343
0001169338;-0.2155;-5.8778;6.0669;0.2606;0.1478;-0.2872
0001169347;-0.6752;-5.9041;6.0334;0.2362;0.1176;-0.2601
0001169360;-0.7877;-6.0118;6.1986;0.1927;0.1144;-0.2297
0001169369;-0.8188;-5.9951;6.1196;0.1579;0.1158;-0.2045
0001169381;-1.1325;-6.1483;6.1723;0.1324;0.1005;-0.1945
0001169390;-1.0343;-6.0118;6.1004;0.1077;0.0823;-0.1780
0001169403;-1.5179;-6.0573;6.3135;0.0537;0.0498;-0.1813
0001169412;-1.4988;-5.8610;6.4404;0.0312;0.0056;-0.1687
0001169424;-1.5802;-5.7796;6.3877;-0.0096;-0.0464;-0.1615
0001169433;-1.1947;-5.6479;6.3135;-0.0465;-0.0600;-0.1552
0001169446;-0.7039;-5.6264;6.3494;-0.1029;-0.0658;-0.1759
0001169455;-0.9816;-5.9041;6.3231;-0.1275;-0.0365;-0.1861
0001169464;-1.0367;-6.1842;6.1842;-0.1524;-0.0161;-0.1763
0001169476;-0.9266;-6.0597;6.1411;-0.1633;-0.0234;-0.1903
0001169485;-0.9601;-6.2345;6.0813;-0.1677;-0.0188;-0.1864
0001169552;-1.0558;-6.4596;6.2632;-0.2272;-0.0385;-0.1769
0001169561;-0.9553;-6.5697;6.1746;-0.2374;-0.0199;-0.1828
0001169573;-0.7207;-6.5697;6.0454;-0.2309;0.0045;-0.2066
0001169582;-0.8978;-6.6559;6.0621;-0.2369;0.0281;-0.2362
0001169595;-0.8428;-6.8929;6.0310;-0.2364;0.0365;-0.2550
0001169604;-0.8811;-6.8139;6.1220;-0.2288;0.0655;-0.2575
0001169616;-0.9170;-6.9695;6.0047;-0.2145;0.0861;-0.2493
0001169625;-1.0343;-6.9767;5.9903;-0.2133;0.1094;-0.2469
0001169634;-0.9768;-6.9432;5.8969;-0.2086;0.1188;-0.2435
0001169647;-1.2163;-6.9049;5.8730;-0.2113;0.1407;-0.2228
0001169656;-1.2953;-6.6631;5.9209;-0.2237;0.1519;-0.2056
0001169668;-1.4413;-6.4835;5.9256;-0.2301;0.1262;-0.1789
0001169677;-1.7430;-6.8570;5.9256;-0.2305;0.1359;-0.1693
0001169690;-1.4964;-6.6176;5.8802;-0.2609;0.1222;-0.1524
0001169699;-1.5467;-6.7708;5.8538;-0.2802;0.1220;-0.1561
0001169711;-1.2785;-6.9432;5.8251;-0.2980;0.1420;-0.1523
0001169720;-1.1612;-7.0222;5.6719;-0.3035;0.1719;-0.1351
0001169733;-1.1923;-7.0988;5.5426;-0.2777;0.1948;-0.1090
0001169742;-1.4796;-7.2281;5.5186;-0.2848;0.1986;-0.0642
0001169751;-2.1093;-7.3813;5.5952;-0.2946;0.1895;-0.0245
0001169763;-2.2003;-6.9552;5.6360;-0.3007;0.1387;0.0346
0001169772;-2.3391;-6.9623;5.6814;-0.3124;0.1096;0.0532
0001169838;-2.0159;-7.3598;5.5378;-0.2998;0.0586;0.1002
0001169847;-2.2410;-7.5250;5.4947;-0.2951;0.0310;0.1078
0001169859;-2.1284;-7.5369;5.5450;-0.2920;0.0083;0.1306
0001169868;-1.6328;-7.3765;5.5138;-0.2955;-0.0079;0.1412
0001169881;-1.6209;-7.4867;5.5019;-0.2876;0.0003;0.1660
0001169890;-1.5083;-7.4699;5.3822;-0.2710;0.0187;0.1859
0001169899;-1.4676;-7.5561;5.3175;-0.2479;0.0440;0.1973
0001169911;-1.3910;-7.7452;5.2050;-0.2169;0.0572;0.2117
0001169920;-1.6400;-8.0325;5.0996;-0.1817;0.0586;0.2081
0001169933;-1.9154;-8.1594;5.1763;-0.1307;0.0686;0.2244
0001169942;-2.0518;-8.1858;5.3510;-0.0975;0.0666;0.2361
0001169954;-1.9824;-7.8650;5.1044;-0.0644;0.0478;0.2236
0001169963;-2.1069;-7.6926;5.0901;-0.0505;0.0350;0.2281
0001169976;-2.5259;-7.3622;5.0566;-0.0502;0.0028;0.2459
0001169985;-2.4684;-7.1228;5.5952;-0.0721;-0.0573;0.2706
0001169994;-2.1859;-6.8666;5.4684;-0.0589;-0.1051;0.2766
0001170006;-1.6233;-7.2425;5.1212;-0.0416;-0.1252;0.2926
0001170015;-1.7406;-7.3047;5.3822;-0.0264;-0.1240;0.2731
0001170028;-2.4924;-6.6583;5.8802;-0.0482;-0.1053;0.2384
0001170037;-2.9377;-6.1052;6.1028;-0.0723;-0.1192;0.1984
0001170049;-2.6719;-5.9041;5.9089;-0.1049;-0.1788;0.1539
0001170058;-2.3272;-6.4428;5.5091;-0.1167;-0.1889;0.1466
0001170125;-1.6281;-6.8426;5.6120;0.1166;-0.0195;0.2785
0001170134;-1.5419;-6.2465;5.7174;0.0954;-0.0088;0.2842
0001170146;-1.5993;-5.5689;5.7485;0.0481;0.0354;0.3111
0001170155;-1.9489;-5.6886;5.8706;0.0017;0.0655;0.3232
0001170164;-2.0255;-5.6288;5.7820;-0.0421;0.0617;0.3288
0001170177;-2.1668;-6.2680;5.6790;-0.0889;0.0203;0.3328
0001170186;-2.0063;-6.3805;5.5976;-0.1182;-0.0040;0.3356
0001170198;-1.8316;-6.7876;5.5426;-0.1168;-0.0229;0.3127
0001170207;-1.8747;-7.0892;5.5162;-0.1184;-0.0155;0.3020
0001170220;-1.5083;-6.9647;5.5952;-0.0961;-0.0079;0.2895
0001170229;-1.7047;-6.9025;5.6216;-0.0898;0.0009;0.3056
0001170241;-1.8627;-6.7900;5.7197;-0.0803;-0.0097;0.3311
0001170250;-1.7621;-6.4524;5.7197;-0.0839;-0.0240;0.3471
0001170259;-1.6305;-6.5218;5.7533;-0.0937;-0.0461;0.3533
0001170272;-1.6328;-6.5170;5.6623;-0.1005;-0.0751;0.3568
0001170281;-1.6903;-6.6295;5.6623;-0.1144;-0.0742;0.3673
0001170293;-1.7310;-6.7109;5.6910;-0.1146;-0.0811;0.3683
0001170302;-1.7885;-6.8307;5.6934;-0.1038;-0.0866;0.3685
0001170315;-2.1596;-7.0030;5.7604;-0.0983;-0.0978;0.3652
0001170324;-2.0231;-6.7325;5.6958;-0.0994;-0.1025;0.3631
0001170337;-1.8411;-6.6918;5.7102;-0.0913;-0.1053;0.3383
0001170346;-1.7717;-6.8905;5.6862;-0.0843;-0.0978;0.3236
0001170414;-1.9920;-6.6176;5.4971;0.0120;-0.0330;0.2964
0001170423;-2.1524;-6.5577;5.4324;0.0260;-0.0510;0.2932
0001170432;-2.0423;-6.6008;5.4947;0.0195;-0.0691;0.3030
0001170445;-2.1763;-6.8259;5.4899;0.0273;-0.0853;0.3074
0001170454;-1.6448;-6.5673;5.4564;0.0302;-0.0891;0.3142
0001170466;-1.7717;-6.6655;5.4444;0.0392;-0.0842;0.3104
0001170475;-1.8124;-6.6367;5.4564;0.0389;-0.0742;0.3062
0001170488;-1.8723;-6.5841;5.5258;0.0350;-0.0550;0.3019
0001170497;-1.9561;-6.4931;5.5091;0.0316;-0.0493;0.2979
0001170509;-2.0111;-6.2800;5.6168;0.0024;-0.0413;0.3048
0001170518;-2.0518;-6.0190;5.6168;-0.0248;-0.0365;0.3124
0001170527;-2.1955;-5.8849;5.6288;-0.0646;-0.0370;0.3144
0001170540;-2.0686;-5.6000;5.7150;-0.1371;-0.0448;0.3246
0001170549;-2.1835;-5.4923;5.9376;-0.1925;-0.0382;0.3168
0001170561;-2.1117;-5.2026;5.9879;-0.2685;-0.0211;0.3070
0001170570;-2.2673;-5.1882;6.0310;-0.3397;-0.0073;0.2848
0001170583;-2.2170;-4.9967;5.9855;-0.4310;0.0163;0.2621
0001170592;-2.3894;-4.9967;6.0406;-0.4894;0.0218;0.2493
0001170604;-2.5259;-5.0206;6.1962;-0.5696;0.0304;0.2350
0001170613;-2.3966;-5.0805;6.0430;-0.6175;0.0262;0.2290
0001170622;-2.3535;-5.1332;6.0717;-0.6710;0.0196;0.2294
0001170691;-3.1627;-6.4141;6.7133;-0.8467;-0.3159;0.3355
0001170700;-3.0957;-6.7086;6.8857;-0.8242;-0.3916;0.3572
0001170712;-3.2753;-7.3095;7.1994;-0.7797;-0.4708;0.3866
0001170721;-2.9616;-7.4268;7.2640;-0.7412;-0.4992;0.4044
0001170734;-2.6408;-7.5082;7.3406;-0.6484;-0.4951;0.4009
0001170743;-2.3463;-7.1012;7.4962;-0.5644;-0.4950;0.3789
0001170755;-2.2122;-6.7277;7.3741;-0.4916;-0.4549;0.3152
0001170764;-2.0542;-6.2489;7.4460;-0.4620;-0.4190;0.2569
0001170777;-1.7980;-5.6192;7.3239;-0.4558;-0.3840;0.1924
0001170786;-1.8244;-5.2816;7.2137;-0.4580;-0.3849;0.1688
0001170795;-1.8555;-5.1380;6.9456;-0.4731;-0.3857;0.1583
0001170807;-1.6664;-5.1188;6.7852;-0.4936;-0.3772;0.1589
0001170816;-1.6616;-5.3391;6.7109;-0.5019;-0.3825;0.1823
0001170829;-1.6831;-5.9041;6.6463;-0.5067;-0.3864;0.2578
0001170838;-1.2306;-5.8466;6.7038;-0.5059;-0.3785;0.3082
0001170850;-1.2354;-5.8634;6.7540;-0.4942;-0.3365;0.3683
0001170859;-1.1492;-5.7150;6.6008;-0.4750;-0.2988;0.3874
0001170872;-1.1372;-5.3127;6.3590;-0.4413;-0.2511;0.4154
0001170881;-1.2761;-5.4516;6.3351;-0.4313;-0.2312;0.4385
0001170893;-1.4317;-5.1212;6.4117;-0.4379;-0.2316;0.4550
0001170902;-1.6640;-5.2194;6.3925;-0.4318;-0.2413;0.4616
0001170911;-1.3551;-4.8794;6.3758;-0.4473;-0.2381;0.4800
0001170980;-0.3160;-5.1906;6.2991;-0.5929;-0.2049;0.5705
0001170989;-0.5914;-5.3151;6.4380;-0.6118;-0.1819;0.5869
0001171001;-0.7781;-5.3295;6.4284;-0.6175;-0.1928;0.6113
0001171010;-0.8308;-5.4731;6.3255;-0.5979;-0.2094;0.6359
0001171023;-0.5028;-5.5162;6.5386;-0.5548;-0.2398;0.6686
0001171032;-0.5602;-5.5737;6.5984;-0.5296;-0.2258;0.6920
0001171044;-0.6057;-5.4660;6.7349;-0.4972;-0.2109;0.6997
0001171053;-0.4429;-5.2840;6.8402;-0.4879;-0.2002;0.6963
0001171066;-0.5578;-5.0661;6.8378;-0.4932;-0.1731;0.7008
0001171075;-0.4190;-4.7501;6.7828;-0.4967;-0.1556;0.7101
0001171084;-0.5291;-4.8866;6.7109;-0.5049;-0.1403;0.7225
0001171096;-0.3926;-4.9081;6.5864;-0.5160;-0.1224;0.7326
0001171105;-0.3328;-5.0877;6.5338;-0.5289;-0.0918;0.7452
0001171118;-0.2418;-5.3582;6.5362;-0.5231;-0.0691;0.7440
0001171127;-0.2897;-5.5809;6.3159;-0.5125;-0.0501;0.7408
0001171139;-0.0934;-5.6719;6.2513;-0.4964;-0.0232;0.7178
0001171148;-0.2298;-5.8682;6.1986;-0.4895;-0.0031;0.7059
0001171161;-0.0287;-5.7772;6.2441;-0.4666;0.0027;0.6771
0001171170;-0.2442;-5.6695;6.3446;-0.4674;0.0080;0.6552
0001171182;-0.4142;-5.7078;6.3231;-0.4823;0.0316;0.6138
0001171191;-0.1580;-5.4277;6.4883;-0.5012;0.0433;0.5726
0001171200;-0.4525;-5.4037;6.4404;-0.5176;0.0545;0.5321
0001171269;-0.2370;-6.0023;6.6152;-0.5303;0.0506;0.3792
0001171278;-0.0838;-6.1052;6.6583;-0.4920;0.0593;0.3649
0001171290;-0.1125;-6.5553;6.6726;-0.4517;0.0823;0.3457
0001171299;-0.2155;-6.7852;6.7564;-0.4028;0.0934;0.3170
0001171312;-0.3519;-6.9528;6.7636;-0.3371;0.1312;0.2992
0001171321;-0.4166;-7.0342;6.6846;-0.2952;0.1388;0.2687
0001171333;-0.7614;-7.1635;6.7588;-0.2433;0.1370;0.2345
0001171342;-0.6823;-7.0892;6.6391;-0.2050;0.1306;0.2153
0001171351;-0.6608;-6.9480;6.6248;-0.1877;0.1255;0.2128
0001171364;-0.5387;-6.7301;6.5936;-0.1462;0.1018;0.1988
0001171373;-0.4453;-6.5027;6.6702;-0.1235;0.1053;0.1816
0001171385;-0.4166;-6.3446;6.6248;-0.1026;0.1134;0.1655
0001171394;-0.4262;-6.3805;6.6152;-0.0837;0.1264;0.1408
0001171407;-0.2322;-6.1363;6.4859;-0.0584;0.1354;0.1116
0001171416;-0.2011;-6.1794;6.5266;-0.0481;0.1420;0.0838
0001171428;-0.1053;-6.2632;6.4332;-0.0357;0.1440;0.0614
0001171437;-0.3232;-6.3494;6.4380;-0.0113;0.1355;0.0525
0001171446;-0.1700;-6.3997;6.4787;-0.0033;0.1322;0.0498
0001171459;-0.0527;-6.2130;6.4189;-0.0025;0.1419;0.0520
0001171468;-0.0982;-6.1531;6.5290;0.0005;0.1408;0.0476
0001171480;-0.2538;-6.3015;6.4069;0.0033;0.1496;0.0478
0001171489;-0.1437;-6.1172;6.4883;0.0161;0.1472;0.0409
0001171558;-0.5483;-5.8993;6.4236;0.0023;0.1797;0.0737
0001171567;-0.6345;-5.6527;6.5074;-0.0071;0.1764;0.0624
0001171576;-0.8595;-5.7676;6.3853;-0.0143;0.1763;0.0560
0001171588;-0.8595;-5.7461;6.3901;-0.0195;0.1757;0.0414
0001171597;-1.0343;-5.8921;6.3303;-0.0213;0.1665;0.0294
0001171610;-0.8619;-5.8682;6.4236;-0.0229;0.1593;0.0244
0001171619;-0.9553;-5.8969;6.3734;-0.0232;0.1523;0.0131
0001171631;-0.7566;-5.9735;6.4548;-0.0225;0.1500;-0.0103
0001171640;-0.6776;-5.8849;6.4189;-0.0153;0.1472;-0.0229
0001171653;-0.5243;-5.8419;6.3805;-0.0032;0.1482;-0.0310
0001171662;-0.5243;-6.0573;6.3686;0.0079;0.1649;-0.0265
0001171674;-0.5602;-5.8826;6.2082;-0.0019;0.2160;0.0217
0001171683;-0.7925;-5.6000;6.1411;-0.0148;0.2394;0.0534
0001171692;-0.9290;-5.3486;6.2345;-0.0361;0.2487;0.0753
0001171705;-1.4150;-5.1906;6.2896;-0.0797;0.2430;0.1210
0001171714;-1.6616;-5.1044;6.3470;-0.0994;0.2320;0.1529
0001171726;-1.6544;-5.0925;6.1339;-0.1352;0.2138;0.1997
0001171735;-1.5299;-5.2241;6.0549;-0.1631;0.2010;0.2386
0001171748;-1.1061;-5.1978;5.9927;-0.1949;0.2076;0.2895
0001171757;-1.1037;-5.4157;5.9113;-0.2092;0.2093;0.3098
0001171769;-0.9481;-5.2816;5.8682;-0.2401;0.2374;0.3339
0001171778;-1.0678;-5.4061;5.8993;-0.2703;0.2626;0.3461
0001171787;-1.1444;-5.2864;5.8873;-0.2956;0.2721;0.3453
0001171857;-1.5490;-5.7581;5.7892;-0.3219;0.2389;0.3651
0001171866;-1.5921;-5.8347;5.8251;-0.3195;0.2513;0.3589
0001171879;-1.5251;-5.5689;5.7006;-0.3114;0.2591;0.3424
0001171888;-1.4676;-5.4420;5.7676;-0.3108;0.2611;0.3280
0001171900;-1.7741;-5.5306;5.6671;-0.3130;0.2625;0.3140
0001171909;-1.6712;-5.6144;5.6168;-0.3115;0.2589;0.3047
0001171922;-1.6328;-5.8275;5.6288;-0.3124;0.2417;0.2803
0001171931;-1.6712;-5.6383;5.5641;-0.3127;0.2205;0.2582
0001171940;-1.6305;-5.5210;5.6814;-0.3132;0.2094;0.2368
0001171952;-1.7669;-5.6312;5.7150;-0.3058;0.1966;0.2154
0001171961;-1.8818;-5.5162;5.7437;-0.3044;0.2014;0.2264
0001171974;-1.8435;-5.5019;5.6479;-0.3048;0.1740;0.2337
0001171983;-1.8603;-5.5378;5.6551;-0.3106;0.1557;0.2417
0001171995;-1.6185;-5.6360;5.6671;-0.3135;0.1556;0.2645
0001172004;-1.5562;-5.4660;5.6048;-0.3183;0.1483;0.2789
0001172017;-1.4461;-5.4564;5.6336;-0.3348;0.1551;0.2983
0001172026;-1.4485;-5.4133;5.5354;-0.3508;0.1519;0.3050
0001172035;-1.5419;-5.4037;5.5545;-0.3612;0.1411;0.3043
0001172047;-1.5754;-5.2505;5.5330;-0.3810;0.1427;0.3078
0001172056;-1.7286;-5.2696;5.4827;-0.3764;0.1404;0.2990
0001172069;-1.6927;-5.3199;5.5282;-0.3825;0.1427;0.2963
0001172078;-1.8364;-5.3654;5.4516;-0.3826;0.1491;0.2834
0001172148;-2.1931;-5.5713;5.4109;-0.4217;0.0934;0.2956
0001172157;-2.0662;-5.6431;5.4564;-0.4125;0.0817;0.2755
0001172170;-2.3583;-5.7700;5.3295;-0.4009;0.0665;0.2703
0001172179;-2.3870;-5.5641;5.3965;-0.3846;0.0410;0.2501
0001172188;-2.4157;-5.5091;5.3510;-0.3808;0.0136;0.2462
0001172200;-2.2505;-5.5689;5.3822;-0.3698;-0.0273;0.2368
0001172209;-2.1261;-5.5522;5.3439;-0.3569;-0.0564;0.2362
0001172222;-1.9968;-5.4229;5.3391;-0.3589;-0.0906;0.2336
0001172231;-1.8244;-5.5737;5.3702;-0.3673;-0.0786;0.2401
0001172243;-1.5490;-5.4085;5.3846;-0.3701;-0.0673;0.2332
0001172252;-1.4246;-5.4300;5.4085;-0.3901;-0.0454;0.2218
0001172265;-1.5682;-5.6168;5.3941;-0.3980;-0.0262;0.2004
0001172274;-1.7119;-5.5905;5.4085;-0.4033;-0.0156;0.1966
0001172286;-2.0494;-5.7293;5.3941;-0.3992;-0.0197;0.2002
0001172295;-1.9609;-5.6647;5.4061;-0.4028;-0.0320;0.2157
0001172304;-2.2553;-5.6599;5.4013;-0.3953;-0.0594;0.2221
0001172317;-2.2505;-5.7197;5.5474;-0.3796;-0.1014;0.2342
0001172326;-1.8890;-5.5641;5.5593;-0.3697;-0.1131;0.2442
0001172338;-1.5706;-5.3630;5.5737;-0.3627;-0.1074;0.2457
0001172347;-1.3240;-5.5593;5.4300;-0.3810;-0.0793;0.2509
0001172360;-1.2689;-5.3965;5.4851;-0.4025;-0.0530;0.2479
0001172369;-1.5969;-5.5952;5.5378;-0.4154;-0.0496;0.2370
0001172439;-2.3080;-5.6120;5.3893;-0.4453;-0.1318;0.2285
0001172448;-2.1596;-5.4324;5.4708;-0.4410;-0.1436;0.2152
0001172461;-1.8914;-5.4827;5.4588;-0.4333;-0.1520;0.1875
0001172470;-1.8028;-5.6216;5.4636;-0.4270;-0.1335;0.1632
0001172479;-1.8579;-5.5378;5.3391;-0.4282;-0.1039;0.1508
0001172491;-1.8220;-5.5498;5.3870;-0.4113;-0.0951;0.1322
0001172500;-2.0159;-5.5306;5.4971;-0.3932;-0.1013;0.0995
0001172513;-2.0997;-5.5330;5.7916;-0.3740;-0.1005;0.0637
0001172522;-2.2362;-5.6192;6.2680;-0.3254;-0.1559;0.0260
0001172534;-2.1452;-6.3542;7.1898;-0.2178;-0.2714;-0.0666
0001172543;-1.2091;-6.4739;6.2872;-0.1486;-0.3136;-0.1945
0001172556;-0.2107;-7.1682;5.3582;-0.1436;-0.2478;-0.3687
0001172565;-0.5986;-7.9559;5.5737;-0.1280;-0.1593;-0.3636
0001172577;-1.3072;-7.0246;5.3630;-0.0377;-0.1286;-0.1916
0001172586;-1.6927;-5.7940;5.4540;-0.0238;-0.1496;-0.0699
0001172595;-2.0853;-4.9297;5.7197;-0.0601;-0.1416;0.0397
0001172608;-2.1811;-3.8307;5.9711;-0.1314;-0.1348;0.1947
0001172617;-2.0135;-3.3184;5.7485;-0.2180;-0.1443;0.2690
0001172629;-1.4198;-3.4117;5.7150;-0.3587;-0.1464;0.2655
0001172638;-1.2450;-3.8092;5.8969;-0.4098;-0.1300;0.2288
0001172651;-0.9768;-5.4731;5.9304;-0.4529;-0.1220;0.1395
0001172660;-0.8835;-6.6822;5.8706;-0.4546;-0.1128;0.0755
0001172730;-2.3343;-4.0749;6.1435;-0.2673;0.0462;0.3985
0001172739;-2.3511;-4.1515;6.0047;-0.3345;0.0372;0.3701
0001172752;-2.0231;-4.7453;5.9903;-0.3953;0.0051;0.3139
0001172761;-1.8986;-5.4588;5.9376;-0.4202;0.0096;0.2946
0001172770;-1.5682;-5.6910;5.8873;-0.4209;0.0278;0.2923
0001172782;-1.6640;-6.1244;5.9472;-0.4021;0.0504;0.3220
0001172791;-1.6688;-6.0478;5.8945;-0.3876;0.0723;0.3619
0001172804;-1.5969;-5.9280;5.9616;-0.3774;0.0869;0.4062
0001172813;-1.8459;-6.0310;6.0094;-0.3797;0.0983;0.4390
0001172825;-1.5155;-5.6144;5.7748;-0.3914;0.1098;0.4804
0001172834;-1.4676;-5.5330;5.8059;-0.4013;0.1250;0.5057
0001172847;-1.8124;-5.1715;5.7604;-0.4333;0.1363;0.5187
0001172856;-2.0614;-5.1092;5.8347;-0.4559;0.1351;0.5293
0001172865;-2.4014;-5.1475;5.9280;-0.4780;0.1138;0.5289
0001172877;-2.2745;-5.0757;5.9568;-0.4979;0.0978;0.5424
0001172886;-2.4852;-5.3702;5.8993;-0.5057;0.0773;0.5377
0001172899;-2.5402;-5.5833;5.9664;-0.5203;0.0501;0.5227
0001172908;-2.2889;-5.7796;5.8466;-0.5219;0.0246;0.5101
0001172920;-2.1284;-5.7006;5.9089;-0.5149;0.0284;0.4867
0001172929;-2.0063;-5.7748;5.8945;-0.5020;0.0370;0.4680
0001172942;-1.9465;-5.9927;5.8131;-0.4760;0.0513;0.4610
0001172951;-2.0949;-6.0478;5.8466;-0.4628;0.0566;0.4506
0001172960;-2.3200;-6.1507;5.9376;-0.4302;0.0545;0.4395
0001173030;-2.6217;-5.5043;6.4931;-0.3684;-0.0233;0.3156
0001173039;-2.7533;-5.5952;6.4236;-0.3557;-0.0201;0.3139
0001173052;-2.7366;-5.5138;6.5266;-0.3451;-0.0317;0.2991
0001173061;-2.8754;-5.5426;6.6511;-0.3331;-0.0344;0.2803
0001173073;-2.9760;-5.6072;6.6990;-0.3293;-0.0368;0.2750
0001173082;-2.8802;-5.6790;6.6367;-0.3192;-0.0665;0.2731
0001173095;-2.5762;-5.8203;6.5098;-0.3132;-0.0774;0.3040
0001173104;-1.8603;-5.8227;6.5721;-0.3074;-0.0982;0.3475
0001173113;-1.7933;-5.8586;6.5697;-0.3035;-0.1139;0.3836
0001173125;-1.4341;-5.6527;6.4715;-0.3320;-0.1312;0.4309
0001173134;-1.4102;-5.4205;6.7086;-0.4001;-0.1515;0.4243
0001173147;-1.5036;-5.1523;6.7253;-0.5207;-0.1891;0.3892
0001173156;-1.3455;-5.0925;6.5936;-0.5570;-0.2304;0.3796
0001173168;-1.2641;-5.1475;6.5050;-0.5814;-0.2503;0.3840
0001173177;-0.7207;-5.2984;6.5697;-0.6045;-0.2617;0.3740
0001173190;-0.7709;-5.9089;6.4572;-0.5821;-0.2106;0.3950
0001173199;-0.6656;-6.1483;6.4452;-0.5444;-0.1944;0.4191
0001173211;-0.7614;-6.4069;6.2632;-0.4932;-0.1402;0.3957
0001173220;-0.8954;-6.6367;6.2944;-0.4608;-0.0895;0.3511
0001173229;-1.3192;-6.5457;6.2082;-0.4270;-0.0755;0.3003
0001173242;-1.9273;-6.3279;6.1387;-0.3730;-0.0959;0.2008
0001173251;-1.6017;-5.8993;5.8634;-0.3431;-0.1139;0.1407
0001173319;-0.8428;-5.9807;6.1148;-0.4278;-0.0939;0.0481
0001173328;-1.0008;-6.1962;6.0382;-0.4317;-0.0941;0.0608
0001173342;-1.0056;-6.2872;6.2608;-0.4302;-0.1154;0.0701
0001173351;-0.9984;-6.1124;6.2920;-0.4357;-0.1228;0.0834
0001173364;-0.8595;-5.8802;6.4572;-0.4401;-0.1287;0.1156
0001173373;-0.5219;-5.6934;6.5074;-0.4482;-0.1348;0.1379
0001173385;-0.1820;-5.6479;6.4356;-0.4739;-0.1314;0.1573
0001173394;-0.2131;-5.8299;6.4189;-0.4898;-0.1244;0.1721
0001173403;-0.1125;-6.0406;6.5050;-0.5036;-0.1051;0.1958
0001173416;0.0551;-6.0047;6.2560;-0.5175;-0.0887;0.2090
0001173425;-0.1820;-6.1794;6.3063;-0.5287;-0.0637;0.2220
0001173437;-0.1628;-6.1028;6.2034;-0.5397;-0.0433;0.2419
0001173446;-0.4836;-6.1579;6.2082;-0.5383;-0.0364;0.2398
0001173459;-0.5650;-6.1555;6.3039;-0.5530;-0.0165;0.2234
0001173468;-0.6776;-6.2752;6.2393;-0.5680;-0.0136;0.2090
0001173480;-0.8523;-6.4763;6.1818;-0.5588;-0.0112;0.1851
0001173489;-0.6584;-6.4452;6.1196;-0.5412;-0.0095;0.1815
0001173502;-0.6728;-6.7157;5.9280;-0.5109;-0.0009;0.1564
0001173511;-0.6369;-6.8402;5.7748;-0.4743;-0.0080;0.1352
0001173520;-0.8930;-7.0054;5.8059;-0.4385;0.0097;0.1255
0001173532;-0.7159;-6.8546;5.8155;-0.3733;0.0095;0.1026
0001173541;-0.7230;-6.8594;5.8347;-0.3393;0.0013;0.0959
0001173608;-0.9697;-6.6032;6.2441;-0.1807;0.0096;-0.0240
0001173617;-0.9337;-6.5841;6.3303;-0.1659;-0.0037;-0.0497
0001173629;-0.6919;-6.6439;6.2728;-0.1527;-0.0131;-0.0953
0001173638;-0.9337;-6.9791;6.3231;-0.1327;0.0173;-0.1046
0001173651;-0.5028;-6.7660;6.2010;-0.1102;0.0123;-0.1384
0001173660;-0.8212;-6.8283;6.2848;-0.1015;0.0444;-0.1448
0001173669;-0.9194;-6.8809;6.2106;-0.0838;0.0562;-0.1552
0001173681;-1.0199;-6.6032;6.3925;-0.0666;0.0357;-0.1801
0001173690;-0.9098;-6.6008;6.6248;-0.0610;0.0620;-0.1772
0001173703;-0.6991;-6.3351;6.2848;-0.0573;0.0517;-0.1935
0001173712;-0.7805;-6.6248;6.4093;-0.0624;0.0729;-0.2002
0001173724;-1.0199;-6.7900;6.3710;-0.0640;0.0902;-0.1600
0001173733;-0.6201;-6.2465;6.2896;-0.0634;0.0454;-0.1701
0001173746;-0.6608;-6.2872;6.4620;-0.0834;0.0649;-0.1568
0001173755;-0.9146;-6.2656;6.4715;-0.1039;0.0584;-0.1444
0001173767;-0.8021;-6.0262;6.7325;-0.1442;-0.0031;-0.1803
0001173776;-0.6656;-6.0214;6.9647;-0.1664;-0.0430;-0.1904
0001173785;-0.6321;-6.0238;6.9480;-0.1974;-0.0930;-0.2114
0001173798;-0.1867;-6.0310;6.7564;-0.2563;-0.1238;-0.2237
0001173807;0.0455;-6.0669;6.6702;-0.2821;-0.1083;-0.2133
0001173819;0.1556;-6.3351;6.4500;-0.2868;-0.0883;-0.1817
0001173828;-0.1245;-6.5170;6.3662;-0.2794;-0.0594;-0.1296
0001173895;-0.6393;-6.9671;6.2177;-0.2005;-0.0913;-0.0051
0001173904;-0.6823;-7.0030;6.3111;-0.1924;-0.0550;0.0009
0001173916;-0.9864;-6.9240;6.3015;-0.1956;-0.0141;0.0224
0001173925;-1.1827;-6.9288;6.2632;-0.1998;-0.0045;0.0332
0001173938;-1.6065;-6.6990;6.4500;-0.2221;0.0137;0.0306
0001173947;-1.7047;-6.7157;6.4356;-0.2470;0.0156;0.0151
0001173956;-1.5562;-6.7708;6.4596;-0.2587;0.0238;-0.0144
0001173968;-1.7717;-6.8378;6.4260;-0.2743;0.0417;-0.0601
0001173977;-1.5658;-6.8019;6.5481;-0.2868;0.0502;-0.0774
0001173990;-1.5251;-7.0557;6.3255;-0.2798;0.0598;-0.0858
0001173999;-1.4868;-7.2353;6.2106;-0.2795;0.0715;-0.0715
0001174011;-1.5658;-7.3071;6.2728;-0.2758;0.0685;-0.0737
0001174020;-1.4437;-7.3885;6.2776;-0.2762;0.0719;-0.0755
0001174033;-1.3910;-7.2089;6.1507;-0.2722;0.0721;-0.1055
0001174042;-1.2378;-7.2018;6.1627;-0.2670;0.0713;-0.1343
0001174054;-1.3910;-7.3789;6.2201;-0.2498;0.0978;-0.1737
0001174063;-1.2929;-7.4986;6.1172;-0.2493;0.1166;-0.2264
0001174072;-1.3862;-7.6662;6.1411;-0.2429;0.1264;-0.2630
0001174085;-1.4964;-7.8219;6.0621;-0.2296;0.1435;-0.2891
0001174094;-1.4485;-7.7955;6.0142;-0.2330;0.1332;-0.3080
0001174106;-1.8220;-7.8793;5.8562;-0.2217;0.0981;-0.2974
0001174115;-1.7741;-7.7524;5.9233;-0.2177;0.0790;-0.2593
0001174182;-1.6376;-7.7596;5.7197;-0.1152;0.0358;-0.0731
0001174191;-1.7885;-7.7021;5.5522;-0.0849;0.0365;-0.0705
0001174203;-1.8794;-7.9104;5.7054;-0.0593;0.0037;-0.0915
0001174212;-1.9441;-7.9176;5.5976;-0.0412;0.0089;-0.1003
0001174225;-1.8244;-8.0924;5.5282;-0.0003;0.0088;-0.1179
0001174234;-1.9345;-8.1618;5.2361;0.0332;0.0245;-0.1094
0001174243;-1.7502;-8.3246;5.5833;0.0564;0.0025;-0.1278
0001174255;-1.5874;-8.2217;5.4061;0.0977;-0.0136;-0.1232
0001174264;-1.5299;-8.1307;5.4133;0.1207;-0.0281;-0.1014
0001174277;-1.4413;-7.9248;5.4995;0.1514;-0.0534;-0.0879
0001174286;-1.5323;-7.9224;5.5306;0.1711;-0.0698;-0.0677
0001174298;-1.4030;-7.7979;5.4372;0.1997;-0.0865;-0.0389
0001174307;-1.3312;-7.6830;5.3702;0.2141;-0.0874;-0.0128
0001174320;-1.3671;-7.8314;5.2289;0.2446;-0.0843;0.0127
0001174329;-1.4868;-8.2600;5.2912;0.2749;-0.0814;0.0241
0001174341;-1.5850;-8.2768;5.2625;0.2988;-0.0588;0.0352
0001174350;-1.6616;-8.1666;5.2361;0.3132;-0.0626;0.0248
0001174359;-1.8387;-8.0661;5.3127;0.3027;-0.0646;0.0334
0001174372;-1.8675;-7.7021;5.5186;0.2962;-0.1158;0.0570
0001174381;-1.6831;-7.4723;5.5713;0.2846;-0.1524;0.0851
0001174393;-1.0319;-7.0078;6.1387;0.2565;-0.1859;0.1467
0001174402;-0.6584;-6.5050;7.0629;0.1969;-0.2106;0.2168
0001174469;-3.9097;-7.7309;5.9520;-0.4285;0.1235;0.1551
0001174478;-4.0989;-9.0692;6.0047;-0.3916;0.0565;0.0381
0001174490;-3.1915;-10.4339;5.6862;-0.2618;-0.1136;-0.0478
0001174499;-2.1308;-10.5560;5.6240;-0.1127;-0.2193;-0.0464
0001174508;-0.9098;-9.4332;5.9735;0.0304;-0.2168;-0.0107
0001174521;-0.0431;-7.5130;6.3590;0.1701;-0.1092;0.0585
0001174530;-0.2873;-6.5050;6.3351;0.1919;-0.0406;0.1123
0001174542;-0.8380;-4.9656;6.2872;0.1499;-0.0501;0.2018
0001174551;-1.3599;-4.4987;6.6942;0.0610;-0.0874;0.2362
0001174564;-1.5610;-5.5522;6.6607;-0.0785;-0.1466;0.2427
0001174573;-1.5993;-6.4787;6.6056;-0.1134;-0.1772;0.2268
0001174585;-1.6065;-7.6782;6.5290;-0.1118;-0.1653;0.1663
0001174594;-1.4389;-8.0996;6.3566;-0.0819;-0.1238;0.1029
0001174607;-1.1516;-8.2265;6.2776;0.0007;-0.0793;0.0212
0001174616;-1.0080;-7.8051;6.2824;0.0673;-0.0524;-0.0258
0001174625;-0.6632;-7.4867;6.2465;0.1102;-0.0069;-0.0312
0001174637;-0.6369;-6.9911;6.1244;0.1335;0.0290;-0.0065
0001174646;-0.6225;-6.6774;6.2201;0.1434;0.0249;0.0241
0001174659;-0.7853;-6.6056;6.1627;0.1306;0.0147;0.0746
0001174668;-1.2474;-6.8929;6.2513;0.1167;0.0113;0.0979
0001174680;-1.3096;-7.0198;6.3542;0.1291;-0.0161;0.0950
0001174689;-1.5562;-7.1204;6.3375;0.1363;-0.0163;0.0805
0001174757;-1.1492;-6.4787;6.2321;0.2202;-0.0292;0.0069
0001174766;-1.0391;-6.3327;6.2944;0.2101;-0.0155;0.0068
0001174775;-0.9768;-6.4165;6.3207;0.2024;0.0020;0.0104
0001174788;-1.2234;-6.5577;6.3207;0.1935;0.0183;-0.0027
0001174797;-1.2091;-6.5936;6.2297;0.1831;0.0221;-0.0077
0001174809;-1.4964;-6.7349;6.2656;0.1960;0.0137;-0.0242
0001174818;-1.5395;-6.7493;6.2824;0.1900;0.0203;-0.0262
0001174831;-1.4174;-6.6822;6.2513;0.1757;0.0213;-0.0393
0001174840;-1.5036;-6.4667;6.2872;0.1592;0.0149;-0.0384
0001174852;-1.4509;-6.2680;6.2393;0.1411;-0.0017;-0.0345
0001174861;-1.4820;-6.3542;6.1196;0.1252;-0.0195;-0.0368
0001174870;-1.3120;-6.3207;6.1890;0.1051;-0.0257;-0.0270
0001174883;-1.2570;-6.2800;6.1627;0.0857;-0.0312;-0.0252
0001174892;-1.3599;-6.4620;6.0430;0.0851;-0.0445;-0.0288
0001174904;-1.1540;-6.4117;6.0478;0.0830;-0.0364;-0.0277
0001174913;-1.2761;-6.6894;5.9640;0.0890;-0.0396;-0.0280
0001174926;-1.4509;-6.6295;6.0262;0.0930;-0.0345;-0.0193
0001174935;-1.3815;-6.3853;5.9352;0.0942;-0.0357;-0.0093
0001174947;-1.2522;-6.4069;5.9711;0.0795;-0.0292;0.0101
0001174956;-1.4174;-6.4260;5.9161;0.0705;-0.0258;0.0325
0001174965;-1.3096;-6.2153;5.9256;0.0538;-0.0312;0.0385
0001175032;-1.6161;-6.6152;5.8059;-0.0293;-0.0193;0.1087
0001175041;-1.6424;-6.5481;5.9185;-0.0334;-0.0093;0.1168
0001175053;-1.4341;-6.3973;5.8634;-0.0329;-0.0003;0.1230
0001175062;-1.5107;-6.4859;5.8012;-0.0400;0.0151;0.1331
0001175075;-1.7813;-6.5888;5.9807;-0.0496;0.0101;0.1387
0001175084;-1.8986;-6.4524;5.9424;-0.0573;0.0023;0.1436
0001175096;-1.9201;-6.2991;6.0166;-0.0699;-0.0112;0.1448
0001175105;-1.9728;-6.3111;5.9903;-0.0865;-0.0157;0.1424
0001175118;-1.9872;-6.5673;5.9831;-0.1031;-0.0281;0.1426
0001175127;-1.8699;-6.3949;5.8490;-0.1111;-0.0557;0.1291
0001175136;-1.8292;-6.3422;5.8323;-0.1207;-0.0600;0.1338
0001175148;-1.6927;-6.4428;5.8610;-0.1263;-0.0725;0.1278
0001175157;-1.5682;-6.3566;5.8035;-0.1215;-0.0855;0.1204
0001175170;-1.7166;-6.5194;5.8107;-0.1170;-0.0999;0.1210
0001175179;-1.6951;-6.5266;5.7461;-0.1167;-0.1049;0.1248
0001175191;-1.5562;-6.4476;5.7221;-0.1139;-0.1136;0.1278
0001175200;-1.6041;-6.4045;5.7078;-0.1102;-0.1176;0.1303
0001175213;-1.9393;-6.4715;5.8323;-0.1116;-0.1200;0.1394
0001175222;-1.6903;-6.1866;5.8802;-0.1163;-0.1163;0.1494
0001175234;-1.8004;-6.2728;5.7604;-0.1366;-0.1136;0.1392
0001175243;-1.7861;-6.2106;5.8371;-0.1525;-0.1070;0.1334
0001175252;-1.7071;-6.0573;5.7126;-0.1752;-0.1001;0.1331
0001175319;-2.1428;-6.2417;5.5067;-0.3625;-0.1230;0.1378
0001175328;-2.0710;-6.2872;5.4851;-0.3909;-0.1264;0.1428
0001175340;-1.8842;-6.3255;5.4923;-0.4109;-0.1296;0.1506
0001175349;-1.9824;-6.2513;5.4636;-0.4209;-0.1279;0.1545
0001175362;-2.0111;-6.2680;5.4109;-0.4429;-0.1319;0.1744
0001175371;-1.8986;-6.2896;5.4492;-0.4639;-0.1391;0.1859
0001175383;-1.9752;-6.2584;5.4803;-0.4807;-0.1360;0.1893
0001175392;-1.8100;-6.4404;5.4731;-0.4947;-0.1268;0.1923
0001175401;-2.0207;-6.7086;5.6695;-0.5041;-0.1290;0.1943
0001175414;-1.9992;-6.7684;5.7748;-0.5156;-0.1234;0.1993
0001175423;-1.7861;-6.6559;5.8897;-0.5331;-0.1234;0.2046
0001175435;-2.0279;-6.7373;5.9783;-0.5581;-0.1168;0.2149
0001175444;-1.7837;-6.6655;6.1890;-0.5734;-0.1208;0.2102
0001175457;-1.9393;-6.6367;6.2752;-0.6138;-0.1275;0.2074
0001175466;-2.0231;-6.8067;6.3805;-0.6439;-0.1276;0.2081
0001175478;-1.9154;-6.9456;6.7373;-0.6892;-0.1354;0.2008
0001175487;-1.9345;-7.0820;6.7924;-0.7257;-0.1358;0.2025
0001175500;-1.8292;-7.2736;6.8905;-0.7594;-0.1502;0.1977
0001175509;-1.5682;-7.3310;7.0773;-0.7691;-0.1468;0.1905
0001175518;-1.9513;-7.7357;7.1204;-0.7863;-0.1426;0.1815
0001175530;-1.9824;-7.8147;7.2496;-0.7759;-0.1258;0.1645
0001175539;-2.3727;-8.2696;7.0677;-0.7486;-0.1459;0.1563
0001175608;-2.5953;-6.7947;8.0110;-0.3078;-0.2642;0.4243
0001175617;-2.2553;-6.0430;8.1307;-0.3293;-0.2657;0.3860
0001175629;-1.8364;-5.2433;8.0685;-0.3868;-0.2715;0.3287
0001175638;-1.6879;-5.2002;7.9703;-0.4415;-0.2685;0.2785
0001175651;-1.4964;-5.9233;7.6591;-0.5072;-0.2874;0.2366
0001175660;-1.4246;-6.7086;7.5920;-0.5140;-0.3032;0.2467
0001175672;-1.2306;-7.6064;7.5058;-0.4810;-0.3265;0.2551
0001175681;-1.1061;-7.8769;7.5226;-0.4266;-0.3353;0.2647
0001175690;-1.0151;-7.9320;7.3358;-0.3619;-0.3381;0.2654
0001175703;-0.8859;-7.6064;7.2903;-0.2872;-0.3195;0.2697
0001175712;-0.7542;-7.1706;7.0868;-0.2575;-0.3035;0.2850
0001175724;-1.0558;-7.0461;7.2137;-0.2273;-0.3084;0.3035
0001175733;-0.9768;-6.7421;7.1180;-0.2212;-0.2992;0.3345
0001175746;-0.8188;-6.6583;6.9049;-0.2050;-0.2903;0.3800
0001175755;-0.5243;-6.5457;6.8019;-0.1932;-0.2884;0.3981
0001175769;-0.3735;-6.2465;6.8594;-0.2014;-0.2597;0.4097
0001175778;-0.0742;-5.9903;6.7756;-0.2052;-0.2445;0.4077
0001175791;0.0287;-6.0861;6.6702;-0.2256;-0.2222;0.4068
0001175800;0.0646;-6.0118;6.6487;-0.2455;-0.2108;0.4000
0001175809;-0.1963;-6.3662;6.5553;-0.2550;-0.2029;0.3930
0001175878;-0.0886;-6.7947;6.6391;-0.1695;-0.1086;0.4954
0001175887;-0.0790;-6.6726;6.5386;-0.1556;-0.0957;0.4980
0001175900;-0.1125;-6.3351;6.4643;-0.1448;-0.0781;0.4980
0001175909;-0.0958;-6.2537;6.5003;-0.1579;-0.0589;0.5029
0001175921;0.0192;-6.0190;6.3734;-0.1677;-0.0566;0.4988
0001175930;0.1508;-6.0262;6.4380;-0.1672;-0.0637;0.5000
0001175943;0.2418;-6.1699;6.3207;-0.1831;-0.0386;0.5028
0001175952;0.3472;-6.1794;6.3207;-0.1851;-0.0262;0.4976
0001175961;0.2011;-6.5170;6.2896;-0.1841;-0.0108;0.4926
0001175973;0.1939;-6.5362;6.3470;-0.1780;0.0133;0.4656
0001175982;-0.0622;-6.5888;6.3422;-0.1712;0.0317;0.4339
0001175995;-0.0311;-6.6487;6.3063;-0.1647;0.0434;0.3717
0001176004;-0.0742;-6.7516;6.2991;-0.1579;0.0616;0.3428
0001176016;-0.4214;-6.9887;6.3446;-0.1503;0.0782;0.3076
0001176025;-0.4094;-6.7301;6.2632;-0.1374;0.0809;0.2947
0001176038;-0.4405;-6.7277;6.2968;-0.1295;0.0838;0.2757
0001176047;-0.3807;-6.5769;6.3614;-0.1211;0.0778;0.2653
0001176056;-0.4142;-6.6008;6.2656;-0.1288;0.0962;0.2530
0001176068;-0.2705;-6.4548;6.3782;-0.1414;0.1015;0.2394
0001176077;-0.1556;-6.3877;6.2896;-0.1563;0.1102;0.2407
0001176090;-0.1030;-6.3039;6.3159;-0.1908;0.1299;0.2617
0001176099;0.0359;-6.0071;6.4093;-0.2030;0.1411;0.2770
0001176168;-0.4310;-6.3590;6.6583;-0.2726;0.1907;0.2300
0001176177;-0.5435;-6.6655;6.6798;-0.2639;0.1896;0.2201
0001176190;-0.4980;-6.9049;6.6918;-0.2414;0.1951;0.2066
0001176199;-0.6033;-7.1371;6.6990;-0.2298;0.1927;0.1921
0001176208;-0.5411;-7.1323;6.6511;-0.2056;0.1867;0.1928
0001176220;-0.6393;-7.1108;6.6104;-0.1990;0.1888;0.2137
0001176229;-0.5267;-7.0485;6.6104;-0.1808;0.1791;0.2284
0001176243;-0.5219;-6.7014;6.5434;-0.1753;0.1783;0.2337
0001176252;-0.4621;-6.5362;6.6559;-0.1800;0.1736;0.2306
0001176265;-0.5914;-6.4524;6.6798;-0.1919;0.1781;0.2121
0001176274;-0.7326;-6.6032;6.6176;-0.2102;0.1875;0.2038
0001176286;-0.7542;-6.5027;6.5529;-0.2312;0.1915;0.1908
0001176295;-0.6321;-6.3758;6.6008;-0.2380;0.1875;0.1921
0001176304;-0.5866;-6.3542;6.4572;-0.2587;0.1981;0.2006
0001176317;-0.5171;-6.5003;6.5050;-0.2722;0.2000;0.2046
0001176326;-0.4693;-6.6726;6.5050;-0.2836;0.2061;0.2166
0001176338;-0.5770;-6.6798;6.3542;-0.2811;0.2160;0.2314
0001176347;-0.3184;-6.6750;6.2991;-0.2719;0.2197;0.2390
0001176360;-0.2466;-6.6295;6.2968;-0.2611;0.2269;0.2451
0001176369;-0.3232;-6.7780;6.1986;-0.2486;0.2329;0.2502
0001176381;-0.5004;-6.8809;6.2800;-0.2308;0.2499;0.2566
0001176390;-0.5986;-6.5960;6.2249;-0.2198;0.2594;0.2611
0001176399;-0.8595;-6.5266;6.3039;-0.2057;0.2573;0.2443
0001176468;-0.9026;-6.2896;6.0597;-0.1973;0.2669;0.2465
0001176477;-1.0654;-6.1866;6.0454;-0.1893;0.2759;0.2437
0001176489;-1.1516;-6.1914;6.1842;-0.1958;0.2825;0.2393
0001176498;-1.3144;-6.1890;6.0549;-0.1905;0.2805;0.2266
0001176511;-1.4078;-6.3805;6.0908;-0.1763;0.2703;0.2077
0001176520;-1.3886;-6.3734;5.8969;-0.1720;0.2683;0.2056
0001176532;-1.1827;-6.2752;5.9065;-0.1635;0.2633;0.1933
0001176541;-1.1875;-6.3255;5.9711;-0.1541;0.2735;0.1916
0001176550;-1.2019;-6.3829;5.9448;-0.1510;0.2758;0.1916
0001176563;-1.4222;-6.0813;6.0047;-0.1551;0.2831;0.1839
0001176572;-1.5323;-5.8706;5.9544;-0.1731;0.2778;0.1740
0001176584;-1.4676;-5.7676;5.9185;-0.1961;0.2593;0.1699
0001176593;-1.7645;-5.7868;5.9400;-0.2104;0.2419;0.1740
0001176606;-1.6759;-5.8442;5.9328;-0.2366;0.2222;0.1901
0001176615;-1.7957;-5.9592;5.9233;-0.2393;0.2138;0.1986
0001176627;-1.3719;-6.0142;5.8682;-0.2475;0.2181;0.2188
0001176636;-1.4629;-6.1028;5.8179;-0.2487;0.2316;0.2418
0001176649;-1.2905;-6.1914;5.8299;-0.2594;0.2329;0.2526
0001176658;-1.4365;-6.2465;5.5929;-0.2518;0.2397;0.2458
0001176667;-1.6257;-6.3518;5.7868;-0.2567;0.2555;0.2589
0001176679;-1.7861;-6.1914;5.6671;-0.2750;0.2535;0.2473
0001176688;-2.0758;-6.2991;5.6958;-0.2867;0.2431;0.2389
0001176757;-1.5467;-6.3853;5.5713;-0.2778;0.1797;0.2398
0001176766;-1.5251;-6.3207;5.4037;-0.2825;0.2081;0.2348
0001176778;-1.7765;-6.2082;5.5210;-0.2806;0.2232;0.2169
0001176787;-1.7717;-6.1723;5.4109;-0.2811;0.2108;0.2089
0001176800;-1.8411;-6.0621;5.5186;-0.2690;0.1964;0.1912
0001176809;-1.9154;-6.1435;5.3295;-0.2729;0.1877;0.1821
0001176818;-2.0686;-6.1100;5.3558;-0.2763;0.1681;0.1633
0001176830;-2.1524;-6.1699;5.3893;-0.2579;0.1617;0.1543
0001176839;-2.1979;-6.3375;5.3678;-0.2559;0.1644;0.1536
0001176852;-2.1332;-6.2752;5.3534;-0.2503;0.1605;0.1539
0001176861;-2.1739;-6.1699;5.3295;-0.2338;0.1455;0.1464
0001176873;-2.2865;-6.3087;5.3271;-0.2338;0.1428;0.1347
0001176882;-2.1452;-6.2369;5.3917;-0.2333;0.1372;0.1271
0001176895;-2.4014;-6.3087;5.3103;-0.2360;0.1244;0.1124
0001176904;-2.6336;-6.4069;5.2792;-0.2312;0.1094;0.1088
0001176913;-2.3846;-6.2537;5.2170;-0.2174;0.0687;0.1025
0001176925;-2.2458;-6.2417;5.2433;-0.2050;0.0402;0.0979
0001176934;-2.2098;-6.2944;5.1882;-0.2081;0.0173;0.0998
0001176947;-2.0399;-6.3183;5.2098;-0.1984;0.0172;0.1019
0001176956;-1.8794;-6.3590;5.2529;-0.1920;0.0220;0.0891
0001176968;-1.9273;-6.3422;5.2744;-0.1847;0.0380;0.0830
0001176977;-2.2027;-6.4332;5.1811;-0.1880;0.0350;0.0644
0001177046;-1.7669;-6.2417;5.0661;-0.1668;0.0867;0.0405
0001177055;-1.5874;-6.2968;4.9225;-0.1729;0.1212;0.0446
0001177064;-1.7693;-6.4093;4.7908;-0.1752;0.1533;0.0573
0001177076;-2.0207;-6.2776;4.7381;-0.1785;0.1657;0.0766
0001177085;-2.4397;-6.3542;4.7573;-0.1784;0.1587;0.0922
0001177098;-2.3703;-6.1459;4.7214;-0.1616;0.1368;0.1026
0001177107;-2.5402;-6.0789;4.7645;-0.1523;0.0985;0.0957
0001177119;-2.7102;-6.2752;4.7166;-0.1424;0.0681;0.0826
0001177128;-2.3607;-6.4620;4.5873;-0.1203;0.0518;0.0759
0001177141;-2.2122;-6.5984;4.5705;-0.0802;0.0330;0.0573
0001177150;-2.0614;-6.4165;4.6280;-0.0674;0.0338;0.0302
0001177159;-2.1596;-6.6511;5.6790;-0.0238;-0.0013;-0.0060
0001177171;-1.5012;-6.9791;5.9568;0.0725;-0.0055;-0.0974
0001177180;-0.5938;-6.8738;5.1092;0.1176;0.0095;-0.2316
0001177193;-0.6440;-7.9511;5.0661;0.1100;0.1688;-0.3912
0001177202;-1.7669;-8.5593;5.2577;0.1387;0.2717;-0.3705
0001177214;-2.7988;-7.6543;4.6950;0.2322;0.2888;-0.2446
0001177223;-3.0957;-6.6702;4.6136;0.2609;0.2353;-0.1627
0001177236;-3.0191;-5.1404;5.1116;0.2190;0.1867;-0.0638
0001177245;-2.9329;-4.3574;5.1044;0.1451;0.1724;0.0089
0001177254;-2.8563;-3.7493;4.9560;0.0524;0.1467;0.0260
0001177266;-2.7438;-3.9433;5.0661;-0.0901;0.1402;0.0015
0001177275;-2.5139;-4.5442;5.0015;-0.1611;0.1470;-0.0296
0001177344;-2.4134;-6.7852;4.9895;0.0296;0.0675;-0.0717
0001177353;-2.3870;-6.4979;5.0182;0.0381;0.0822;-0.0333
0001177365;-2.4517;-5.9352;5.0518;0.0358;0.1126;0.0249
0001177374;-2.4493;-5.7724;4.9321;0.0248;0.1282;0.0723
0001177387;-2.3918;-5.5043;4.8746;-0.0136;0.1611;0.1287
0001177396;-2.3439;-5.5833;4.8387;-0.0309;0.1616;0.1462
0001177405;-2.1620;-5.8754;4.8411;-0.0506;0.1644;0.1435
0001177417;-1.6879;-6.1579;4.7046;-0.0657;0.1604;0.1006
0001177426;-1.4533;-6.3255;4.6543;-0.0646;0.1680;0.0686
0001177439;-1.5036;-6.5481;4.7046;-0.0743;0.2050;0.0642
0001177448;-1.6017;-6.4859;4.6687;-0.0835;0.2210;0.0754
0001177460;-1.8220;-6.1579;4.6208;-0.0991;0.2306;0.1098
0001177469;-2.1859;-6.1387;4.5610;-0.1042;0.2190;0.1247
0001177482;-2.5187;-6.1292;4.6112;-0.1176;0.2188;0.1545
0001177491;-2.6408;-6.1004;4.3311;-0.1326;0.2192;0.1643
0001177500;-2.6001;-6.0501;4.3742;-0.1264;0.2186;0.1617
0001177512;-2.6791;-6.2153;4.1492;-0.1226;0.1811;0.1455
0001177521;-2.7773;-6.3614;4.1899;-0.1134;0.1688;0.1308
0001177534;-2.7174;-6.4404;4.1324;-0.0970;0.1559;0.1022
0001177543;-3.0047;-6.4452;4.1444;-0.0789;0.1491;0.0818
0001177555;-2.8970;-6.3662;4.2066;-0.0714;0.1514;0.0616
0001177564;-2.8730;-6.2728;4.1348;-0.0614;0.1434;0.0490
0001177633;-2.7773;-6.1866;4.2210;-0.0091;0.0683;-0.0065
0001177642;-3.1508;-6.2991;4.0893;-0.0067;0.0625;0.0001
0001177651;-2.7773;-6.1746;4.0606;0.0081;0.0490;0.0001
0001177663;-2.8706;-6.0885;4.1827;0.0184;0.0633;0.0172
0001177672;-2.6839;-5.9999;4.1563;0.0199;0.0418;0.0115
0001177685;-2.7174;-6.1459;4.1204;0.0135;0.0428;0.0115
0001177694;-2.6671;-6.0789;4.2210;0.0009;0.0480;0.0221
0001177705;-2.5570;-5.7054;4.2377;-0.0077;0.0478;0.0218
0001177714;-2.6240;-5.9185;4.1563;-0.0163;0.0480;0.0241
0001177728;-2.7246;-5.8969;4.1731;-0.0453;0.0402;0.0212
0001177737;-2.7318;-5.9280;4.1276;-0.0634;0.0296;0.0348
0001177746;-2.6600;-5.8059;4.0438;-0.0787;0.0222;0.0512
0001177759;-2.6791;-5.9400;4.1348;-0.0722;0.0123;0.0665
0001177768;-2.8922;-5.9592;4.1875;-0.0717;0.0141;0.0695
0001177780;-2.7749;-5.9759;3.9935;-0.0759;-0.0036;0.0766
0001177789;-2.7725;-6.0382;3.9289;-0.0819;-0.0113;0.0751
0001177802;-2.4445;-5.9616;4.0270;-0.0793;-0.0238;0.0557
0001177811;-2.8084;-6.0454;3.9145;-0.0847;-0.0176;0.0556
0001177823;-2.6336;-5.8849;4.0175;-0.0823;-0.0324;0.0494
0001177832;-2.9353;-5.9113;4.0941;-0.0806;-0.0396;0.0410
0001177841;-3.0071;-6.0693;3.9193;-0.0669;-0.0530;0.0297
0001177910;-2.5139;-5.9161;4.0558;0.0015;-0.1336;-0.0028
0001177919;-2.7581;-6.2106;4.1492;0.0113;-0.1220;0.0028
0001177931;-2.8826;-6.2393;4.1875;0.0060;-0.1360;-0.0019
0001177940;-2.8539;-6.2465;4.1683;0.0013;-0.1631;-0.0252
0001177953;-2.7653;-6.0454;4.2162;0.0147;-0.1867;-0.0382
0001177962;-2.9928;-6.1004;4.1851;0.0207;-0.2001;-0.0430
0001177974;-2.6504;-6.1028;4.2737;0.0353;-0.2081;-0.0400
0001177983;-2.6983;-6.0885;4.3311;0.0366;-0.1960;-0.0310
0001177996;-2.4349;-5.7796;4.3263;0.0482;-0.2026;-0.0456
0001178005;-2.6983;-5.9520;4.2401;0.0502;-0.2064;-0.0514
0001178014;-2.7031;-5.9017;4.2210;0.0562;-0.2122;-0.0621
0001178026;-2.6935;-5.9664;4.2425;0.0673;-0.2248;-0.0806
0001178035;-2.7892;-6.0765;4.3407;0.0715;-0.2350;-0.0993
0001178048;-2.6887;-5.9137;4.4772;0.0749;-0.2563;-0.1186
0001178057;-2.5570;-5.8442;4.4436;0.0801;-0.2709;-0.1399
0001178069;-2.4181;-5.8419;4.5346;0.0642;-0.2657;-0.1491
0001178078;-2.3535;-5.8897;4.5203;0.0637;-0.2639;-0.1533
0001178091;-2.1691;-5.9161;4.5083;0.0612;-0.2461;-0.1368
0001178100;-2.2793;-6.1675;4.5753;0.0484;-0.2194;-0.1143
0001178112;-2.4828;-6.1770;4.5562;0.0288;-0.1984;-0.0867
0001178121;-2.4636;-6.0837;4.6448;0.0238;-0.1819;-0.0480
0001178130;-2.7509;-5.9400;4.5777;0.0159;-0.1704;-0.0081
0001178197;-3.1747;-5.7868;4.8985;0.0027;-0.2922;0.1856
0001178206;-3.2441;-5.8371;5.0350;0.0261;-0.3064;0.1956
0001178218;-3.0263;-5.6048;5.1284;0.0441;-0.3188;0.1884
0001178227;-2.8778;-5.6431;5.0159;0.0514;-0.3087;0.1819
0001178240;-3.1101;-5.6719;5.0996;0.0654;-0.2956;0.1903
0001178249;-2.8754;-5.7604;5.1068;0.0833;-0.2654;0.2072
0001178261;-3.1388;-5.6958;5.1020;0.1126;-0.2297;0.2353
0001178270;-3.1532;-5.6407;5.1858;0.1298;-0.2068;0.2443
0001178279;-3.1795;-5.6240;5.1954;0.1400;-0.1900;0.2497
0001178292;-3.3926;-5.5354;5.3678;0.1563;-0.2005;0.2459
0001178301;-3.8690;-5.6383;5.8490;0.1643;-0.2261;0.2425
0001178313;-3.8283;-5.7964;6.2441;0.1793;-0.2494;0.2473
0001178322;-3.9648;-5.7700;6.5362;0.1997;-0.2657;0.2539
0001178335;-4.0079;-6.0454;6.6870;0.2385;-0.2372;0.2836
0001178344;-3.8666;-6.2058;6.3303;0.2653;-0.2025;0.2979
0001178356;-4.2617;-6.2321;6.1196;0.2631;-0.1667;0.3359
0001178365;-4.8147;-5.6048;6.2417;0.2565;-0.1700;0.3738
0001178374;-5.2648;-4.5681;6.2608;0.2282;-0.2128;0.3968
0001178387;-5.1571;-3.4812;6.9408;0.1717;-0.2751;0.3513
0001178396;-4.5370;-3.3806;6.7445;0.1088;-0.2795;0.3062
0001178408;-3.7254;-4.2377;6.1675;0.0297;-0.2872;0.2393
0001178417;-3.2729;-4.5442;6.1483;-0.0020;-0.3007;0.2248
0001178484;-0.8308;-5.4803;5.2289;-0.0108;-0.3588;0.2064
0001178493;-0.8619;-5.3678;5.2074;-0.0119;-0.3427;0.2054
0001178505;-0.9601;-5.2289;5.3079;-0.0297;-0.3234;0.1916
0001178514;-0.9697;-5.4827;5.3319;-0.0397;-0.3103;0.1748
0001178527;-1.3647;-5.8658;5.2625;-0.0429;-0.3024;0.1382
0001178536;-1.1636;-5.6120;5.1499;-0.0421;-0.2890;0.1023
0001178545;-1.0894;-5.6312;5.1188;-0.0345;-0.2848;0.0572
0001178557;-1.2474;-5.8371;5.1763;-0.0248;-0.2538;-0.0019
0001178566;-1.2163;-5.8179;5.0733;-0.0161;-0.2506;-0.0378
0001178579;-0.8619;-5.6503;4.8985;0.0008;-0.2427;-0.0869
0001178588;-0.9697;-5.6814;4.9273;0.0085;-0.2180;-0.1057
0001178600;-0.7805;-5.6407;5.0111;0.0277;-0.2045;-0.1374
0001178609;-1.0558;-5.7557;5.0302;0.0502;-0.1855;-0.1488
0001178622;-0.9840;-5.6551;4.9728;0.0589;-0.1885;-0.1605
0001178631;-1.1827;-5.8945;5.0015;0.0713;-0.1799;-0.1643
0001178643;-1.2234;-5.9185;4.9536;0.0761;-0.1685;-0.1565
0001178652;-1.2641;-5.8203;5.0733;0.0877;-0.1764;-0.1424
0001178661;-1.1875;-5.6455;5.1020;0.0942;-0.1785;-0.1288
0001178674;-1.0965;-5.5450;5.1068;0.1103;-0.1643;-0.1003
0001178683;-1.0894;-5.6455;4.9608;0.1021;-0.1763;-0.1062
0001178695;-0.7733;-5.3558;5.1380;0.1014;-0.1915;-0.1151
0001178704;-0.9505;-5.4396;5.1954;0.0922;-0.1715;-0.0983
0001178771;-0.5746;-5.3391;5.2122;0.0248;-0.0699;-0.1275
0001178780;-0.6177;-5.5186;5.1427;0.0215;-0.0508;-0.1302
0001178792;-0.5363;-5.5426;5.2265;0.0305;-0.0109;-0.1202
0001178801;-1.0343;-5.9161;5.2672;0.0349;0.0080;-0.1163
0001178810;-0.7829;-5.7150;5.2672;0.0420;0.0216;-0.1071
0001178823;-0.9266;-5.4851;5.3965;0.0237;0.0572;-0.1082
0001178832;-0.6728;-5.1834;5.3486;0.0064;0.0690;-0.0926
0001178844;-1.1827;-4.9512;5.3774;-0.0254;0.1087;-0.0841
0001178853;-1.1875;-4.8674;5.3319;-0.0521;0.1003;-0.0882
0001178866;-1.4030;-4.8028;5.4205;-0.1021;0.1232;-0.0554
0001178875;-1.1971;-4.9416;5.3750;-0.1270;0.0994;-0.0481
0001178887;-1.0223;-4.9895;5.5043;-0.1716;0.0787;-0.0212
0001178896;-1.4629;-5.2361;5.4037;-0.1884;0.0981;-0.0187
0001178909;-1.2665;-5.2840;5.4803;-0.2029;0.0878;0.0121
0001178918;-1.4293;-5.4205;5.4731;-0.2141;0.0679;0.0340
0001178927;-1.4389;-5.4492;5.5809;-0.2206;0.0438;0.0321
0001178939;-0.9337;-5.4731;5.6192;-0.2232;0.0360;0.0229
0001178948;-0.7997;-5.5426;5.6479;-0.2298;0.0573;0.0297
0001178961;-0.8452;-5.5713;5.3965;-0.2129;0.0919;0.0306
0001178970;-0.8308;-5.7245;5.4755;-0.2000;0.1021;0.0469
0001178982;-0.8452;-5.8107;5.4300;-0.1803;0.1123;0.0432
0001178991;-1.1013;-5.9065;5.4300;-0.1579;0.1100;0.0390
0001179058;-1.6448;-5.7174;5.6168;-0.1202;0.0663;-0.0442
0001179067;-1.5921;-5.5641;5.6360;-0.1328;0.0747;-0.0522
0001179076;-1.4748;-5.5043;5.7269;-0.1406;0.0865;-0.0450
0001179088;-1.7573;-5.6838;5.6240;-0.1451;0.0616;-0.0517
0001179097;-1.8914;-6.0908;5.6096;-0.1551;0.0745;-0.0364
0001179110;-1.7430;-5.8778;5.5067;-0.1533;0.0582;-0.0183
0001179119;-1.8842;-5.9951;5.4444;-0.1508;0.0445;-0.0151
0001179131;-1.6855;-5.8682;5.4588;-0.1432;0.0392;-0.0112
0001179140;-1.6927;-5.8107;5.5067;-0.1494;0.0462;0.0063
0001179154;-1.9082;-5.8802;5.4755;-0.1523;0.0490;0.0049
0001179163;-1.9273;-5.5522;5.5138;-0.1587;0.0305;-0.0056
0001179176;-2.1141;-5.6096;5.5162;-0.1819;0.0216;-0.0269
0001179185;-2.0351;-5.5138;5.5354;-0.1923;0.0076;-0.0510
0001179194;-2.1572;-5.6024;5.6551;-0.2012;-0.0001;-0.0654
0001179206;-1.9321;-5.7078;5.4660;-0.2112;-0.0141;-0.0875
0001179215;-1.9369;-5.7724;5.5067;-0.2126;-0.0055;-0.1053
0001179228;-1.8675;-5.9448;5.3151;-0.2048;0.0023;-0.1264
0001179237;-1.9656;-6.0310;5.2577;-0.1993;-0.0044;-0.1387
0001179249;-2.1907;-6.1435;5.2505;-0.1883;-0.0120;-0.1370
0001179258;-2.0327;-5.9280;5.2074;-0.1871;-0.0216;-0.1222
0001179271;-2.3152;-5.8945;5.1787;-0.1883;-0.0581;-0.1087
0001179280;-2.4134;-5.8849;5.1978;-0.1976;-0.0803;-0.0957
0001179348;-2.2936;-6.0980;5.1763;-0.3071;-0.1359;-0.1260
0001179357;-2.1213;-5.9711;5.2265;-0.3227;-0.1368;-0.1009
0001179366;-2.0806;-5.9807;5.1882;-0.3312;-0.1503;-0.0822
0001179379;-1.8890;-6.0837;5.1092;-0.3297;-0.1512;-0.0528
0001179388;-1.7023;-6.1220;5.0901;-0.3369;-0.1512;-0.0442
0001179398;-2.0159;-6.3398;4.9847;-0.3351;-0.1486;-0.0269
0001179406;-2.0279;-6.3566;5.0542;-0.3464;-0.1311;-0.0101
0001179418;-2.0183;-6.4021;4.9464;-0.3467;-0.1198;0.0161
0001179426;-2.2362;-6.5170;4.9680;-0.3372;-0.1284;0.0356
0001179437;-2.1955;-6.4069;5.0278;-0.3351;-0.1407;0.0694
