time;acc_x;acc_y;acc_z;gyro_x;gyro_y;gyro_z
0000927274;5.3295;1.0630;2.5594;0.4315;0.3953;-0.0691
0000927282;4.8770;1.4461;2.9401;0.4246;0.2844;-0.1235
0000927289;4.7333;2.1069;3.0837;0.4072;0.1653;-0.1780
0000927297;4.5657;2.7438;3.2370;0.3425;0.0290;-0.2273
0000927306;4.0438;3.6081;3.3184;0.2441;-0.1506;-0.2940
0000927314;3.8331;4.3598;3.3303;0.1399;-0.3168;-0.3400
0000927322;3.6703;5.0087;3.3686;0.0313;-0.4890;-0.3617
0000927334;3.2944;5.4827;3.3830;-0.1324;-0.7506;-0.3653
0000927342;3.3519;5.6216;3.5219;-0.2494;-0.9150;-0.3119
0000927353;3.5075;4.9919;3.7110;-0.3857;-1.1313;-0.2005
0000927361;4.1180;4.4341;3.9911;-0.4530;-1.2140;-0.0909
0000927373;5.5641;3.5769;4.2760;-0.5077;-1.2209;0.0624
0000927381;6.6774;2.6240;4.3072;-0.5336;-1.1490;0.1331
0000927392;9.0261;2.0255;4.4221;-0.5203;-0.9655;0.1936
0000927400;10.1418;1.2522;4.6136;-0.4763;-0.7582;0.2054
0000927408;11.2982;0.7494;4.8578;-0.3850;-0.5247;0.1787
0000927420;12.0620;0.1724;4.6855;-0.2028;-0.1195;0.1427
0000927428;12.3661;0.1652;4.2377;-0.0699;0.1366;0.1424
0000927495;4.2641;2.6935;2.4062;0.3480;0.6206;0.2030
0000927503;3.7397;2.8156;2.2889;0.3060;0.5100;0.1982
0000927515;3.4357;3.1484;2.1644;0.2182;0.3210;0.1868
0000927523;3.2729;3.2154;2.0614;0.1475;0.1892;0.1620
0000927531;3.8068;3.4189;2.2242;0.0665;0.0649;0.1294
0000927542;4.5179;3.3064;2.7366;-0.0165;-0.0340;0.0706
0000927550;5.1547;3.1963;2.8683;-0.0362;-0.0785;0.0119
0000927562;6.2106;3.2585;3.0239;-0.0826;-0.0873;-0.0432
0000927570;7.0557;3.1747;3.2106;-0.1063;-0.0605;-0.0711
0000927581;7.7979;3.1077;3.1795;-0.1388;0.0031;-0.1220
0000927589;8.0373;2.9257;3.2705;-0.1596;0.0694;-0.1492
0000927601;8.1762;2.6743;3.2370;-0.1851;0.1779;-0.1623
0000927609;7.9200;2.2194;3.2082;-0.1877;0.2461;-0.1547
0000927617;7.9487;2.0375;3.2513;-0.1835;0.3115;-0.1411
0000927628;7.7692;2.0614;3.1723;-0.1483;0.3945;-0.1114
0000927636;7.7189;1.9992;3.1891;-0.1176;0.4443;-0.0830
0000927648;7.1587;2.0231;3.2489;-0.0644;0.4948;-0.0408
0000927656;6.6990;1.8938;3.2753;-0.0328;0.5252;-0.0059
0000927667;6.2321;2.1452;3.3423;0.0084;0.5181;0.0236
0000927675;6.1507;2.2841;3.3854;0.0188;0.5079;0.0476
0000927683;5.8395;2.5809;3.4333;0.0172;0.4868;0.0719
0000927695;5.7389;2.7222;3.3878;-0.0077;0.4608;0.1136
0000927703;5.8275;2.8228;3.3303;-0.0400;0.4367;0.1432
0000927767;7.0126;2.9185;3.5362;-0.1519;0.5858;0.1760
0000927775;6.8354;2.9592;3.4716;-0.1724;0.6331;0.1623
0000927787;6.6966;2.9113;3.4405;-0.1767;0.7057;0.1254
0000927795;6.6343;2.9018;3.5530;-0.1913;0.7501;0.1075
0000927803;6.4859;2.6336;3.5530;-0.1876;0.7657;0.0815
0000927814;6.3949;2.7054;3.4213;-0.1892;0.7722;0.0685
0000927822;6.1531;2.4972;3.2825;-0.1827;0.7489;0.0540
0000927834;5.8059;2.4541;3.0646;-0.2050;0.7005;0.0534
0000927842;5.4660;2.1811;3.1053;-0.2285;0.6500;0.0581
0000927853;5.2529;2.3128;3.1915;-0.2352;0.5692;0.0438
0000927861;4.9632;2.1069;3.2537;-0.2249;0.5056;0.0448
0000927869;5.0925;2.2410;3.2106;-0.2200;0.4355;0.0364
0000927881;4.7645;1.8627;3.4620;-0.1791;0.3297;0.0128
0000927889;4.7405;1.7358;3.6296;-0.1376;0.2613;-0.0045
0000927900;4.8674;1.7861;3.5219;-0.0879;0.1880;-0.0226
0000927908;4.9704;1.8531;3.3639;-0.0584;0.1251;-0.0506
0000927920;5.5330;1.9992;3.2106;-0.0314;0.0534;-0.0931
0000927928;5.4181;1.9537;3.1915;-0.0195;0.0073;-0.0962
0000927936;5.4444;1.8962;3.1101;-0.0100;-0.0306;-0.0830
0000927947;5.5929;2.0494;3.0263;0.0147;-0.0853;-0.0642
0000927955;5.6120;2.0470;3.0526;0.0278;-0.1134;-0.0604
0000927967;5.7820;2.2386;2.9401;0.0233;-0.1368;-0.0661
0000927975;6.0406;2.3750;2.8922;0.0140;-0.1515;-0.0842
0000928042;6.2608;2.6791;3.4596;-0.0123;-0.1567;-0.0628
0000928050;6.2130;2.5977;3.5769;-0.0079;-0.1591;-0.0781
0000928062;6.0358;2.3942;3.5769;-0.0052;-0.1613;-0.0869
0000928070;5.9975;2.3774;3.6416;0.0053;-0.1740;-0.0863
0000928078;5.7700;2.3894;3.5793;-0.0023;-0.1921;-0.0718
0000928089;5.7700;2.4924;3.5602;-0.0265;-0.2042;-0.0558
0000928097;5.7221;2.3559;3.6009;-0.0497;-0.2100;-0.0532
0000928109;6.0861;2.4636;3.6871;-0.0778;-0.2197;-0.0648
0000928117;6.1675;2.3894;3.8283;-0.0841;-0.2057;-0.0723
0000928128;6.3925;2.2505;3.8906;-0.0793;-0.1721;-0.0831
0000928136;6.2537;2.1356;3.8858;-0.0814;-0.1428;-0.0857
0000928148;6.3782;2.2482;3.7709;-0.0834;-0.1053;-0.0829
0000928156;6.2489;2.1548;3.8044;-0.0851;-0.0827;-0.0699
0000928164;6.5290;2.2146;3.8020;-0.0795;-0.0711;-0.0557
0000928175;6.1866;2.1069;3.7972;-0.0642;-0.0420;-0.0224
0000928183;6.1244;2.1284;3.8858;-0.0572;-0.0221;-0.0052
0000928195;6.2297;2.2960;3.8020;-0.0282;-0.0071;0.0085
0000928203;6.1962;2.2146;3.7326;-0.0215;0.0105;0.0191
0000928214;6.0382;2.2913;3.7828;-0.0029;0.0072;0.0196
0000928222;5.8826;2.3080;3.7326;0.0017;0.0144;0.0092
0000928230;5.9065;2.3990;3.6152;0.0045;0.0143;0.0007
0000928242;6.0789;2.6145;3.6105;-0.0048;0.0093;-0.0112
0000928250;5.8873;2.4086;3.5578;-0.0117;-0.0003;-0.0269
0000928317;5.6934;2.2362;3.3830;-0.0284;-0.0545;-0.0176
0000928325;5.8179;2.3415;3.3926;-0.0213;-0.0727;-0.0200
0000928337;5.9687;2.4876;3.3543;-0.0246;-0.0794;-0.0125
0000928345;5.9807;2.3200;3.3447;-0.0232;-0.0807;-0.0117
0000928356;6.0190;2.3966;3.5123;-0.0336;-0.0770;-0.0023
0000928364;6.1507;2.3703;3.4884;-0.0318;-0.0814;-0.0083
0000928372;6.0837;2.3990;3.4117;-0.0389;-0.0797;0.0013
0000928384;6.1914;2.5259;3.4141;-0.0458;-0.0770;0.0025
0000928392;6.1962;2.3703;3.5721;-0.0492;-0.0779;0.0060
0000928403;6.0501;2.4469;3.5913;-0.0546;-0.0687;0.0141
0000928411;6.2560;2.5714;3.5482;-0.0554;-0.0734;0.0097
0000928423;5.8826;2.2170;3.5985;-0.0504;-0.0762;0.0033
0000928431;5.9592;2.1883;3.5793;-0.0458;-0.0803;0.0073
0000928442;6.0334;2.2936;3.6368;-0.0494;-0.0775;0.0111
0000928450;6.0621;2.2482;3.6607;-0.0318;-0.0897;0.0057
0000928458;5.9783;2.1715;3.5961;-0.0264;-0.0867;0.0169
0000928470;5.8754;1.9848;3.6536;-0.0228;-0.0899;0.0211
0000928478;6.1124;2.3224;3.7876;-0.0107;-0.0934;0.0224
0000928489;5.9448;2.1979;3.6990;-0.0064;-0.0951;0.0273
0000928497;6.1172;2.2194;3.7254;-0.0045;-0.0995;0.0222
0000928509;6.2656;2.3272;3.7254;0.0019;-0.0978;0.0221
0000928517;6.2010;2.2936;3.7062;0.0048;-0.0927;0.0237
0000928525;6.1627;2.3248;3.6200;-0.0064;-0.0865;0.0250
0000928592;6.3303;2.3224;3.5698;-0.0103;-0.0831;0.0012
0000928600;6.1483;2.3727;3.5937;-0.0141;-0.0822;-0.0019
0000928612;6.0813;2.3439;3.5314;-0.0191;-0.0865;-0.0063
0000928620;6.0861;2.2098;3.6416;-0.0224;-0.0919;-0.0059
0000928631;6.0238;2.2625;3.6081;-0.0298;-0.1030;-0.0108
0000928639;6.2632;2.3296;3.7373;-0.0284;-0.1077;-0.0151
0000928651;6.1914;2.3727;3.6919;-0.0278;-0.1074;-0.0140
0000928659;6.2800;2.2482;3.6033;-0.0200;-0.1126;-0.0147
0000928667;6.2968;2.1715;3.6583;-0.0228;-0.1120;-0.0125
0000928679;6.3782;2.3798;3.7062;-0.0180;-0.1155;-0.0157
0000928687;6.2896;2.1117;3.6440;-0.0261;-0.1090;-0.0135
0000928698;6.2584;2.2290;3.7254;-0.0228;-0.1071;-0.0171
0000928706;6.2177;2.2290;3.7278;-0.0179;-0.1162;-0.0183
0000928718;6.3087;2.2314;3.7182;-0.0176;-0.1170;-0.0165
0000928726;6.2896;2.2936;3.7661;-0.0099;-0.1191;-0.0192
0000928737;6.3734;2.3559;3.6823;-0.0136;-0.1176;-0.0152
0000928745;6.2824;2.3367;3.6895;-0.0052;-0.1196;-0.0218
0000928753;6.3446;2.4181;3.7230;-0.0060;-0.1208;-0.0195
0000928765;6.0669;2.1069;3.7565;-0.0017;-0.1256;-0.0244
0000928773;6.1675;2.2290;3.7613;-0.0048;-0.1259;-0.0208
0000928840;6.3183;2.3870;3.6248;-0.0164;-0.1324;-0.0268
0000928848;6.2752;2.2146;3.6296;-0.0155;-0.1347;-0.0357
0000928860;6.3135;2.3463;3.6440;-0.0076;-0.1376;-0.0421
0000928868;6.3063;2.4421;3.6607;-0.0161;-0.1323;-0.0361
0000928879;6.1890;2.2673;3.6416;-0.0160;-0.1416;-0.0408
0000928887;6.2800;2.1404;3.6272;-0.0236;-0.1300;-0.0384
0000928895;6.2489;2.3367;3.6129;-0.0241;-0.1303;-0.0402
0000928907;6.1579;2.3439;3.5386;-0.0284;-0.1228;-0.0392
0000928915;6.5434;2.4253;3.6512;-0.0286;-0.1222;-0.0381
0000928926;6.3015;2.1261;3.6440;-0.0264;-0.1104;-0.0289
0000928934;6.3614;2.3248;3.7014;-0.0278;-0.1067;-0.0313
0000928946;6.6463;2.3966;3.6248;-0.0220;-0.0982;-0.0260
0000928954;6.4596;2.2505;3.6368;-0.0195;-0.0963;-0.0264
0000928965;6.2584;2.1715;3.7278;-0.0188;-0.0905;-0.0233
0000928973;6.2465;2.3032;3.7038;-0.0167;-0.0861;-0.0261
0000928981;6.1986;2.1979;3.7397;-0.0084;-0.0897;-0.0248
0000928993;6.3566;2.2242;3.7804;-0.0099;-0.0889;-0.0197
0000929001;6.2082;2.2482;3.7062;-0.0027;-0.0869;-0.0192
0000929012;6.1052;2.1715;3.8475;0.0052;-0.0855;-0.0115
0000929020;6.2608;2.1261;3.8140;0.0039;-0.0830;-0.0080
0000929032;6.4739;2.2697;3.7661;0.0112;-0.0941;-0.0055
0000929040;6.1579;2.1668;3.8331;0.0104;-0.0953;0.0020
0000929107;6.2560;2.1284;3.8858;0.0290;-0.1242;-0.0024
0000929115;6.3183;2.1165;3.9313;0.0357;-0.1246;-0.0005
0000929123;6.3542;2.1213;4.0294;0.0392;-0.1234;0.0011
0000929135;6.2560;2.0758;3.9600;0.0508;-0.1276;0.0037
0000929143;6.2177;1.8771;4.0797;0.0630;-0.1346;0.0004
0000929154;6.4212;2.0446;4.0007;0.0783;-0.1379;0.0051
0000929162;6.2537;1.8914;4.0989;0.0913;-0.1383;0.0028
0000929174;6.4739;2.0710;4.1779;0.1199;-0.1476;0.0076
0000929182;6.4859;2.0016;4.2114;0.1276;-0.1452;0.0104
0000929190;6.2896;1.8459;4.1396;0.1415;-0.1488;0.0065
0000929201;6.3207;1.9585;4.1707;0.1514;-0.1488;0.0137
0000929209;6.4859;2.1404;4.1994;0.1593;-0.1635;0.0132
0000929221;6.3638;1.9369;4.1539;0.1593;-0.1500;0.0220
0000929229;6.4524;1.9130;4.2473;0.1659;-0.1482;0.0203
0000929240;6.4979;1.9513;4.3503;0.1801;-0.1447;0.0244
0000929248;6.4979;1.8651;4.3981;0.1996;-0.1410;0.0285
0000929256;6.6942;1.9465;4.3574;0.2178;-0.1392;0.0254
0000929268;6.6008;1.8316;4.6064;0.2340;-0.1211;0.0293
0000929276;6.4859;1.8316;4.6088;0.2458;-0.1202;0.0293
0000929287;6.5457;2.0423;4.6017;0.2507;-0.1114;0.0345
0000929295;6.6080;2.0351;4.6926;0.2399;-0.1011;0.0492
0000929307;6.6607;2.0207;4.7573;0.2378;-0.0961;0.0510
0000929315;6.6822;2.0303;4.7740;0.2314;-0.0797;0.0578
0000929323;6.8474;2.0231;4.8578;0.2361;-0.0738;0.0612
0000929390;6.7062;1.3527;5.3271;0.3208;-0.0217;0.1010
0000929398;6.7708;1.3455;5.3558;0.3135;-0.0172;0.0959
0000929410;6.5960;1.3096;5.4947;0.2730;-0.0107;0.0903
0000929418;6.8019;1.3862;5.4061;0.2491;-0.0201;0.0795
0000929429;6.7516;1.2115;5.5929;0.1868;-0.0246;0.0859
0000929437;6.8498;1.0822;5.6814;0.1379;-0.0357;0.0814
0000929445;6.8211;0.9242;5.7174;0.0813;-0.0526;0.0714
0000929457;6.9576;0.5148;5.6288;-0.0272;-0.0588;0.0541
0000929465;6.9647;0.2346;5.5282;-0.1100;-0.0636;0.0237
0000929476;6.7133;-0.4286;5.2888;-0.2281;-0.0648;-0.0369
0000929484;6.6702;-0.8045;4.9799;-0.3344;-0.0477;-0.0853
0000929496;6.7588;-1.5850;4.1970;-0.5172;-0.0047;-0.1958
0000929504;6.9001;-2.1548;3.5554;-0.6492;0.0382;-0.2875
0000929515;7.0006;-2.8635;2.6097;-0.8394;0.1279;-0.4060
0000929523;7.1371;-3.1627;2.1021;-0.9510;0.2185;-0.4856
0000929531;7.2616;-3.2729;1.8651;-0.9777;0.2996;-0.5449
0000929543;7.2568;-3.6607;1.4461;-0.9561;0.4247;-0.5898
0000929551;7.2329;-3.8092;0.9744;-0.9638;0.5087;-0.5962
0000929562;7.1874;-3.9265;-0.0958;-1.0312;0.6263;-0.5812
0000929570;6.7301;-3.9504;-0.7614;-1.1107;0.7099;-0.5576
0000929582;6.2153;-4.0151;-1.7909;-1.2340;0.7635;-0.5361
0000929590;6.3710;-3.9552;-2.2769;-1.2990;0.7265;-0.5377
0000929657;5.8227;-5.1978;-1.9872;-1.2031;0.2793;-0.7754
0000929665;5.5665;-5.5569;-1.1827;-1.1086;0.2662;-0.7168
0000929677;5.3534;-5.8730;-0.2969;-0.9642;0.2683;-0.5953
0000929685;5.3415;-5.9927;0.3903;-0.8922;0.2819;-0.4926
0000929693;5.1691;-6.3686;1.0175;-0.9096;0.3006;-0.3684
0000929704;5.4516;-6.2896;2.2649;-0.9970;0.3275;-0.2253
0000929712;5.5306;-6.1172;3.6655;-0.9922;0.2936;-0.1728
0000929724;5.3917;-5.7245;6.0669;-0.6821;0.2537;-0.1279
0000929732;5.4420;-4.6902;6.9001;-0.2690;0.2998;-0.1319
0000929743;4.9392;-3.2274;6.6295;0.3985;0.3790;-0.1789
0000929751;4.5705;-1.8603;5.2098;0.7754;0.3587;-0.2767
0000929763;3.8188;1.8387;2.8539;0.9770;0.2430;-0.3399
0000929771;3.1077;4.9967;1.2282;0.8180;0.0240;-0.1720
0000929779;2.9832;7.6806;-0.1748;0.3613;-0.3244;0.1912
0000929790;3.9911;8.6766;0.9409;-0.5564;-0.6744;0.6933
0000929798;5.4731;7.3406;3.9337;-0.8679;-0.7962;0.7811
0000929810;7.5082;3.5291;8.4084;-0.5179;-0.8354;0.4596
0000929818;7.6112;-0.0742;10.2065;0.0570;-0.7238;0.2274
0000929829;7.1611;-4.7142;9.8162;0.8488;-0.6142;0.1452
0000929837;6.9839;-6.8881;8.3917;1.3372;-0.5937;0.1901
0000929845;7.3885;-7.7931;7.7812;1.6433;-0.5291;0.2026
0000929857;7.3215;-7.8362;5.2936;2.1322;-0.2956;0.0853
0000929865;7.7093;-6.3159;3.2585;2.5418;-0.0093;-0.1025
0000929932;3.7254;4.7764;1.4868;3.4959;0.0911;-1.2143
0000929940;4.4508;3.7230;1.3120;3.8641;0.0722;-1.2029
0000929952;6.1411;4.4149;1.3647;4.3656;0.1940;-1.1559
0000929960;6.3829;6.8211;1.0439;4.3656;0.3194;-1.0611
0000929968;6.4045;9.1770;0.3615;4.3656;0.3772;-0.9395
0000929979;5.8778;10.5369;0.2777;4.2876;0.3765;-0.7666
0000929987;5.7748;9.5481;1.0343;4.0834;0.4281;-0.6422
0000929999;5.7293;6.4859;0.1939;3.9007;0.5804;-0.5684
0000930007;5.5162;4.6424;-0.7015;3.8745;0.6359;-0.6254
0000930018;4.9392;3.2154;-0.7159;4.0012;0.6181;-0.7691
0000930026;4.6591;2.3918;-0.7015;4.1527;0.5901;-0.8884
0000930038;3.5602;2.4421;-0.7829;4.3026;0.5533;-1.0901
0000930046;2.1955;4.3383;-2.3200;4.3531;0.5978;-1.2063
0000930054;0.2634;8.1427;-4.9153;4.3656;0.7228;-1.1530
0000930066;-3.7804;20.0634;-10.3645;4.3656;0.7294;-0.7101
0000930074;-12.0309;39.8563;-18.9214;4.3656;1.0842;-0.1440
0000930085;-48.0540;78.4508;-44.8027;4.3656;2.8746;3.0269
0000930093;9.4475;14.8608;0.3615;4.3656;0.9539;1.7869
0000930105;19.6133;-3.7493;-6.2656;1.4008;-0.1989;0.1664
0000930113;16.2662;-2.9113;-7.2329;1.5180;0.1522;-0.8332
0000930125;12.6198;-1.7047;-7.8362;3.6968;0.1480;-2.1466
0000930133;12.6773;0.5938;-6.6822;4.1375;-0.2679;-2.6510
0000930141;10.4172;4.2066;-5.5929;3.0720;-0.1053;-2.8421
0000930209;6.4596;-5.6120;-1.3336;0.3056;1.3395;-0.2144
0000930217;4.5897;-4.5873;-2.7821;2.4916;1.4337;-0.4334
0000930228;3.7158;-2.9090;-7.6136;4.3656;1.1568;-0.6322
0000930236;5.3415;-2.1763;-12.8569;3.9770;0.8344;-0.7241
0000930248;3.2801;-0.3639;-18.4138;1.7637;1.3225;-0.5541
0000930256;3.0861;-1.2330;-16.0771;1.0519;1.2509;-0.4375
0000930267;4.1108;-2.8563;-14.0468;0.9779;0.8041;-0.4506
0000930275;4.5418;-3.2130;-13.3812;0.9820;0.6883;-0.4910
0000930287;3.2705;-1.8842;-12.3876;0.7117;0.5665;-0.3793
0000930295;2.7174;-0.8882;-11.3030;0.5347;0.4764;-0.1624
0000930303;2.7845;-0.6823;-10.3070;0.4142;0.3557;0.0103
0000930314;3.4141;-1.1684;-9.3206;0.2734;0.1604;0.1244
0000930322;3.4812;-1.7621;-8.9064;0.2070;0.0785;0.1280
0000930334;3.5482;-2.2721;-8.6886;0.1680;0.0322;0.1402
0000930342;3.7421;-2.0351;-8.4204;0.1924;0.0614;0.1492
0000930353;3.7038;-1.3575;-8.7005;0.1745;0.0923;0.1827
0000930361;4.0007;-0.9744;-8.7436;0.1242;0.0939;0.2048
0000930369;4.5322;-0.9649;-8.7101;0.0444;0.0830;0.1803
0000930381;4.2976;-1.4006;-8.0900;0.0099;0.0644;0.1163
0000930389;3.9624;-1.6951;-7.9511;-0.0031;0.0691;0.0986
0000930401;3.5626;-2.1907;-8.3965;-0.0617;0.0993;0.1246
0000930409;3.5195;-2.4134;-8.4228;-0.0877;0.0898;0.1390
0000930477;4.6040;-1.4413;-8.7412;0.0039;0.1787;0.0288
0000930485;4.7285;-1.4629;-9.3350;0.0408;0.1856;0.0196
0000930496;4.6376;-1.3048;-9.6271;0.0421;0.1767;0.0332
0000930504;4.0031;0.1365;-9.6917;-0.0594;0.1182;0.0529
0000930512;4.4245;-0.1053;-8.9208;-0.1104;0.1073;0.0597
0000930524;4.5011;-0.1915;-8.5186;-0.1589;0.1104;0.0542
0000930532;4.3598;-0.4142;-8.4276;-0.2166;0.0863;0.0557
0000930543;4.5873;-0.2490;-7.8530;-0.2626;0.0352;0.0642
0000930551;4.7333;-0.2418;-7.4531;-0.2745;0.0108;0.0650
0000930563;4.7932;0.0599;-7.3382;-0.2665;-0.0060;0.0504
0000930571;4.5586;-0.1077;-7.3598;-0.2598;-0.0173;0.0418
0000930582;4.4532;-0.1772;-7.6543;-0.2862;-0.0413;0.0557
0000930590;4.7285;0.0694;-7.5681;-0.3204;-0.0469;0.0713
0000930598;4.4365;-0.1077;-7.8362;-0.3472;-0.0552;0.0909
0000930610;4.7094;-0.0192;-7.4651;-0.3836;-0.0504;0.0806
0000930618;4.8698;0.2945;-7.1587;-0.3691;-0.0648;0.0606
0000930629;4.6639;0.1963;-7.1132;-0.3437;-0.0636;0.0436
0000930637;4.5705;0.2394;-7.0605;-0.3305;-0.0558;0.0386
0000930649;4.5250;0.1700;-7.2353;-0.3132;-0.0482;0.0533
0000930657;4.4700;-0.0335;-7.2999;-0.3152;-0.0472;0.0512
0000930669;4.6448;0.2538;-7.3622;-0.3206;-0.0361;0.0408
0000930677;4.7166;0.3280;-7.4460;-0.3351;-0.0328;0.0313
0000930745;4.5490;0.3663;-7.0246;-0.3372;-0.0237;0.0172
0000930753;4.5322;0.2801;-6.9121;-0.3312;-0.0222;0.0067
0000930761;4.5203;0.3807;-6.9839;-0.3328;-0.0135;0.0084
0000930772;4.5969;0.4022;-7.0701;-0.3325;-0.0117;0.0019
0000930780;4.6352;0.4741;-7.0246;-0.3356;-0.0073;-0.0057
0000930792;4.6807;0.5339;-6.8450;-0.3319;-0.0040;-0.0100
0000930800;4.6807;0.6177;-6.8474;-0.3191;-0.0016;-0.0187
0000930811;4.6926;0.4717;-6.7205;-0.2976;0.0040;-0.0245
0000930819;4.6519;0.5555;-6.7277;-0.2767;-0.0057;-0.0265
0000930831;4.2976;0.4597;-6.7445;-0.2689;-0.0119;-0.0230
0000930839;4.4772;0.4860;-6.9312;-0.2649;-0.0163;-0.0137
0000930847;4.7166;0.7111;-6.8067;-0.2635;-0.0180;-0.0076
0000930858;4.6328;0.5483;-6.8067;-0.2501;-0.0236;-0.0017
0000930866;4.4556;0.5076;-6.7421;-0.2502;-0.0139;0.0039
0000930878;4.5633;0.6345;-6.7612;-0.2429;-0.0254;0.0039
0000930886;4.6543;0.6536;-6.7971;-0.2354;-0.0302;0.0024
0000930897;4.6519;0.7901;-6.6990;-0.2198;-0.0420;-0.0045
0000930905;4.4484;0.6656;-6.8115;-0.2078;-0.0526;-0.0071
0000930917;4.6663;0.6680;-6.7708;-0.2022;-0.0514;0.0044
0000930925;4.5226;0.5866;-6.7086;-0.2038;-0.0497;0.0036
0000930933;4.6998;0.7925;-6.7636;-0.1980;-0.0522;0.0005
0000930945;4.7477;0.6680;-6.8354;-0.2021;-0.0504;0.0021
0000930953;4.6974;0.7518;-6.7062;-0.2073;-0.0433;0.0033
0000931021;4.6400;0.8835;-6.5721;-0.1860;-0.0540;-0.0061
0000931029;4.6160;0.7973;-6.5577;-0.1821;-0.0550;-0.0052
0000931040;4.7525;0.7949;-6.5721;-0.1811;-0.0526;-0.0029
0000931048;4.5059;0.7901;-6.6032;-0.1741;-0.0604;-0.0004
0000931060;4.5226;0.7518;-6.5529;-0.1715;-0.0494;0.0056
0000931068;4.5226;0.7877;-6.5745;-0.1649;-0.0534;0.0072
0000931079;4.6950;0.7805;-6.5673;-0.1664;-0.0438;0.0115
0000931087;4.8076;0.8595;-6.4260;-0.1620;-0.0378;0.0104
0000931095;4.6855;0.9529;-6.4739;-0.1592;-0.0344;0.0021
0000931107;4.5873;0.8212;-6.4308;-0.1561;-0.0384;0.0016
0000931115;4.6543;0.8380;-6.3901;-0.1487;-0.0442;-0.0112
0000931126;4.6256;0.9098;-6.4643;-0.1540;-0.0358;-0.0083
0000931134;4.6304;0.7829;-6.4356;-0.1468;-0.0438;-0.0101
0000931146;4.4580;0.9290;-6.3782;-0.1400;-0.0374;-0.0065
0000931154;4.7860;1.0534;-6.4643;-0.1292;-0.0412;-0.0091
0000931165;4.6855;1.0175;-6.3039;-0.1196;-0.0246;-0.0035
0000931173;4.5179;0.7781;-6.2345;-0.1031;-0.0314;-0.0063
0000931181;4.8076;1.0080;-6.4308;-0.1053;-0.0257;-0.0081
0000931193;4.5586;0.8212;-6.3542;-0.1021;-0.0382;-0.0180
0000931201;4.6495;0.8811;-6.4955;-0.1018;-0.0354;-0.0132
0000931213;4.4915;0.9792;-6.3231;-0.0963;-0.0442;-0.0193
0000931221;4.7956;1.0104;-6.3470;-0.0914;-0.0392;-0.0224
0000931289;4.7980;1.0750;-6.3758;-0.0541;-0.0508;-0.0028
0000931297;4.6040;1.0080;-6.3805;-0.0468;-0.0520;-0.0089
0000931308;4.4388;0.8212;-6.3638;-0.0444;-0.0492;-0.0057
0000931316;4.4963;0.8595;-6.3758;-0.0390;-0.0509;-0.0055
0000931328;4.6687;1.1636;-6.3327;-0.0481;-0.0457;-0.0016
0000931336;4.6687;0.8811;-6.3829;-0.0508;-0.0486;-0.0093
0000931344;4.5370;0.9553;-6.3901;-0.0422;-0.0545;-0.0131
0000931355;4.5538;0.8595;-6.4045;-0.0465;-0.0473;-0.0107
0000931363;4.6448;1.0247;-6.4955;-0.0464;-0.0496;-0.0151
0000931375;4.6017;0.9433;-6.4524;-0.0509;-0.0460;-0.0080
0000931383;4.6974;1.0558;-6.3494;-0.0552;-0.0480;-0.0100
0000931395;4.5801;0.9098;-6.4284;-0.0568;-0.0425;-0.0040
0000931403;4.5490;0.9361;-6.3566;-0.0588;-0.0414;-0.0079
0000931414;4.6831;0.9768;-6.3422;-0.0564;-0.0390;-0.0141
0000931422;4.5394;0.9026;-6.3997;-0.0541;-0.0358;-0.0097
0000931434;4.5562;0.9912;-6.3925;-0.0573;-0.0376;-0.0132
0000931442;4.7932;1.0534;-6.5027;-0.0582;-0.0396;-0.0089
0000931450;4.4460;0.9313;-6.3327;-0.0580;-0.0436;-0.0124
0000931462;4.4604;0.9649;-6.2584;-0.0440;-0.0540;-0.0039
0000931470;4.5490;0.9050;-6.3518;-0.0457;-0.0472;0.0056
0000931482;4.5801;0.8260;-6.3327;-0.0422;-0.0477;0.0020
0000931490;4.5873;1.0582;-6.3087;-0.0418;-0.0474;0.0044
0000931557;4.8243;1.1253;-6.3303;-0.0409;-0.0373;-0.0067
0000931565;4.5131;1.0199;-6.1986;-0.0378;-0.0270;-0.0049
0000931577;4.4173;0.7685;-6.3398;-0.0342;-0.0297;-0.0156
0000931585;4.6615;1.1085;-6.3183;-0.0348;-0.0268;-0.0109
0000931596;4.7070;1.0295;-6.3159;-0.0289;-0.0305;-0.0135
0000931604;4.7669;1.0582;-6.3638;-0.0381;-0.0284;-0.0076
0000931612;4.8291;1.1205;-6.3949;-0.0368;-0.0317;-0.0145
0000931624;4.6591;1.0534;-6.3303;-0.0421;-0.0341;-0.0112
0000931632;4.7836;1.1301;-6.4021;-0.0421;-0.0346;-0.0217
0000931643;4.5825;0.9409;-6.2680;-0.0452;-0.0304;-0.0105
0000931651;4.7309;1.0367;-6.2704;-0.0469;-0.0328;-0.0131
0000931663;4.6376;1.0702;-6.3614;-0.0456;-0.0294;-0.0077
0000931671;4.6783;1.1516;-6.3470;-0.0486;-0.0336;-0.0132
0000931682;4.7860;1.0726;-6.3255;-0.0472;-0.0357;-0.0179
0000931690;4.6448;1.0199;-6.3422;-0.0462;-0.0324;-0.0164
0000931698;4.6759;1.0630;-6.2872;-0.0496;-0.0301;-0.0120
0000931710;4.8435;1.1109;-6.2776;-0.0480;-0.0325;-0.0101
0000931718;4.4556;0.7997;-6.2968;-0.0450;-0.0302;-0.0100
0000931729;4.6471;0.9864;-6.2393;-0.0398;-0.0380;-0.0129
0000931737;4.5825;0.9361;-6.1770;-0.0394;-0.0392;-0.0184
0000931749;4.6184;0.9816;-6.2872;-0.0330;-0.0382;-0.0224
0000931757;4.7621;1.2282;-6.3207;-0.0289;-0.0365;-0.0188
0000931824;4.7238;1.1444;-6.2991;-0.0260;-0.0426;-0.0252
0000931832;4.6902;1.0080;-6.3327;-0.0249;-0.0464;-0.0272
0000931844;4.7908;1.1636;-6.3494;-0.0338;-0.0425;-0.0240
0000931852;4.8052;1.1803;-6.2489;-0.0332;-0.0414;-0.0217
0000931860;4.4963;1.0247;-6.3111;-0.0314;-0.0437;-0.0215
0000931872;4.4580;0.9768;-6.2752;-0.0349;-0.0464;-0.0261
0000931880;4.7525;1.1516;-6.3566;-0.0381;-0.0460;-0.0203
0000931892;4.7142;1.1157;-6.3135;-0.0448;-0.0432;-0.0168
0000931900;4.7022;1.0750;-6.2441;-0.0478;-0.0460;-0.0196
0000931911;4.5346;1.0391;-6.3494;-0.0486;-0.0438;-0.0209
0000931919;4.5035;1.1085;-6.2345;-0.0441;-0.0472;-0.0238
0000931931;4.5777;1.0487;-6.2800;-0.0545;-0.0421;-0.0236
0000931939;4.4867;0.9577;-6.3614;-0.0525;-0.0437;-0.0262
0000931950;4.7070;1.1899;-6.3207;-0.0580;-0.0460;-0.0232
0000931958;4.5203;0.9984;-6.2968;-0.0630;-0.0472;-0.0145
0000931966;4.6878;1.0726;-6.2728;-0.0737;-0.0396;-0.0171
0000931978;4.6567;1.1349;-6.3087;-0.0819;-0.0434;-0.0153
0000931986;4.5394;0.9242;-6.2752;-0.0954;-0.0390;-0.0113
0000931998;4.6591;1.0989;-6.3303;-0.1142;-0.0396;-0.0115
0000932006;4.4939;1.0702;-6.5003;-0.1338;-0.0389;-0.0071
0000932018;4.6232;0.9840;-6.5793;-0.1764;-0.0352;-0.0001
0000932026;4.6256;1.0199;-6.6152;-0.2060;-0.0336;0.0039
0000932093;4.4436;1.0558;-6.3949;-0.4567;-0.0891;0.0711
0000932101;4.4628;1.0391;-6.3542;-0.5024;-0.0950;0.0766
0000932113;4.4628;0.9218;-6.3710;-0.5665;-0.0970;0.0867
0000932121;4.6687;1.0032;-6.3734;-0.6027;-0.1122;0.0846
0000932129;4.6112;1.0032;-6.6319;-0.6730;-0.1061;0.0887
0000932141;4.5131;1.0654;-6.7205;-0.8056;-0.1199;0.0809
0000932149;4.4053;1.1756;-6.1196;-0.8497;-0.1328;0.1031
0000932161;4.5107;1.5826;-5.6048;-0.8140;-0.1801;0.1339
0000932169;4.4436;1.6616;-5.3798;-0.7592;-0.1835;0.1503
0000932180;4.7357;1.7573;-5.5474;-0.7196;-0.1759;0.1544
0000932188;4.7932;1.5730;-5.7533;-0.7071;-0.1711;0.1324
0000932200;4.8507;1.4724;-5.8131;-0.7031;-0.1675;0.1003
0000932208;5.2241;1.7957;-5.9137;-0.6943;-0.1792;0.0738
0000932216;5.1092;1.7358;-5.7365;-0.7100;-0.1795;0.0573
0000932227;4.8698;1.8531;-5.7030;-0.7011;-0.1859;0.0414
0000932235;5.0182;2.2170;-5.4779;-0.6856;-0.2006;0.0225
0000932247;5.0805;2.1548;-5.2313;-0.6371;-0.2068;0.0060
0000932255;4.9823;2.1069;-5.2050;-0.6013;-0.2089;-0.0165
0000932267;5.0637;2.2003;-5.3822;-0.5520;-0.2085;-0.0550
0000932275;4.7309;2.0087;-5.3343;-0.5489;-0.2073;-0.0667
0000932288;4.9656;2.1141;-5.4708;-0.5570;-0.1977;-0.0909
0000932297;4.7956;2.0949;-5.2218;-0.5505;-0.2238;-0.1172
0000932306;4.6878;2.1141;-5.2888;-0.5645;-0.2405;-0.1183
0000932373;4.0869;2.2649;-4.3000;-0.7093;-0.3948;-0.1223
0000932382;4.2760;2.1524;-4.2186;-0.6973;-0.4143;-0.1242
0000932395;4.1755;1.8148;-4.3670;-0.6767;-0.3965;-0.1210
0000932404;4.1803;1.7023;-4.3646;-0.6392;-0.3709;-0.1106
0000932417;4.2425;1.7526;-4.4269;-0.5890;-0.3357;-0.1067
0000932426;4.1946;1.7717;-4.3790;-0.5773;-0.3155;-0.0918
0000932439;4.4748;2.1691;-4.1084;-0.5589;-0.2956;-0.0907
0000932448;4.3479;2.0662;-3.7996;-0.5213;-0.2943;-0.1022
0000932460;4.2497;2.4062;-3.5123;-0.4766;-0.2819;-0.1212
0000932469;4.2066;2.5618;-3.4572;-0.4660;-0.2878;-0.1272
0000932478;4.1061;2.6240;-3.3782;-0.4768;-0.2900;-0.1310
0000932491;4.0247;2.7797;-3.1987;-0.4792;-0.2986;-0.1410
0000932500;4.1132;2.9473;-3.4309;-0.4831;-0.3127;-0.1496
0000932513;4.0797;3.3423;-3.1244;-0.4982;-0.3031;-0.1600
0000932522;3.7804;3.3782;-3.0191;-0.4978;-0.2839;-0.1643
0000932535;3.9433;3.2082;-3.4046;-0.5115;-0.2527;-0.1543
0000932544;4.3622;3.0598;-3.6775;-0.6199;-0.2583;-0.1523
0000932556;4.5322;2.3631;-3.5985;-0.6707;-0.2415;-0.1487
0000932565;4.6184;1.8316;-3.0670;-0.6410;-0.2000;-0.1580
0000932578;4.8219;1.8148;-2.6983;-0.5616;-0.1338;-0.1711
0000932587;4.3694;1.7980;-2.9377;-0.5261;-0.1154;-0.1929
0000932596;4.2138;2.2984;-3.0789;-0.5253;-0.0927;-0.1875
0000932664;2.2984;1.3599;-3.3136;-0.3777;-0.5088;0.0065
0000932673;1.9561;1.0870;-3.3734;-0.3776;-0.5878;0.1514
0000932686;2.1141;1.1349;-3.2561;-0.2646;-0.7337;0.3761
0000932695;3.0358;1.7957;-2.9544;-0.0783;-0.7691;0.3432
0000932708;3.7278;3.2896;-3.4668;0.0497;-0.7256;0.1647
0000932717;4.0510;3.8906;-4.0965;-0.1091;-0.7053;0.1364
0000932730;3.9456;3.7469;-3.8595;-0.3893;-0.6426;0.1242
0000932739;3.8595;3.1891;-3.5027;-0.4822;-0.5553;0.1631
0000932748;3.3423;2.3224;-3.5171;-0.5376;-0.5131;0.2566
0000932761;4.1396;2.2051;-2.9401;-0.3862;-0.5796;0.3250
0000932770;4.4939;2.5905;-3.0646;-0.2305;-0.5035;0.3268
0000932783;4.6567;3.7278;-3.6488;-0.2264;-0.3882;0.3079
0000932792;4.7836;4.7836;-3.6224;-0.3187;-0.3451;0.2393
0000932808;4.4484;5.0278;-2.9856;-0.5019;-0.3345;0.1086
0000932817;3.2992;3.7757;-3.2226;-0.6038;-0.3404;0.1394
0000932830;3.5434;2.0758;-2.8850;-0.6690;-0.3704;0.3023
0000932839;4.0414;1.0511;-2.5283;-0.5966;-0.3603;0.3740
0000932848;4.2784;0.0670;-2.5139;-0.4662;-0.3388;0.3985
0000932917;5.7150;2.7557;-4.8052;0.6534;-0.0438;0.2341
0000932926;5.5881;2.5450;-4.9344;0.6089;0.0422;0.1853
0000932939;4.9177;1.3024;-4.3167;0.6478;0.1727;0.1612
0000932948;5.2553;0.0814;-4.3096;0.7069;0.2821;0.1929
0000932960;6.1100;-0.8882;-4.2282;0.8215;0.3956;0.2926
0000932969;6.2920;-1.6879;-4.2641;0.9537;0.4435;0.3524
0000932978;6.4931;-2.0016;-4.6974;1.0692;0.4373;0.3980
0000932991;5.6623;-2.3200;-4.3191;1.3741;0.4108;0.4207
0000933000;4.6831;-1.7741;-4.0845;1.6577;0.4181;0.4279
0000933012;4.1946;-0.4884;-4.0989;1.9728;0.3868;0.4514
0000933021;3.9265;0.8691;-4.3598;2.0318;0.3537;0.4407
0000933034;4.3144;3.0981;-4.7764;1.8767;0.3218;0.3912
0000933043;4.7932;3.9887;-4.8914;1.7271;0.3424;0.3724
0000933055;5.7317;4.3407;-4.7190;1.4366;0.3972;0.3905
0000933064;6.1292;4.2234;-4.1946;1.2797;0.4651;0.4281
0000933073;6.4667;4.0438;-3.7972;1.2109;0.5027;0.4510
0000933086;6.0741;3.2130;-3.6416;1.1716;0.5231;0.4084
0000933095;5.5474;2.8132;-3.9265;1.1290;0.5359;0.3363
0000933107;4.7549;1.9345;-3.9576;1.0219;0.5441;0.2605
0000933116;4.3096;1.8435;-3.9361;1.0068;0.5363;0.2518
0000933129;4.1300;2.1452;-3.8331;1.0447;0.4811;0.2918
0000933138;4.2042;2.6217;-3.9600;1.0150;0.4106;0.2866
0000933147;4.4412;3.1747;-3.7493;0.9824;0.3146;0.2629
0000933216;6.7062;2.0111;-5.2648;0.7273;0.4598;-0.0349
0000933225;7.2736;1.1971;-5.4492;0.6535;0.5120;-0.0156
0000933238;7.4148;0.7207;-5.6814;0.6955;0.6732;-0.0349
0000933247;7.2281;0.5459;-6.2728;0.8271;0.7669;-0.0434
0000933259;7.0270;0.9122;-6.8331;0.9583;0.7618;0.0053
0000933268;6.7804;1.0582;-6.8139;0.9667;0.6714;0.0885
0000933277;6.5841;1.4581;-6.1148;0.9685;0.5356;0.2076
0000933290;5.6814;2.7605;-5.8395;1.0655;0.3910;0.3898
0000933299;5.4277;3.7230;-6.6798;0.9292;0.3559;0.4727
0000933311;5.0853;4.5035;-7.0653;0.5420;0.3661;0.5105
0000933320;4.9321;5.0087;-6.4236;0.2972;0.3757;0.5291
0000933333;5.2912;4.7238;-5.6072;0.0678;0.3849;0.5203
0000933342;5.6719;4.1970;-5.8730;-0.0977;0.3862;0.4876
0000933351;6.4260;3.3112;-6.2465;-0.3194;0.4199;0.4545
0000933363;6.8833;1.9345;-6.2608;-0.5674;0.5057;0.3692
0000933372;7.4627;1.2330;-6.1124;-0.6219;0.5894;0.3054
0000933385;7.9009;0.3136;-5.6599;-0.6065;0.7310;0.1889
0000933394;7.7069;0.1221;-5.5809;-0.5456;0.8143;0.0986
0000933406;7.8003;0.1652;-5.5761;-0.4746;0.8536;-0.0253
0000933415;7.7261;0.1963;-5.2625;-0.4631;0.8652;-0.0678
0000933428;7.7357;0.6680;-4.5610;-0.4346;0.8840;-0.0886
0000933437;7.1946;1.1468;-4.7046;-0.4349;0.8985;-0.0962
0000933446;6.9025;1.4317;-5.4229;-0.4914;0.8940;-0.1051
0000933515;5.8179;4.6807;-4.8507;-0.9808;0.1187;-0.1131
0000933524;6.6439;5.2337;-4.8004;-1.1146;0.0933;-0.1318
0000933537;7.0461;5.4037;-4.5921;-1.3011;0.1322;-0.1835
0000933546;7.1922;5.5498;-4.3167;-1.4132;0.1932;-0.1819
0000933558;7.4699;5.5067;-4.2329;-1.5451;0.2727;-0.1807
0000933567;7.1611;5.2265;-4.0294;-1.6517;0.3420;-0.2016
0000933580;6.9743;4.7381;-3.6679;-1.7529;0.4094;-0.2923
0000933589;6.6343;4.2880;-3.4141;-1.7686;0.4465;-0.3753
0000933598;6.5434;3.9911;-3.2274;-1.7752;0.4591;-0.4715
0000933610;6.0932;3.4620;-2.9975;-1.7748;0.4497;-0.5549
0000933619;6.3087;3.2322;-2.6432;-1.7439;0.4357;-0.5670
0000933632;6.3470;2.9592;-2.6288;-1.6771;0.4447;-0.5371
0000933641;6.3614;3.1532;-2.3296;-1.6190;0.4413;-0.5093
0000933653;6.2944;3.7062;-2.4181;-1.5705;0.4497;-0.4467
0000933662;6.0885;3.9816;-2.4541;-1.5663;0.4596;-0.3836
0000933675;6.2034;4.6711;-2.6719;-1.6053;0.4124;-0.2955
0000933684;6.4452;5.0302;-2.7054;-1.6818;0.3910;-0.2493
0000933693;6.6008;4.8195;-2.7821;-1.7621;0.3564;-0.2184
0000933705;7.0725;4.9009;-2.6743;-1.8070;0.3535;-0.2169
0000933714;7.1395;4.4987;-2.4086;-1.8858;0.3600;-0.2722
0000933727;6.9312;3.8523;-2.2793;-1.9249;0.3583;-0.3413
0000933736;6.6559;3.6966;-1.9680;-1.8925;0.3684;-0.3684
0000933805;5.5881;3.4860;-1.3815;-1.7082;0.1299;-0.2281
0000933814;5.8706;4.2641;-1.2163;-1.7585;0.1356;-0.1985
0000933827;6.6583;6.0837;-1.1851;-1.8265;0.1617;-0.1808
0000933836;7.2401;7.8793;-0.5363;-1.8556;0.1544;-0.2336
0000933845;7.3646;9.2129;0.3663;-1.9373;0.1643;-0.3023
0000933857;6.7947;10.7787;1.2306;-2.0159;0.1664;-0.4139
0000933866;6.4452;11.4850;0.7949;-2.0744;0.1442;-0.4628
0000933879;5.3846;11.2384;0.9625;-2.2187;0.0304;-0.5100
0000933888;4.5610;10.4267;1.1085;-2.3053;-0.0694;-0.5020
0000933900;4.0199;8.9088;0.8547;-2.3952;-0.1823;-0.4108
0000933909;3.9696;7.8841;0.8092;-2.4139;-0.2734;-0.3071
0000933922;4.4173;6.3422;0.6632;-2.4187;-0.3982;-0.1525
0000933931;5.1164;5.5330;0.6464;-2.4016;-0.5016;-0.0998
0000933940;5.4229;4.6735;1.0822;-2.3739;-0.5661;-0.0738
0000933952;5.6719;3.6200;2.0063;-2.2854;-0.5993;-0.0588
0000933961;5.9137;2.8371;2.5618;-2.1573;-0.5792;-0.0478
0000933974;6.5721;2.6360;3.1460;-1.8839;-0.5411;-0.0737
0000933983;6.6248;2.9951;3.3854;-1.6920;-0.5132;-0.1094
0000933995;6.7708;3.5721;3.2154;-1.5752;-0.4559;-0.1764
0000934004;6.4787;3.7230;3.2729;-1.5724;-0.4211;-0.2149
0000934017;6.0118;3.0023;3.3255;-1.5741;-0.3925;-0.2008
0000934026;6.1603;2.2577;3.4165;-1.5480;-0.3698;-0.1471
0000934035;6.1627;1.3312;3.6703;-1.4783;-0.3770;-0.0902
0000934104;5.9807;-0.3472;4.2401;-0.4319;-0.4066;0.0862
0000934113;6.1339;-0.0646;4.4197;-0.3323;-0.3790;0.1003
0000934126;6.0717;0.5435;4.4388;-0.2181;-0.3557;0.1212
0000934135;6.1842;0.7901;4.5873;-0.1524;-0.3475;0.1334
0000934147;6.6415;1.1396;4.2497;-0.1082;-0.3127;0.1191
0000934156;6.6918;1.2139;4.1755;-0.1031;-0.2911;0.0882
0000934169;6.8235;1.3408;4.5825;-0.0378;-0.2789;0.0409
0000934178;6.6846;1.3288;4.6256;0.0167;-0.3068;0.0008
0000934187;6.1723;1.0965;4.6184;0.0313;-0.2912;-0.0193
0000934199;6.0358;1.4389;4.5825;0.0771;-0.3116;-0.0701
0000934208;5.9185;1.5036;4.8483;0.1255;-0.3180;-0.0807
0000934221;5.9376;1.6305;4.6615;0.1980;-0.3304;-0.0489
0000934230;5.9783;1.7813;4.8243;0.2439;-0.3509;-0.0049
0000934242;6.5003;2.0207;4.7453;0.2352;-0.3616;0.0071
0000934251;6.6822;2.1763;4.7645;0.2028;-0.3455;-0.0153
0000934260;6.6152;2.3703;5.0326;0.2309;-0.3351;-0.0518
0000934273;6.7924;2.9281;5.1571;0.3094;-0.3179;-0.0597
0000934282;6.8307;3.1795;4.6448;0.2975;-0.3180;-0.0433
0000934293;6.7900;3.1603;4.5633;0.2573;-0.3200;-0.0526
0000934302;6.6655;3.1867;4.5873;0.2626;-0.3168;-0.0675
0000934316;6.8474;3.4189;4.5681;0.3162;-0.3036;-0.0401
0000934325;6.7516;3.2825;4.5969;0.3023;-0.2971;-0.0072
0000934394;6.5338;2.7485;4.5657;0.2699;-0.1715;-0.0133
0000934403;6.5290;2.9975;4.6376;0.3063;-0.1691;-0.0101
0000934412;6.7253;3.2058;4.4556;0.3419;-0.1278;0.0111
0000934424;6.6200;2.9688;4.0582;0.2573;-0.1218;0.0000
0000934433;6.5649;2.9880;4.1204;0.1607;-0.1348;-0.0345
0000934446;6.6631;3.1388;4.1108;0.1520;-0.1194;-0.0525
0000934455;6.5170;3.0263;3.8858;0.1171;-0.1470;-0.0508
0000934467;6.7133;2.9473;3.5602;0.0698;-0.1957;-0.0436
0000934476;6.5912;2.6360;3.2417;0.0224;-0.2249;-0.0454
0000934485;6.4691;2.2386;2.8826;-0.0470;-0.2525;-0.0548
0000934498;6.3135;1.9872;2.9449;-0.1015;-0.2643;-0.0665
0000934507;6.2680;1.7669;2.9856;-0.0986;-0.2771;-0.0446
0000934519;6.3758;1.2522;2.6025;-0.1575;-0.2980;-0.0378
0000934528;6.1914;0.8882;2.3966;-0.2086;-0.2906;-0.0438
0000934541;6.6032;0.5866;1.9489;-0.2346;-0.2798;-0.0157
0000934550;6.4907;0.1173;1.6544;-0.3082;-0.2751;-0.0216
0000934562;6.2297;-0.2777;1.6400;-0.3840;-0.2543;-0.0085
0000934571;6.2249;-0.6632;1.3120;-0.3620;-0.2517;0.0264
0000934580;6.4643;-0.6800;0.9768;-0.4120;-0.2411;0.0436
0000934593;6.4021;-0.6632;1.0774;-0.3840;-0.2575;0.0825
0000934602;6.2704;-1.0415;0.7901;-0.3757;-0.2490;0.1033
0000934614;6.2369;-1.3408;0.9912;-0.4341;-0.2172;0.0826
0000934623;6.1770;-1.5155;1.2163;-0.4782;-0.1827;0.0357
0000934692;5.5258;-4.3167;1.4150;-0.7911;-0.3299;-0.1303
0000934701;5.8921;-4.3503;1.9201;-0.7047;-0.3631;-0.0743
0000934713;6.2991;-4.4484;2.3559;-0.5606;-0.3696;-0.0211
0000934722;6.8594;-4.3191;2.5067;-0.4445;-0.3643;-0.0157
0000934735;7.2233;-3.9959;2.7102;-0.3140;-0.3295;-0.0404
0000934744;7.5776;-3.4022;2.9880;-0.2220;-0.2955;-0.0738
0000934753;8.0254;-2.4373;3.4979;-0.0885;-0.2573;-0.1183
0000934765;8.2073;-1.5443;4.0247;0.0781;-0.1851;-0.1529
0000934774;8.2624;-0.7087;4.2737;0.1555;-0.1364;-0.1847
0000934787;8.5688;0.5219;4.1156;0.1791;-0.0584;-0.2834
0000934796;8.4084;0.9601;3.9768;0.1243;-0.0278;-0.3802
0000934808;8.1235;1.8220;3.6679;-0.0498;-0.0438;-0.5145
0000934817;7.1539;1.8004;4.0366;-0.2116;-0.1346;-0.5941
0000934830;5.0949;1.1684;6.1866;-0.4634;-0.3793;-0.5914
0000934839;4.1252;0.8021;8.3390;-0.5769;-0.5693;-0.5100
0000934848;3.7014;0.3017;10.6015;-0.5633;-0.7422;-0.3957
0000934860;4.7956;0.3280;12.3780;-0.2679;-0.8322;-0.2142
0000934869;6.6343;0.8236;12.2463;0.0810;-0.7783;-0.1211
0000934882;9.1985;2.9760;10.0652;0.5641;-0.5664;-0.0136
0000934891;11.0038;4.8770;7.8338;0.7561;-0.4049;0.0632
0000934903;11.7699;6.0406;4.9847;0.6755;-0.1945;0.1386
0000934912;11.1498;5.4037;3.6440;0.4258;-0.0512;0.1819
0000934981;4.3574;-1.7214;1.9632;0.1408;0.1568;-0.0722
0000934990;4.0630;-1.0894;2.2841;0.3313;0.0286;-0.1375
0000934999;4.0821;-0.3112;2.6384;0.5237;-0.1069;-0.1735
0000935011;4.0893;1.2809;3.1484;0.7337;-0.2802;-0.1703
0000935020;4.6112;2.8754;3.4548;0.8148;-0.3785;-0.1220
0000935033;5.6120;4.8411;3.3854;0.7576;-0.4230;-0.0472
0000935042;6.9791;5.7868;3.4189;0.5648;-0.4050;-0.0195
0000935054;9.0549;6.1699;3.8355;0.1202;-0.2883;-0.0256
0000935063;10.1634;5.7269;4.3144;-0.2208;-0.1700;-0.1047
0000935072;10.0987;4.4939;4.8698;-0.4960;-0.0298;-0.1888
0000935085;9.3565;2.5666;5.6407;-0.6567;0.1295;-0.2065
0000935094;8.6407;1.0774;5.8897;-0.5929;0.2124;-0.1673
0000935106;7.4029;-0.3567;6.3135;-0.3750;0.2793;-0.1009
0000935115;6.4715;-1.0630;6.2249;-0.1440;0.2832;-0.0528
0000935128;5.6455;-0.7063;5.7916;0.1619;0.2372;0.0388
0000935137;5.1451;-0.0982;5.5354;0.3200;0.1831;0.0849
0000935149;5.1140;1.0032;5.5330;0.4482;0.1095;0.0953
0000935158;5.1906;1.8340;5.1858;0.4600;0.0440;0.0729
0000935167;5.7557;2.6695;4.8770;0.4096;-0.0005;0.0637
0000935180;6.2489;3.0478;4.4029;0.2872;-0.0380;0.0318
0000935189;6.6774;3.1077;4.2186;0.1856;-0.0586;0.0149
0000935201;6.9815;2.3391;4.0917;0.0608;-0.0644;0.0088
0000935210;7.0653;1.8818;4.0103;0.0254;-0.0697;-0.0075
0000935279;6.2968;2.0399;4.8315;0.0332;-0.2278;-0.0801
0000935288;6.3877;2.2673;4.8674;0.0117;-0.2413;-0.0998
0000935297;6.3805;2.1763;4.8483;-0.0145;-0.2467;-0.1250
0000935309;6.6798;2.3607;4.9464;-0.0552;-0.2577;-0.1572
0000935318;6.5577;2.0111;4.8291;-0.0893;-0.2650;-0.1853
0000935331;6.9456;2.1859;4.9225;-0.1214;-0.2774;-0.2029
0000935340;6.7971;1.8818;4.7453;-0.1280;-0.2706;-0.1961
0000935352;6.6942;1.5155;4.9057;-0.1079;-0.2621;-0.1829
0000935361;6.7397;1.4269;4.7669;-0.0622;-0.2475;-0.1695
0000935374;6.9504;1.4772;4.6304;0.0116;-0.2286;-0.1244
0000935383;6.9240;1.3408;4.6424;0.0694;-0.2222;-0.0897
0000935392;7.0006;1.4748;4.5155;0.0931;-0.1986;-0.0492
0000935404;7.2688;1.7095;4.3096;0.1264;-0.1835;-0.0199
0000935413;6.9097;1.6041;4.2018;0.1464;-0.1663;-0.0141
0000935426;6.7253;1.7334;4.1037;0.1676;-0.1454;-0.0023
0000935435;6.6463;1.7669;4.0103;0.1795;-0.1334;-0.0101
0000935447;6.5074;1.9776;4.0390;0.1829;-0.1270;-0.0084
0000935456;6.7181;2.3248;3.9935;0.1796;-0.1186;-0.0040
0000935465;6.5553;2.3559;3.9672;0.1717;-0.1276;-0.0105
0000935478;6.6272;2.6624;3.9624;0.1303;-0.1331;-0.0181
0000935487;6.5841;2.5905;3.8355;0.0922;-0.1302;-0.0338
0000935499;6.5601;2.5522;3.8140;0.0328;-0.1418;-0.0670
0000935508;6.4260;2.3224;3.8714;-0.0088;-0.1573;-0.0847
0000935577;6.5769;1.9034;4.2569;0.0641;-0.3111;-0.0755
0000935586;6.6966;1.9441;4.3742;0.0638;-0.3200;-0.0766
0000935598;7.0773;2.2003;4.3742;0.0625;-0.3252;-0.0858
0000935607;6.7373;1.8483;4.3622;0.0613;-0.3417;-0.1033
0000935616;7.0174;1.9225;4.3167;0.0655;-0.3440;-0.1058
0000935629;6.8354;1.7837;4.2665;0.0890;-0.3377;-0.1039
0000935638;7.1467;1.8938;4.1970;0.1006;-0.3240;-0.0999
0000935650;7.2640;1.9944;4.2138;0.1135;-0.3058;-0.0991
0000935659;7.2042;1.9201;4.1228;0.1335;-0.2975;-0.1035
0000935672;7.1563;2.1356;4.0965;0.1335;-0.2807;-0.0873
0000935681;7.2113;2.0710;4.0749;0.1404;-0.2705;-0.0829
0000935693;6.8618;2.0327;4.1156;0.1368;-0.2591;-0.0830
0000935702;6.9791;2.0518;3.9002;0.1200;-0.2486;-0.0719
0000935711;6.9336;2.3990;3.9600;0.1045;-0.2533;-0.0652
0000935724;6.7373;2.2960;3.8140;0.0807;-0.2451;-0.0625
0000935733;6.7612;2.2290;3.8140;0.0695;-0.2465;-0.0662
0000935743;6.9145;2.2697;3.8666;0.0642;-0.2474;-0.0741
0000935751;6.9121;2.1644;3.8858;0.0625;-0.2382;-0.0738
0000935764;7.0342;2.3343;3.7278;0.0557;-0.2309;-0.0617
0000935772;6.9647;2.2649;3.8092;0.0553;-0.2248;-0.0542
0000935780;7.2544;2.3176;3.7134;0.0624;-0.2120;-0.0476
0000935848;7.3550;2.1380;3.7996;0.1280;-0.0350;-0.0091
0000935856;6.8761;2.1452;3.7804;0.1354;-0.0297;-0.0057
