time;acc_x;acc_y;acc_z;gyro_x;gyro_y;gyro_z
0001108325;6.6056;2.5690;1.9992;-0.1031;0.3203;0.0604
0001108333;6.4548;2.5953;2.0087;-0.0943;0.3391;0.0830
0001108340;6.3829;2.6935;2.1452;-0.0805;0.3459;0.0903
0001108348;6.1531;2.5139;2.3320;-0.0654;0.3435;0.0923
0001108357;6.2345;2.7390;2.3032;-0.0532;0.3415;0.1038
0001108365;6.0765;2.7581;2.3846;-0.0501;0.3333;0.1027
0001108373;6.1651;2.9497;2.5043;-0.0408;0.3120;0.0973
0001108385;5.9879;2.8970;2.4157;-0.0422;0.2970;0.0965
0001108393;6.2656;3.3543;2.5091;-0.0378;0.2811;0.0939
0001108404;5.9280;2.9113;2.4972;-0.0373;0.2623;0.0895
0001108412;6.0382;3.0670;2.2362;-0.0477;0.2538;0.0882
0001108425;6.0382;3.0574;2.3607;-0.0625;0.2153;0.0581
0001108432;6.2441;2.8683;2.4014;-0.0646;0.2053;0.0573
0001108440;6.2728;2.8946;2.2745;-0.0630;0.1900;0.0493
0001108509;5.9424;2.9880;2.4397;-0.1138;0.0789;0.0133
0001108516;5.7628;2.8898;2.5714;-0.1435;0.0666;0.0027
0001108528;6.0645;3.0311;2.6743;-0.1701;0.0530;-0.0008
0001108536;6.2130;3.1292;2.8108;-0.1805;0.0456;-0.0056
0001108547;6.2441;3.2322;2.9066;-0.2073;0.0317;-0.0016
0001108555;6.2584;3.1340;2.9042;-0.2150;0.0349;0.0045
0001108563;6.6415;3.2944;3.0095;-0.2346;0.0394;0.0067
0001108575;6.4308;2.8874;3.1053;-0.2377;0.0500;0.0060
0001108583;6.5888;2.6576;3.0789;-0.2353;0.0564;0.0083
0001108594;6.4739;2.2122;3.0358;-0.2181;0.0613;0.0084
0001108602;6.4284;2.0039;3.0071;-0.2044;0.0569;0.0121
0001108614;6.6463;2.0494;2.8970;-0.1751;0.0608;0.0213
0001108622;6.6439;2.1620;2.7892;-0.1584;0.0646;0.0330
0001108630;6.3949;2.0375;2.8347;-0.1359;0.0634;0.0344
0001108641;6.0980;2.0423;2.7342;-0.0934;0.0550;0.0408
0001108649;6.1746;2.0758;2.6384;-0.0853;0.0456;0.0388
0001108661;6.1962;2.2673;2.5546;-0.0638;0.0352;0.0244
0001108669;5.8275;2.1955;2.5762;-0.0526;0.0290;0.0161
0001108680;6.0717;2.4493;2.6815;-0.0582;0.0155;0.0005
0001108688;6.0908;2.4804;2.6576;-0.0726;0.0167;-0.0012
0001108696;6.1196;2.6240;2.7078;-0.0663;0.0111;-0.0153
0001108708;6.1579;2.7701;2.7557;-0.0683;0.0128;-0.0096
0001108716;6.2537;2.8659;2.8587;-0.0710;0.0112;-0.0143
0001108785;6.2249;2.4517;2.8515;-0.0356;0.0357;0.0336
0001108792;6.2968;2.6815;2.8515;-0.0281;0.0242;0.0348
0001108804;6.3422;2.7054;2.7629;-0.0221;0.0073;0.0424
0001108812;6.3135;2.6264;2.7677;-0.0149;-0.0104;0.0389
0001108823;6.1986;2.5474;2.8491;-0.0093;-0.0318;0.0310
0001108832;6.3135;2.6193;2.8635;-0.0079;-0.0365;0.0224
0001108839;6.4476;2.5355;2.7701;-0.0019;-0.0433;0.0196
0001108851;6.4404;2.4181;2.8299;0.0097;-0.0401;0.0100
0001108859;6.4069;2.4469;2.7270;0.0103;-0.0288;0.0039
0001108870;6.6295;2.5139;2.7342;0.0236;-0.0272;-0.0072
0001108878;6.6487;2.5043;2.7940;0.0276;-0.0124;-0.0047
0001108890;6.5338;2.5786;2.6935;0.0448;-0.0007;-0.0087
0001108898;6.5912;2.4397;2.7031;0.0445;0.0052;-0.0080
0001108906;6.4596;2.6384;2.7845;0.0498;0.0099;-0.0043
0001108917;6.3183;2.6647;2.8108;0.0454;0.0020;-0.0052
0001108925;6.2824;2.6552;2.7078;0.0361;-0.0009;-0.0013
0001108937;6.4021;2.9090;2.7054;0.0195;-0.0079;0.0059
0001108945;6.2537;2.6576;2.8299;0.0125;-0.0160;0.0143
0001108956;6.2776;2.6121;2.8108;0.0208;-0.0280;0.0131
0001108964;6.3111;2.6121;2.6336;0.0153;-0.0316;0.0128
0001108972;6.4045;2.6671;2.6576;0.0240;-0.0462;0.0100
0001108984;6.3710;2.5977;2.7797;0.0264;-0.0630;0.0036
0001108992;6.3351;2.5187;2.7677;0.0328;-0.0694;-0.0041
0001109061;6.1459;2.6384;2.8826;-0.0167;-0.1224;-0.0881
0001109068;6.1914;2.4828;2.8347;-0.0083;-0.1259;-0.0890
0001109080;6.4284;2.6145;2.7533;-0.0032;-0.1200;-0.0830
0001109088;6.1914;2.6504;2.7174;0.0025;-0.1298;-0.0865
0001109099;6.2153;2.5786;2.8156;0.0081;-0.1347;-0.0858
0001109107;6.0813;2.5881;2.6480;0.0001;-0.1375;-0.0906
0001109115;6.0980;2.5426;2.7198;0.0071;-0.1442;-0.0913
0001109127;6.2393;2.6097;2.7485;0.0007;-0.1488;-0.0887
0001109135;6.2273;2.6049;2.7246;-0.0064;-0.1450;-0.0762
0001109146;6.1842;2.6624;2.6887;-0.0059;-0.1515;-0.0767
0001109154;6.2584;2.7078;2.7054;-0.0183;-0.1519;-0.0697
0001109166;6.3063;2.8180;2.6935;-0.0173;-0.1483;-0.0721
0001109174;6.2991;2.6480;2.7007;-0.0285;-0.1483;-0.0687
0001109185;6.4620;2.7845;2.7869;-0.0408;-0.1386;-0.0645
0001109193;6.5673;2.9568;2.6959;-0.0461;-0.1335;-0.0653
0001109201;6.4189;2.7222;2.7940;-0.0458;-0.1352;-0.0636
0001109213;6.4069;2.7126;2.7653;-0.0452;-0.1270;-0.0577
0001109221;6.3351;2.6360;2.7821;-0.0452;-0.1202;-0.0497
0001109232;6.1507;2.2793;2.8060;-0.0398;-0.1166;-0.0452
0001109240;6.3159;2.5953;2.7749;-0.0324;-0.1255;-0.0476
0001109252;6.4643;2.6719;2.8060;-0.0353;-0.1228;-0.0401
0001109260;6.3063;2.6624;2.6959;-0.0289;-0.1271;-0.0408
0001109329;6.2489;2.5259;2.7054;-0.0230;-0.1279;-0.0326
0001109336;6.4428;2.6384;2.7054;-0.0205;-0.1336;-0.0352
0001109344;6.4069;2.7126;2.8132;-0.0241;-0.1360;-0.0346
0001109356;6.2656;2.5977;2.7102;-0.0222;-0.1382;-0.0313
0001109364;6.3542;2.7294;2.6839;-0.0177;-0.1431;-0.0389
0001109375;6.2872;2.6121;2.7461;-0.0230;-0.1391;-0.0374
0001109383;6.4284;2.7222;2.7366;-0.0217;-0.1411;-0.0366
0001109395;6.3255;2.6480;2.6815;-0.0253;-0.1374;-0.0376
0001109403;6.4117;2.5833;2.6671;-0.0282;-0.1315;-0.0398
0001109414;6.4596;2.7533;2.6480;-0.0361;-0.1280;-0.0374
0001109422;6.4667;2.7892;2.6528;-0.0352;-0.1242;-0.0474
0001109430;6.3470;2.5426;2.7318;-0.0350;-0.1227;-0.0526
0001109442;6.5027;2.7150;2.7318;-0.0392;-0.1147;-0.0561
0001109450;6.3183;2.7174;2.7892;-0.0456;-0.1037;-0.0556
0001109461;6.3183;2.6624;2.7366;-0.0489;-0.0998;-0.0601
0001109469;6.2608;2.5331;2.7701;-0.0392;-0.0989;-0.0673
0001109481;6.2417;2.6264;2.7318;-0.0388;-0.0879;-0.0560
0001109489;6.4189;2.7078;2.7892;-0.0356;-0.0886;-0.0596
0001109500;6.2680;2.6743;2.8204;-0.0270;-0.0863;-0.0525
0001109508;6.4907;2.7988;2.6983;-0.0305;-0.0873;-0.0522
0001109516;6.4117;2.7461;2.7485;-0.0257;-0.0907;-0.0537
0001109528;6.4787;2.7629;2.7797;-0.0272;-0.0782;-0.0454
0001109536;6.3470;2.5019;2.8084;-0.0252;-0.0733;-0.0418
0001109605;6.3327;2.3870;2.7797;-0.0286;-0.0438;-0.0220
0001109612;6.4763;2.5163;2.8802;-0.0184;-0.0454;-0.0242
0001109624;6.4883;2.5953;2.8635;-0.0129;-0.0385;-0.0093
0001109632;6.3207;2.5402;2.7653;-0.0055;-0.0398;-0.0165
0001109643;6.4572;2.6959;2.7653;-0.0131;-0.0310;-0.0080
0001109651;6.3782;2.6240;2.6911;-0.0120;-0.0348;-0.0113
0001109659;6.3231;2.6217;2.7797;-0.0061;-0.0332;-0.0116
0001109671;6.3973;2.6695;2.6743;-0.0033;-0.0385;-0.0104
0001109679;6.2201;2.4780;2.8299;-0.0037;-0.0333;-0.0040
0001109690;6.1746;2.4565;2.8204;0.0016;-0.0372;-0.0032
0001109698;6.2249;2.5283;2.7773;0.0101;-0.0408;-0.0032
0001109710;6.3375;2.6719;2.8108;0.0132;-0.0433;0.0019
0001109718;6.2560;2.7318;2.7246;0.0057;-0.0397;0.0041
0001109730;6.3207;2.7007;2.8419;0.0020;-0.0406;0.0008
0001109738;6.2608;2.4708;2.8491;-0.0017;-0.0384;0.0025
0001109746;6.4356;2.6743;2.8180;-0.0024;-0.0385;-0.0020
0001109757;6.3015;2.7198;2.8132;0.0043;-0.0434;-0.0109
0001109765;6.4524;2.5905;2.8587;-0.0005;-0.0396;0.0024
0001109777;6.5338;2.6983;2.8323;0.0021;-0.0334;0.0015
0001109785;6.2130;2.6001;2.8371;0.0017;-0.0332;-0.0029
0001109854;6.2106;2.5953;2.7366;-0.0143;-0.0422;-0.0116
0001109861;6.5601;2.7150;2.7102;-0.0167;-0.0341;-0.0097
0001109869;6.3255;2.4995;2.8180;-0.0260;-0.0293;-0.0068
0001109881;6.2273;2.6025;2.7414;-0.0304;-0.0306;-0.0032
0001109889;6.2249;2.4852;2.8635;-0.0305;-0.0305;-0.0100
0001109900;6.2704;2.5043;2.8012;-0.0308;-0.0310;-0.0097
0001109908;6.5386;2.6887;2.7940;-0.0301;-0.0329;-0.0096
0001109920;6.2441;2.5809;2.7461;-0.0288;-0.0321;-0.0089
0001109928;6.2656;2.6815;2.8371;-0.0237;-0.0400;-0.0103
0001109939;6.4141;2.6719;2.7557;-0.0264;-0.0389;-0.0097
0001109947;6.3949;2.7461;2.7461;-0.0306;-0.0398;-0.0079
0001109955;6.3135;2.7294;2.7414;-0.0253;-0.0449;-0.0133
0001109967;6.2560;2.6408;2.7869;-0.0289;-0.0468;-0.0144
0001109975;6.4212;2.7653;2.8276;-0.0205;-0.0534;-0.0164
0001109986;6.3566;2.6384;2.8659;-0.0245;-0.0498;-0.0155
0001109994;6.2369;2.5786;2.8347;-0.0191;-0.0581;-0.0205
0001110006;6.1675;2.6528;2.7988;-0.0213;-0.0558;-0.0148
0001110014;6.3087;2.5833;2.7725;-0.0203;-0.0562;-0.0192
0001110025;6.3135;2.5402;2.8323;-0.0151;-0.0604;-0.0184
0001110033;6.1794;2.4828;2.8491;-0.0131;-0.0552;-0.0175
0001110041;6.4236;2.6839;2.8132;-0.0081;-0.0637;-0.0203
0001110053;6.4069;2.6288;2.6647;-0.0167;-0.0612;-0.0179
0001110061;6.3901;2.7294;2.7797;-0.0265;-0.0589;-0.0196
0001110126;6.1986;2.6336;2.8156;-0.0410;-0.0574;-0.0161
0001110133;6.1842;2.5402;2.8826;-0.0448;-0.0532;-0.0211
0001110145;6.4141;2.4948;2.8754;-0.0357;-0.0525;-0.0176
0001110153;6.1076;2.3846;2.8539;-0.0272;-0.0550;-0.0201
0001110164;6.3135;2.5905;2.8276;-0.0221;-0.0513;-0.0153
0001110172;6.4165;2.6312;2.8515;-0.0212;-0.0506;-0.0149
0001110180;6.4356;2.4349;2.9305;-0.0226;-0.0425;-0.0137
0001110192;6.5050;2.7821;2.8539;-0.0234;-0.0398;-0.0192
0001110200;6.4835;2.7773;2.8587;-0.0179;-0.0436;-0.0209
0001110211;6.4596;2.5953;2.7821;-0.0226;-0.0324;-0.0216
0001110219;6.3710;2.6169;2.9161;-0.0192;-0.0392;-0.0268
0001110231;6.3997;2.5498;2.8228;-0.0199;-0.0330;-0.0204
0001110239;6.3590;2.6049;2.8276;-0.0128;-0.0309;-0.0232
0001110250;6.2896;2.5857;2.7869;-0.0184;-0.0294;-0.0205
0001110258;6.3734;2.7533;2.8515;-0.0234;-0.0205;-0.0173
0001110266;6.3614;2.6169;2.7007;-0.0233;-0.0252;-0.0191
0001110278;6.3398;2.6935;2.7869;-0.0256;-0.0241;-0.0173
0001110286;6.2872;2.7174;2.9090;-0.0266;-0.0179;-0.0141
0001110297;6.2728;2.6743;2.8180;-0.0248;-0.0177;-0.0181
0001110305;6.2776;2.5786;2.8635;-0.0185;-0.0189;-0.0192
0001110317;6.2920;2.4995;2.8922;-0.0175;-0.0213;-0.0160
0001110325;6.3087;2.5522;2.8994;-0.0167;-0.0185;-0.0141
0001110394;6.3997;2.6576;2.8012;-0.0187;-0.0256;-0.0128
0001110401;6.2537;2.5762;2.7102;-0.0261;-0.0185;-0.0093
0001110409;6.2537;2.5714;2.8467;-0.0281;-0.0216;-0.0117
0001110421;6.1962;2.5211;2.7677;-0.0273;-0.0195;-0.0143
0001110429;6.2632;2.6384;2.7485;-0.0221;-0.0249;-0.0193
0001110440;6.3518;2.5738;2.8419;-0.0277;-0.0188;-0.0120
0001110448;6.1794;2.5235;2.8060;-0.0216;-0.0242;-0.0133
0001110460;6.2489;2.5977;2.8156;-0.0184;-0.0236;-0.0156
0001110468;6.2537;2.6408;2.7821;-0.0217;-0.0169;-0.0059
0001110479;6.3805;2.6049;2.8539;-0.0172;-0.0236;-0.0161
0001110487;6.1986;2.5714;2.8180;-0.0205;-0.0220;-0.0109
0001110495;6.2489;2.5283;2.8252;-0.0196;-0.0248;-0.0107
0001110507;6.2752;2.5666;2.7845;-0.0208;-0.0278;-0.0139
0001110515;6.1483;2.5522;2.8706;-0.0205;-0.0284;-0.0117
0001110526;6.2944;2.5211;2.8635;-0.0160;-0.0304;-0.0113
0001110534;6.3829;2.7509;2.8228;-0.0156;-0.0281;-0.0125
0001110546;6.3279;2.6169;2.8802;-0.0105;-0.0416;-0.0199
0001110554;6.2417;2.7078;2.7845;-0.0119;-0.0382;-0.0121
0001110565;6.2776;2.5450;2.8850;-0.0079;-0.0453;-0.0176
0001110573;6.3758;2.5570;2.8443;-0.0065;-0.0454;-0.0125
0001110585;6.3279;2.6432;2.8371;-0.0068;-0.0496;-0.0184
0001110593;6.3518;2.6743;2.8323;-0.0089;-0.0422;-0.0093
0001110601;6.3327;2.7007;2.8467;-0.0209;-0.0377;-0.0127
0001110670;6.1723;2.6384;2.8036;-0.0370;-0.0632;-0.0270
0001110677;6.2608;2.5953;2.7988;-0.0384;-0.0576;-0.0193
0001110689;6.2082;2.5091;2.8611;-0.0382;-0.0574;-0.0229
0001110697;6.3542;2.5905;2.8826;-0.0293;-0.0674;-0.0237
0001110708;6.3039;2.5402;2.9281;-0.0293;-0.0617;-0.0187
0001110716;6.2872;2.6408;2.8778;-0.0224;-0.0675;-0.0242
0001110728;6.2656;2.5163;2.8180;-0.0292;-0.0673;-0.0209
0001110736;6.2824;2.5259;2.8371;-0.0278;-0.0652;-0.0184
0001110744;6.1962;2.5187;2.8252;-0.0230;-0.0673;-0.0232
0001110756;6.3590;2.5235;2.9712;-0.0133;-0.0616;-0.0189
0001110764;6.4643;2.5618;2.8826;-0.0077;-0.0711;-0.0245
0001110777;6.3686;2.5666;2.8898;-0.0117;-0.0694;-0.0201
0001110784;6.4356;2.6719;2.8419;-0.0043;-0.0694;-0.0226
0001110795;6.3853;2.7054;2.8491;-0.0124;-0.0682;-0.0184
0001110803;6.4069;2.7007;2.8443;-0.0145;-0.0618;-0.0167
0001110815;6.3183;2.5833;2.8347;-0.0180;-0.0648;-0.0211
0001110823;6.3638;2.6791;2.8228;-0.0183;-0.0681;-0.0220
0001110831;6.3805;2.6169;2.8730;-0.0153;-0.0630;-0.0160
0001110842;6.3901;2.6217;2.9521;-0.0116;-0.0598;-0.0177
0001110850;6.2968;2.5307;2.8874;-0.0143;-0.0610;-0.0147
0001110862;6.4548;2.7102;2.8922;-0.0101;-0.0594;-0.0137
0001110870;6.3805;2.6600;2.9425;-0.0105;-0.0558;-0.0109
0001110939;6.4284;2.5570;2.8180;-0.0113;-0.0494;-0.0153
0001110946;6.4021;2.7294;2.8443;-0.0033;-0.0582;-0.0160
0001110958;6.4212;2.5666;2.7557;-0.0141;-0.0520;-0.0144
0001110966;6.3853;2.6959;2.7940;-0.0148;-0.0481;-0.0099
0001110974;6.4404;2.6193;2.7701;-0.0179;-0.0465;-0.0112
0001110985;6.3375;2.7031;2.9353;-0.0167;-0.0453;-0.0124
0001110994;6.4189;2.6647;2.8754;-0.0108;-0.0480;-0.0175
0001111005;6.2704;2.6073;2.9161;-0.0153;-0.0449;-0.0168
0001111013;6.3590;2.6193;2.8635;-0.0095;-0.0469;-0.0129
0001111024;6.3734;2.6240;2.9161;-0.0127;-0.0452;-0.0124
0001111032;6.3638;2.6217;2.9113;-0.0159;-0.0357;-0.0117
0001111044;6.3782;2.7031;2.8563;-0.0175;-0.0350;-0.0100
0001111052;6.5457;2.6815;2.7964;-0.0176;-0.0374;-0.0121
0001111060;6.4955;2.6193;2.8730;-0.0179;-0.0298;-0.0081
0001111071;6.4452;2.6073;2.8730;-0.0193;-0.0290;-0.0119
0001111079;6.3710;2.6384;2.8347;-0.0177;-0.0305;-0.0143
0001111091;6.4141;2.6863;2.8132;-0.0197;-0.0249;-0.0087
0001111099;6.3877;2.6384;2.7940;-0.0188;-0.0253;-0.0116
0001111111;6.2944;2.5714;2.8132;-0.0193;-0.0241;-0.0088
0001111119;6.3614;2.5450;2.8563;-0.0191;-0.0218;-0.0064
0001111131;6.4236;2.6193;2.8347;-0.0091;-0.0281;-0.0095
0001111139;6.4883;2.6767;2.8347;-0.0136;-0.0284;-0.0089
0001111147;6.2800;2.6049;2.7246;-0.0096;-0.0284;-0.0135
0001111216;6.3183;2.6743;2.7964;-0.0432;-0.0232;-0.0069
0001111223;6.3734;2.6624;2.7773;-0.0357;-0.0293;-0.0121
0001111234;6.3901;2.5043;2.9161;-0.0281;-0.0215;-0.0103
0001111242;6.3877;2.4134;2.9233;-0.0176;-0.0252;-0.0123
0001111254;6.4476;2.4876;2.8419;-0.0187;-0.0199;-0.0052
0001111262;6.3805;2.5809;2.8683;-0.0137;-0.0242;-0.0117
0001111273;6.3758;2.6719;2.7318;-0.0196;-0.0169;-0.0100
0001111281;6.3949;2.7031;2.8635;-0.0101;-0.0238;-0.0113
0001111289;6.4069;2.5714;2.8611;-0.0123;-0.0212;-0.0144
0001111301;6.2848;2.3822;2.8970;-0.0096;-0.0161;-0.0076
0001111309;6.3111;2.5690;2.8874;-0.0123;-0.0193;-0.0092
0001111320;6.4212;2.6671;2.8204;-0.0040;-0.0175;-0.0063
0001111328;6.3853;2.5666;2.9018;-0.0021;-0.0216;-0.0055
0001111340;6.3135;2.4708;2.8683;-0.0032;-0.0161;-0.0009
0001111348;6.3159;2.7509;3.0119;-0.0045;-0.0115;-0.0008
0001111359;6.4907;2.8108;2.9688;-0.0003;-0.0149;-0.0016
0001111367;6.5170;2.7629;3.0670;0.0027;-0.0121;0.0005
0001111375;6.2465;2.6600;3.0119;0.0081;-0.0163;-0.0004
0001111387;6.3614;2.6432;3.0430;0.0199;-0.0195;0.0041
0001111395;6.4236;2.7366;3.0550;0.0320;-0.0266;0.0073
0001111407;6.4643;2.7557;3.0837;0.0368;-0.0237;0.0147
0001111415;6.3015;2.5857;2.9999;0.0414;-0.0269;0.0048
0001111484;6.3590;2.5762;2.8874;0.0496;-0.0217;0.0036
0001111491;6.4141;2.6001;2.8419;0.0496;-0.0236;-0.0029
0001111499;6.3111;2.5786;2.8156;0.0481;-0.0274;-0.0033
0001111510;6.3614;2.6432;2.7940;0.0453;-0.0385;-0.0072
0001111518;6.1699;2.5857;2.8802;0.0456;-0.0378;-0.0039
0001111530;6.2632;2.3798;2.8515;0.0500;-0.0462;-0.0047
0001111538;6.2010;2.4397;2.9329;0.0481;-0.0524;-0.0043
0001111549;6.2273;2.5546;2.8395;0.0586;-0.0609;-0.0083
0001111557;6.3494;2.6408;2.8946;0.0592;-0.0682;-0.0112
0001111569;6.3782;2.6767;2.9760;0.0741;-0.0818;-0.0248
0001111577;6.3638;2.6959;2.8922;0.0709;-0.0859;-0.0297
0001111585;6.3566;2.8108;2.9808;0.0783;-0.0925;-0.0308
0001111596;6.2153;2.7366;2.9544;0.0767;-0.0943;-0.0354
0001111604;6.2800;2.6312;3.0311;0.0909;-0.1083;-0.0458
0001111616;6.1627;2.6935;3.0909;0.1005;-0.1126;-0.0413
0001111624;6.2968;2.6983;3.0382;0.1107;-0.1126;-0.0417
0001111636;6.1962;2.4253;3.0670;0.1222;-0.1192;-0.0368
0001111644;6.3207;2.5905;3.0335;0.1234;-0.1118;-0.0373
0001111652;6.1962;2.4014;3.1220;0.1328;-0.1098;-0.0352
0001111664;6.3590;2.5091;3.0239;0.1584;-0.1104;-0.0378
0001111672;6.3949;2.5977;3.0382;0.1712;-0.1122;-0.0340
0001111684;6.4667;2.5881;2.9784;0.1801;-0.1118;-0.0246
0001111692;6.2704;2.5211;2.9377;0.1844;-0.1151;-0.0215
0001111761;6.6128;2.8299;2.7342;0.1504;-0.1411;0.0064
0001111768;6.4356;2.5115;2.7078;0.1435;-0.1410;-0.0008
0001111779;6.3758;2.3918;2.8491;0.1515;-0.1339;-0.0069
0001111787;6.5721;2.4732;2.9042;0.1587;-0.1252;-0.0021
0001111795;6.6319;2.5235;2.7485;0.1624;-0.1278;-0.0012
0001111807;6.3997;2.4373;2.8180;0.1615;-0.1264;0.0015
0001111815;6.4572;2.4397;2.7845;0.1689;-0.1280;0.0003
0001111827;6.5817;2.4804;2.7318;0.1688;-0.1272;0.0005
0001111835;6.3207;2.2649;2.7869;0.1721;-0.1267;0.0031
0001111847;6.3877;2.3607;2.7174;0.1813;-0.1294;-0.0095
0001111855;6.3327;2.2889;2.7892;0.1904;-0.1296;-0.0254
0001111863;6.5673;2.5259;2.7414;0.2069;-0.1292;-0.0346
0001111874;6.4117;2.3822;2.8108;0.2305;-0.1228;-0.0416
0001111882;6.2632;2.4541;2.8132;0.2425;-0.1247;-0.0516
0001111894;6.3255;2.4014;2.8108;0.2493;-0.1155;-0.0526
0001111902;6.3901;2.4134;2.8683;0.2549;-0.1158;-0.0630
0001111914;6.3398;2.4660;2.8204;0.2447;-0.1110;-0.0642
0001111922;6.1220;2.4397;2.8778;0.2340;-0.1079;-0.0652
0001111930;6.3566;2.5594;2.9233;0.2345;-0.1138;-0.0694
0001111942;6.2896;2.5379;2.8419;0.2194;-0.1182;-0.0762
0001111950;6.2106;2.4972;3.0071;0.2060;-0.1186;-0.0813
0001111962;6.1076;2.4756;2.9329;0.1978;-0.1262;-0.0883
0001111970;6.1938;2.4038;2.9760;0.1899;-0.1296;-0.0897
0001112038;6.0621;1.6281;3.9480;0.0129;-0.0810;-0.2065
0001112045;5.9831;1.4605;4.0366;-0.0424;-0.0743;-0.2224
0001112057;5.9137;0.8787;4.3167;-0.1383;-0.0545;-0.2385
0001112065;5.6336;0.2274;4.5155;-0.2164;-0.0466;-0.2502
0001112073;5.7078;0.0144;4.5418;-0.2870;-0.0360;-0.2637
0001112085;5.6599;-0.9337;4.7166;-0.3813;-0.0125;-0.2753
0001112093;5.3582;-1.8268;4.7070;-0.4217;-0.0024;-0.2858
0001112104;5.3630;-2.9281;4.3838;-0.4576;0.0144;-0.2916
0001112112;5.4157;-3.7900;4.0510;-0.4667;0.0197;-0.2703
0001112124;5.7676;-4.9368;3.4788;-0.4843;0.0277;-0.2300
0001112132;6.1196;-5.3989;2.9042;-0.4762;0.0340;-0.2132
0001112143;6.6607;-5.7030;0.9577;-0.4772;0.0344;-0.1933
0001112151;7.0198;-5.7628;-0.7877;-0.5700;0.0584;-0.2120
0001112159;7.0868;-5.6264;-2.1500;-0.7470;0.1021;-0.2670
0001112171;7.0581;-5.3510;-2.7821;-1.0930;0.1923;-0.4121
0001112179;7.0318;-5.3247;-2.4636;-1.3182;0.3036;-0.5205
0001112191;7.1898;-5.4396;-1.7095;-1.5783;0.4943;-0.6242
0001112199;7.3358;-5.2816;-1.4341;-1.5804;0.5906;-0.6447
0001112211;7.4172;-5.3127;-1.0415;-1.3334;0.6359;-0.6400
0001112219;7.2927;-5.6096;-0.5986;-1.1313;0.6368;-0.6107
0001112231;7.2999;-5.8993;-0.3184;-0.7779;0.5236;-0.5821
0001112239;7.1611;-5.9616;-0.4238;-0.5136;0.4017;-0.5790
0001112308;2.6935;-3.4309;1.3599;-0.5726;0.0181;-1.2143
0001112316;2.5929;-3.1316;1.9968;-0.9254;0.1438;-1.1114
0001112324;2.9257;-3.1532;2.7438;-0.9703;0.1712;-0.9068
0001112336;4.3359;-2.4612;4.8411;-0.6431;-0.0416;-0.3854
0001112344;5.5665;-0.8954;5.8730;-0.1589;-0.3251;0.0278
0001112356;6.0238;1.2977;6.1794;0.8224;-0.5309;0.2368
0001112364;5.6982;3.5626;5.1475;1.3315;-0.4046;0.0216
0001112375;4.1324;5.4995;2.7916;1.7295;-0.1581;-0.4505
0001112383;2.8898;6.1770;0.8930;1.4433;-0.0974;-0.6917
0001112395;1.5371;6.0693;-1.9632;0.2450;-0.2706;-0.6769
0001112403;1.0511;4.0701;-1.4820;-0.3584;-0.4145;-0.4799
0001112411;1.5371;2.6959;1.2905;-0.6427;-0.5521;-0.2298
0001112423;2.8419;1.3455;6.7660;-0.5712;-0.8306;0.3664
0001112431;3.4237;0.3687;7.6710;-0.1496;-1.1373;0.8648
0001112443;5.4037;-0.3711;1.7286;1.2433;-1.5228;1.5235
0001112451;6.1435;-0.0646;0.1772;1.7465;-1.5142;1.6441
0001112463;7.2544;2.2170;-1.8004;1.7852;-1.3745;1.3280
0001112471;7.7835;4.2449;-2.2386;1.9465;-1.1938;0.9363
0001112479;7.6734;5.5737;-1.4269;1.9534;-0.9475;0.5744
0001112491;7.0246;4.9033;-1.1325;1.7966;-0.6606;0.2434
0001112499;6.6774;3.7757;0.1724;2.0475;-0.5469;0.1821
0001112511;6.7588;2.5211;2.1907;2.7178;-0.4349;0.2517
0001112519;7.0653;2.2577;2.6312;3.2403;-0.3738;0.3351
0001112587;-0.0694;12.9000;-2.5881;4.3656;-0.7581;-1.0000
0001112595;0.2921;14.1282;-3.5291;4.3656;-0.8736;-1.2534
0001112607;1.4030;13.0867;-3.3974;4.3576;-0.9595;-1.5480
0001112615;1.5347;11.5664;-3.0837;4.0835;-0.9834;-1.6671
0001112623;1.9082;11.5544;-1.9034;3.9719;-0.9590;-1.5034
0001112635;3.6631;10.6829;-0.1652;3.8678;-0.7917;-1.2073
0001112643;3.8571;10.7787;-1.2186;3.8439;-0.6269;-1.0146
0001112655;4.3718;20.1688;-6.2896;4.3656;-0.4727;-0.0862
0001112663;4.3551;27.5381;-9.6558;4.3656;-0.1668;0.4406
0001112675;-8.0302;78.4508;-31.7758;4.3656;1.8119;2.0747
0001112683;3.1484;17.7434;1.2139;4.1151;1.3803;1.4268
0001112695;18.4258;0.9577;-11.8034;2.8936;0.3231;-0.5566
0001112703;13.4913;1.3934;-12.8210;2.8566;0.1340;-1.4356
0001112715;7.0413;3.0215;-9.4164;1.8627;0.0799;-1.8578
0001112723;5.3247;3.4500;-8.4276;1.2664;0.1455;-1.9216
0001112731;5.0446;6.1507;-5.1475;1.0559;0.0362;-1.8932
0001112743;6.7780;7.4939;-1.4557;1.3574;-0.1861;-1.7484
0001112751;7.1347;6.3590;-3.7469;1.3376;-0.4202;-1.6583
0001112763;7.1347;4.9249;-7.6878;1.0565;-0.6308;-1.6856
0001112771;5.2146;4.0414;-7.0629;0.5828;-0.6789;-1.8374
0001112783;3.6631;1.6209;-7.1658;-0.7618;-0.7941;-1.9752
0001112791;3.4213;-1.4964;-8.4036;-1.5544;-0.6201;-1.7207
0001112859;1.7071;-1.1372;-8.1690;1.4753;0.7285;0.0292
0001112867;1.3934;0.3807;-10.4291;1.6418;0.7061;0.1250
0001112875;2.3391;1.8483;-9.7875;1.5122;0.6071;0.2454
0001112887;2.5738;1.4916;-13.3309;1.1291;0.4349;0.3756
0001112895;3.6775;1.4365;-11.6023;0.8391;0.2781;0.3463
0001112907;5.6216;-1.1516;-12.0093;0.3256;0.1404;0.1612
0001112915;6.1699;-2.0303;-9.9503;0.0573;0.0842;-0.1010
0001112927;6.6439;-3.3543;-11.2671;-0.1231;0.0612;-0.4924
0001112935;6.3398;-2.8395;-8.6910;-0.1054;0.0228;-0.6595
0001112947;4.0486;-3.2346;-8.7149;0.0931;0.0496;-0.6718
0001112955;2.6480;-1.5562;-7.3837;0.1031;0.0905;-0.5261
0001112963;1.7837;-1.5586;-7.0270;0.1885;0.1244;-0.3576
0001112975;2.2290;-1.0199;-7.2903;0.1912;0.1591;-0.0913
0001112983;2.7461;-1.0391;-6.8977;0.0937;0.1659;-0.0081
0001112995;3.0670;-1.0463;-7.0102;0.2060;0.1837;-0.0681
0001113003;2.6815;-1.2905;-7.1778;0.3080;0.2066;-0.1627
0001113015;3.1651;-0.4836;-7.1563;0.4283;0.2661;-0.2254
0001113023;3.1316;-0.3496;-7.5800;0.3753;0.2871;-0.1557
0001113035;3.2753;0.2011;-8.6838;0.2553;0.3108;-0.0644
0001113043;3.4117;0.0742;-8.6359;0.1597;0.3027;-0.0016
0001113051;3.5602;0.2514;-8.2408;0.0918;0.2828;0.0317
0001113063;3.7278;0.0000;-8.0685;0.0056;0.2261;0.0729
0001113071;3.9816;0.1293;-8.0948;-0.0556;0.1764;0.0783
0001113140;4.3359;0.4693;-7.3406;-0.2807;0.1679;0.1363
0001113147;4.1396;0.2921;-7.3215;-0.3353;0.1679;0.1218
0001113159;4.5250;0.4094;-7.2903;-0.4001;0.1599;0.1029
0001113167;4.2018;0.4741;-7.1826;-0.4271;0.1484;0.0901
0001113175;4.4077;0.5459;-7.1491;-0.4535;0.1247;0.0763
0001113187;4.0127;0.4860;-7.0437;-0.4914;0.0978;0.0811
0001113195;3.9169;0.4214;-6.8450;-0.4990;0.0822;0.1132
0001113207;3.7421;0.3950;-6.7660;-0.5113;0.0642;0.1951
0001113215;3.8882;0.4166;-6.8115;-0.5307;0.0576;0.2518
0001113227;3.9528;0.4908;-6.9240;-0.5678;0.0632;0.3337
0001113235;4.0582;0.6177;-6.7732;-0.5889;0.0621;0.3726
0001113247;4.1468;0.7829;-6.6367;-0.5931;0.0466;0.4138
0001113255;4.2521;0.8092;-6.5410;-0.5915;0.0322;0.4209
0001113263;4.3910;1.0104;-6.5098;-0.5700;0.0105;0.4282
0001113275;4.4053;1.1588;-6.4500;-0.5404;-0.0085;0.4387
0001113283;4.3383;0.8380;-6.3662;-0.5187;-0.0349;0.4523
0001113295;4.4436;0.9290;-6.2896;-0.4728;-0.0750;0.4642
0001113303;4.4029;1.0056;-6.3327;-0.4639;-0.0893;0.4735
0001113315;4.4532;0.9697;-6.2991;-0.4565;-0.0986;0.4895
0001113323;4.3766;1.0367;-6.3638;-0.4531;-0.1042;0.4822
0001113331;4.7453;1.2641;-6.2106;-0.4550;-0.0973;0.4864
0001113344;4.5969;1.1923;-5.9328;-0.4331;-0.0993;0.4947
0001113353;4.6663;1.2761;-5.9352;-0.4198;-0.0859;0.4994
0001113422;5.0733;1.3336;-6.0669;-0.4732;-0.1003;0.4068
0001113431;5.0949;1.4461;-6.1076;-0.4719;-0.1010;0.3881
0001113444;5.1068;1.4868;-5.9999;-0.4990;-0.1100;0.3777
0001113453;5.0087;1.2713;-6.1004;-0.5124;-0.1053;0.3657
0001113466;5.1140;1.4461;-5.9209;-0.5401;-0.0918;0.3568
0001113475;5.0374;1.5419;-5.8706;-0.5461;-0.0859;0.3552
0001113484;5.0159;1.4557;-5.7796;-0.5572;-0.0701;0.3548
0001113497;4.9704;1.4796;-5.6360;-0.5493;-0.0506;0.3688
0001113506;5.2313;1.8316;-5.6407;-0.5372;-0.0521;0.3817
0001113519;5.4013;1.7885;-5.5354;-0.5231;-0.0541;0.3866
0001113528;5.3032;1.5610;-5.4253;-0.5183;-0.0558;0.3926
0001113541;5.3774;1.6592;-5.5067;-0.5228;-0.0653;0.3721
0001113550;5.6719;1.7430;-5.6096;-0.5205;-0.0755;0.3509
0001113563;5.6288;1.7885;-5.3726;-0.4994;-0.0914;0.3195
0001113572;5.6503;1.7693;-5.2744;-0.4662;-0.0950;0.2844
0001113585;5.6431;1.9417;-4.9249;-0.4397;-0.0874;0.2541
0001113594;5.7245;1.8699;-4.9536;-0.3989;-0.0814;0.2221
0001113603;5.8179;2.0901;-4.8722;-0.3028;-0.0838;0.1876
0001113616;5.8083;1.5562;-5.1858;-0.1528;-0.0638;0.1462
0001113625;5.7676;1.5203;-4.7597;-0.0398;-0.0390;0.1187
0001113638;5.9185;1.7765;-5.0637;0.0104;-0.0245;0.0842
0001113647;5.8514;1.8723;-5.1858;-0.0185;-0.0292;0.0669
0001113716;5.2577;2.4493;-4.7333;-0.0468;-0.0618;0.0617
0001113725;5.2720;2.4541;-4.6878;-0.0642;-0.0710;0.0394
0001113738;5.7509;1.9872;-4.7932;0.0028;-0.0581;0.0364
0001113747;5.7030;1.7526;-4.9105;0.0305;-0.0675;0.0153
0001113756;5.7030;1.7980;-5.0518;0.0349;-0.0517;0.0089
0001113769;5.6264;2.0925;-5.1763;0.0426;-0.0509;0.0148
0001113778;5.5043;2.0686;-5.1787;0.0569;-0.0594;0.0249
0001113791;5.5067;1.9537;-5.0853;0.0673;-0.0655;0.0614
0001113800;5.5402;1.8579;-5.0589;0.0822;-0.0663;0.0901
0001113813;5.5952;1.8938;-5.1427;0.0998;-0.0678;0.0986
0001113822;5.5091;1.9848;-5.1619;0.1162;-0.0749;0.0986
0001113831;5.6862;2.0016;-5.1858;0.1260;-0.0782;0.0845
0001113844;5.6695;1.7813;-5.2744;0.1202;-0.0636;0.0608
0001113853;5.6312;1.8244;-5.4085;0.1112;-0.0529;0.0490
0001113866;5.5833;1.8986;-5.4348;0.0981;-0.0554;0.0448
0001113875;5.5019;1.7693;-5.4109;0.0805;-0.0585;0.0517
0001113888;5.5306;1.8723;-5.4660;0.0685;-0.0717;0.0586
0001113897;5.6479;2.0207;-5.4253;0.0626;-0.0845;0.0586
0001113913;5.5713;1.7861;-5.3510;0.0460;-0.0777;0.0717
0001113922;5.7485;1.9465;-5.3893;0.0405;-0.0769;0.0687
0001113931;5.6934;1.7095;-5.2984;0.0280;-0.0685;0.0706
0001114000;5.6647;1.8675;-5.3582;-0.0398;-0.0606;0.0862
0001114009;5.4708;1.6328;-5.3726;-0.0393;-0.0737;0.0839
0001114021;5.5545;1.8268;-5.2864;-0.0425;-0.0754;0.0989
0001114030;5.5569;1.8938;-5.3846;-0.0462;-0.0806;0.1110
0001114043;5.6192;1.7789;-5.3199;-0.0485;-0.0767;0.1111
0001114052;5.7964;1.9321;-5.2696;-0.0504;-0.0706;0.1175
0001114061;5.9664;2.0016;-5.3056;-0.0400;-0.0702;0.1074
0001114073;5.9161;1.8747;-5.2170;-0.0281;-0.0644;0.0946
0001114082;5.9113;1.9130;-5.3295;-0.0330;-0.0500;0.0875
0001114095;5.8754;1.8459;-5.2648;-0.0325;-0.0398;0.0674
0001114104;5.8203;2.0183;-5.2265;-0.0264;-0.0418;0.0494
0001114116;5.9903;1.9465;-5.2648;-0.0234;-0.0274;0.0373
0001114125;5.7964;1.9297;-5.3463;-0.0215;-0.0253;0.0201
0001114138;5.8227;1.7741;-5.3558;-0.0245;-0.0153;0.0104
0001114147;5.9711;2.0399;-5.4133;-0.0330;-0.0013;0.0045
0001114156;5.8730;1.7789;-5.3870;-0.0305;-0.0061;-0.0071
0001114168;5.8562;1.7813;-5.2625;-0.0305;-0.0071;-0.0189
0001114177;5.8275;1.9249;-5.2744;-0.0324;0.0013;-0.0196
0001114190;5.8490;1.8364;-5.3151;-0.0320;-0.0059;-0.0365
0001114199;5.8778;1.8675;-5.2625;-0.0413;-0.0008;-0.0393
0001114269;5.8610;1.8747;-5.3654;-0.0707;-0.0027;-0.0652
0001114278;5.7628;1.8962;-5.3151;-0.0655;-0.0113;-0.0667
0001114291;5.8490;1.8268;-5.3175;-0.0681;-0.0055;-0.0649
0001114300;5.6838;1.7334;-5.2648;-0.0683;-0.0012;-0.0701
0001114312;5.6383;1.8052;-5.2864;-0.0690;0.0009;-0.0589
0001114321;5.7676;1.9297;-5.1356;-0.0513;-0.0057;-0.0622
0001114330;5.6623;1.8890;-5.2050;-0.0441;-0.0028;-0.0521
0001114343;5.7964;1.8962;-5.2696;-0.0376;-0.0107;-0.0513
0001114352;5.6383;1.8148;-5.2409;-0.0345;-0.0132;-0.0529
0001114364;5.6144;1.7957;-5.2505;-0.0252;-0.0149;-0.0540
0001114373;5.7437;1.8076;-5.2553;-0.0245;-0.0107;-0.0562
0001114386;5.9113;1.9345;-5.3151;-0.0237;-0.0049;-0.0433
0001114395;5.6790;1.7047;-5.3965;0.0092;-0.0144;-0.0382
0001114407;5.8490;1.7310;-5.3965;0.0659;-0.0185;-0.0221
0001114416;5.8251;1.5131;-5.1547;0.0883;-0.0079;-0.0136
0001114429;5.6743;1.8866;-5.5761;0.0835;-0.0140;-0.0288
0001114438;5.5498;2.0470;-5.1882;0.0246;-0.0084;-0.0265
0001114447;5.6431;2.2649;-5.1787;-0.0139;-0.0159;-0.0296
0001114459;5.6982;1.9465;-5.3654;-0.0297;-0.0262;-0.0216
0001114468;5.6790;1.5850;-5.3630;-0.0236;-0.0293;-0.0229
0001114481;5.7581;1.7645;-5.3654;-0.0163;-0.0226;-0.0128
0001114490;5.9161;1.7382;-5.3582;0.0249;-0.0245;-0.0075
0001114558;5.8371;1.9273;-5.3127;-0.0317;-0.0281;0.0048
0001114567;5.5282;1.8172;-5.2625;-0.0007;-0.0386;0.0025
0001114580;5.6910;1.8100;-5.3678;0.0273;-0.0353;0.0013
0001114589;5.7365;1.8268;-5.0422;0.0125;-0.0361;0.0234
0001114598;5.7892;2.1883;-5.3702;0.0043;-0.0390;0.0258
0001114610;5.7461;1.7980;-5.2170;0.0199;-0.0369;0.0310
0001114619;5.8251;1.9393;-5.2122;-0.0077;-0.0412;0.0313
0001114632;5.8802;1.9728;-5.3917;-0.0191;-0.0405;0.0316
0001114641;5.6934;1.7957;-5.1643;-0.0215;-0.0386;0.0269
0001114653;5.9209;1.8771;-5.3606;-0.0127;-0.0338;0.0216
0001114662;5.7365;1.8723;-5.3008;0.0039;-0.0430;0.0037
0001114675;5.8538;1.9632;-5.2720;-0.0003;-0.0416;0.0159
0001114684;5.8466;1.9273;-5.3606;-0.0129;-0.0354;0.0262
0001114693;5.8921;2.0159;-5.3103;-0.0152;-0.0341;0.0237
0001114705;5.8035;1.8627;-5.1332;-0.0116;-0.0378;0.0157
0001114714;5.8155;1.8890;-5.3702;-0.0248;-0.0340;0.0240
0001114727;5.8395;1.9297;-5.3989;-0.0349;-0.0340;0.0334
0001114736;5.7078;1.8723;-5.3295;-0.0226;-0.0436;0.0217
0001114748;5.7892;1.8244;-5.3103;-0.0060;-0.0396;0.0205
0001114757;5.8562;1.8555;-5.2816;-0.0067;-0.0414;0.0316
0001114770;5.8897;1.9082;-5.2912;-0.0257;-0.0402;0.0342
0001114779;5.7844;1.8459;-5.3127;-0.0205;-0.0390;0.0308
0001114788;5.9496;1.9944;-5.3415;-0.0172;-0.0329;0.0234
0001114856;5.9161;1.8579;-5.2170;-0.0207;-0.0228;0.0237
0001114865;5.7796;1.8316;-5.1978;-0.0237;-0.0225;0.0120
0001114878;5.9975;1.9537;-5.2505;-0.0180;-0.0233;0.0159
0001114887;5.9041;1.8866;-5.3056;-0.0196;-0.0184;0.0188
0001114899;5.8227;1.7214;-5.2026;-0.0133;-0.0282;0.0115
0001114908;5.7892;1.8579;-5.3103;-0.0163;-0.0213;0.0137
0001114921;5.9424;1.9369;-5.2816;-0.0168;-0.0191;0.0111
0001114930;5.8179;1.7885;-5.3103;-0.0155;-0.0216;0.0088
0001114939;5.9400;1.9800;-5.3654;-0.0159;-0.0337;0.0036
0001114951;5.8395;1.9130;-5.2912;-0.0276;-0.0289;0.0064
0001114960;5.8897;1.9992;-5.3367;-0.0228;-0.0304;0.0040
0001114973;5.9879;1.9561;-5.2912;-0.0209;-0.0176;0.0059
0001114982;5.8849;1.9321;-5.2481;-0.0205;-0.0187;0.0079
0001114994;5.8586;1.8866;-5.3295;-0.0207;-0.0204;0.0079
0001115003;5.8634;1.7957;-5.3415;-0.0280;-0.0103;0.0073
0001115016;6.0501;1.9034;-5.3295;-0.0324;-0.0137;0.0061
0001115025;5.8562;1.8603;-5.2840;-0.0211;-0.0238;0.0081
0001115034;5.8155;1.7980;-5.3391;-0.0326;-0.0167;0.0136
0001115046;5.9017;1.8794;-5.3151;-0.0336;-0.0160;0.0173
0001115055;5.8012;1.8220;-5.3630;-0.0252;-0.0232;0.0131
0001115068;6.0142;1.9680;-5.3151;-0.0320;-0.0192;0.0176
0001115077;5.9161;1.9848;-5.1930;-0.0229;-0.0222;0.0132
0001115146;5.8682;1.7957;-5.2768;-0.0159;-0.0352;0.0329
0001115155;5.9999;1.8555;-5.2505;-0.0151;-0.0376;0.0305
0001115168;5.8419;1.7861;-5.2984;-0.0084;-0.0357;0.0254
0001115177;5.8323;1.7502;-5.2768;-0.0079;-0.0313;0.0164
0001115186;5.8442;1.8986;-5.3151;-0.0081;-0.0324;0.0181
0001115198;6.0717;1.9680;-5.2744;-0.0149;-0.0280;0.0218
0001115207;5.9256;1.7861;-5.3319;-0.0183;-0.0205;0.0242
0001115220;5.9520;1.8579;-5.2505;-0.0179;-0.0245;0.0238
0001115229;6.0621;1.9010;-5.2840;-0.0167;-0.0298;0.0176
0001115241;5.9879;1.8531;-5.3654;-0.0144;-0.0308;0.0167
0001115250;6.1172;1.9800;-5.2768;-0.0103;-0.0424;0.0081
0001115263;5.9376;1.9297;-5.2888;-0.0144;-0.0369;0.0119
0001115272;6.1172;1.9106;-5.2936;-0.0111;-0.0373;0.0105
0001115281;6.1076;1.9728;-5.2050;-0.0179;-0.0342;0.0147
0001115293;5.9304;2.0087;-5.3103;-0.0159;-0.0382;0.0125
0001115302;6.0621;1.8459;-5.2864;-0.0056;-0.0477;0.0107
0001115315;6.0430;1.9082;-5.3343;-0.0024;-0.0502;0.0168
0001115324;5.9759;1.9058;-5.3726;-0.0121;-0.0453;0.0129
0001115336;6.0837;1.9680;-5.2912;-0.0107;-0.0446;0.0141
0001115345;5.9256;1.9225;-5.3295;0.0008;-0.0478;0.0080
0001115358;6.0214;1.9728;-5.2337;-0.0081;-0.0350;0.0153
0001115367;6.1411;1.9920;-5.2936;-0.0072;-0.0313;0.0143
0001115376;6.0118;1.9297;-5.3175;0.0040;-0.0356;0.0129
0001115444;6.0118;1.8627;-5.3582;-0.0035;-0.0382;-0.0027
0001115453;6.1651;1.9968;-5.3654;-0.0087;-0.0329;-0.0011
0001115467;6.2034;2.0901;-5.3103;-0.0053;-0.0398;-0.0017
0001115476;5.9161;1.8268;-5.2337;-0.0108;-0.0366;0.0085
0001115489;5.9687;1.8507;-5.2385;-0.0097;-0.0469;0.0135
0001115498;6.1675;1.9178;-5.2888;-0.0043;-0.0481;0.0144
0001115510;6.0406;1.8435;-5.3271;-0.0103;-0.0517;0.0185
0001115519;5.8849;1.8340;-5.3415;-0.0109;-0.0540;0.0136
0001115528;6.0190;1.7861;-5.2457;-0.0071;-0.0536;0.0087
0001115541;5.9400;1.8483;-5.2936;-0.0097;-0.0512;0.0080
0001115550;6.1100;1.9321;-5.2768;-0.0077;-0.0545;0.0041
0001115562;6.1316;2.0016;-5.3295;-0.0113;-0.0525;0.0005
0001115571;6.0166;1.8268;-5.3415;-0.0152;-0.0418;0.0011
0001115584;5.9640;1.7693;-5.3008;-0.0215;-0.0424;0.0012
0001115593;5.9999;1.8771;-5.3271;-0.0161;-0.0496;-0.0037
0001115605;6.0286;2.0159;-5.3774;-0.0143;-0.0545;-0.0067
0001115614;6.0645;1.9010;-5.3079;-0.0268;-0.0469;-0.0087
0001115627;6.1148;1.9249;-5.2744;-0.0256;-0.0361;-0.0196
0001115636;6.1459;2.0231;-5.2864;-0.0270;-0.0332;-0.0280
0001115645;6.1244;1.7861;-5.3558;-0.0308;-0.0306;-0.0360
0001115657;6.0358;1.9489;-5.3798;-0.0349;-0.0308;-0.0373
0001115666;6.1316;1.9489;-5.2577;-0.0360;-0.0282;-0.0453
0001115734;5.8442;1.8076;-5.1882;-0.0317;-0.0293;-0.0386
0001115743;5.9951;1.8771;-5.2170;-0.0306;-0.0302;-0.0394
0001115755;6.0597;1.8555;-5.3223;-0.0306;-0.0268;-0.0356
0001115764;6.0885;1.9393;-5.2936;-0.0211;-0.0325;-0.0396
0001115777;6.0597;1.9058;-5.2984;-0.0253;-0.0281;-0.0365
0001115786;5.9975;1.8555;-5.3008;-0.0241;-0.0338;-0.0373
0001115795;5.8897;1.8268;-5.4253;-0.0230;-0.0341;-0.0261
0001115807;5.9783;1.8579;-5.2792;-0.0237;-0.0412;-0.0252
0001115816;6.1699;1.9704;-5.3175;-0.0321;-0.0352;-0.0161
0001115829;5.9352;1.8004;-5.2433;-0.0274;-0.0397;-0.0184
0001115838;6.0693;1.8914;-5.1787;-0.0357;-0.0345;-0.0141
0001115850;5.8897;1.8004;-5.4061;-0.0373;-0.0358;-0.0160
0001115859;5.9664;1.8675;-5.3175;-0.0334;-0.0384;-0.0218
0001115872;5.9927;1.7813;-5.2505;-0.0357;-0.0342;-0.0205
0001115881;5.9017;1.9058;-5.2122;-0.0308;-0.0381;-0.0233
0001115893;6.0262;1.8531;-5.2098;-0.0280;-0.0356;-0.0188
0001115902;6.0358;1.8124;-5.2912;-0.0310;-0.0329;-0.0097
0001115911;5.9424;1.9034;-5.3008;-0.0242;-0.0373;-0.0155
0001115924;6.0765;1.9178;-5.3079;-0.0313;-0.0358;-0.0136
0001115933;5.8826;1.8268;-5.3056;-0.0260;-0.0325;-0.0237
0001115945;5.8993;1.8699;-5.2577;-0.0232;-0.0364;-0.0233
0001115954;6.0454;1.9225;-5.2313;-0.0286;-0.0276;-0.0129
0001116022;5.9735;2.0542;-5.3151;-0.0373;-0.0492;-0.0181
0001116031;5.9687;1.9321;-5.2744;-0.0374;-0.0450;-0.0139
0001116043;6.0118;1.9225;-5.3032;-0.0346;-0.0394;-0.0028
0001116052;5.9544;1.8483;-5.2744;-0.0321;-0.0474;-0.0084
0001116065;6.0142;1.8914;-5.2361;-0.0324;-0.0393;-0.0021
0001116074;5.9687;1.9728;-5.2289;-0.0334;-0.0382;-0.0080
0001116083;5.7676;1.7526;-5.1930;-0.0272;-0.0412;-0.0057
0001116095;5.9113;1.8890;-5.1906;-0.0328;-0.0341;0.0044
0001116104;5.9304;1.8603;-5.2337;-0.0318;-0.0368;0.0001
0001116117;5.9975;2.0159;-5.2337;-0.0257;-0.0424;-0.0085
0001116126;6.0358;1.9010;-5.2098;-0.0213;-0.0357;-0.0035
0001116138;6.1268;1.9417;-5.2625;-0.0185;-0.0366;-0.0095
0001116147;5.9951;1.9082;-5.2984;-0.0208;-0.0368;-0.0153
0001116160;5.9664;1.8603;-5.1571;-0.0168;-0.0353;-0.0127
0001116169;5.9185;2.0063;-5.1930;-0.0181;-0.0277;-0.0063
0001116181;6.0166;1.9585;-5.2337;-0.0159;-0.0254;-0.0037
0001116190;5.9951;1.8507;-5.1308;-0.0045;-0.0344;-0.0016
0001116199;6.0478;1.8962;-5.2002;-0.0171;-0.0272;0.0007
0001116212;5.9664;1.8962;-5.2241;-0.0049;-0.0304;-0.0095
0001116221;5.8682;1.8028;-5.2672;-0.0107;-0.0298;-0.0111
0001116233;6.0238;1.9465;-5.2170;-0.0048;-0.0288;-0.0139
0001116242;5.9185;1.8292;-5.2050;-0.0103;-0.0222;-0.0123
0001116310;6.0789;1.9106;-5.2984;-0.0105;-0.0257;-0.0153
0001116319;6.0047;1.7885;-5.2409;-0.0128;-0.0218;-0.0145
0001116331;6.1148;1.9345;-5.3415;-0.0104;-0.0269;-0.0173
0001116340;6.0047;2.0063;-5.2313;-0.0175;-0.0215;-0.0180
0001116353;6.0406;1.9321;-5.2409;-0.0221;-0.0204;-0.0144
0001116362;6.1052;1.9369;-5.2505;-0.0137;-0.0285;-0.0188
0001116371;5.8586;1.7119;-5.2385;-0.0185;-0.0306;-0.0196
0001116383;6.0621;1.9369;-5.2361;-0.0184;-0.0284;-0.0169
0001116392;6.0382;1.8818;-5.2696;-0.0121;-0.0285;-0.0200
0001116405;6.0980;2.1069;-5.3175;-0.0129;-0.0290;-0.0241
0001116414;5.9328;1.8675;-5.3534;-0.0213;-0.0232;-0.0192
0001116426;6.0214;1.9896;-5.2409;-0.0211;-0.0233;-0.0152
0001116435;6.0621;2.0830;-5.2840;-0.0181;-0.0333;-0.0187
0001116448;6.0310;1.9273;-5.2026;-0.0179;-0.0301;-0.0117
0001116457;6.1603;1.9944;-5.1332;-0.0236;-0.0215;-0.0063
0001116466;6.1172;1.8124;-5.2218;-0.0155;-0.0313;-0.0168
0001116478;6.0142;1.9561;-5.3319;-0.0215;-0.0304;-0.0183
0001116487;5.9735;1.9704;-5.2385;-0.0248;-0.0314;-0.0220
0001116500;5.8155;1.8292;-5.1667;-0.0230;-0.0285;-0.0211
0001116509;6.1723;2.0758;-5.2481;-0.0208;-0.0312;-0.0153
0001116521;5.8466;1.8627;-5.2026;-0.0132;-0.0349;-0.0167
0001116530;5.9735;1.8866;-5.2409;-0.0155;-0.0357;-0.0065
0001116598;5.9185;1.7789;-5.2050;-0.0276;-0.0418;-0.0139
0001116607;5.9209;1.7502;-5.2744;-0.0342;-0.0309;-0.0083
0001116619;6.1986;1.9872;-5.2960;-0.0349;-0.0348;-0.0157
0001116628;5.9352;1.8723;-5.1643;-0.0393;-0.0312;-0.0057
0001116637;6.0645;2.0063;-5.3391;-0.0342;-0.0313;-0.0089
0001116650;6.0837;1.9632;-5.2433;-0.0328;-0.0330;-0.0043
0001116659;6.0166;1.9609;-5.1523;-0.0256;-0.0412;-0.0136
0001116671;6.0741;1.9872;-5.1643;-0.0213;-0.0376;-0.0160
0001116680;6.0932;2.0231;-5.1930;-0.0249;-0.0284;-0.0097
0001116693;6.0525;1.9154;-5.1906;-0.0248;-0.0296;-0.0095
0001116702;6.0789;1.9225;-5.2816;-0.0233;-0.0350;-0.0108
0001116714;6.0190;1.9345;-5.1595;-0.0209;-0.0301;-0.0121
0001116723;5.8562;1.7861;-5.1787;-0.0217;-0.0276;-0.0143
0001116736;6.1196;2.0207;-5.2050;-0.0208;-0.0357;-0.0177
0001116745;5.9520;1.8028;-5.1523;-0.0169;-0.0318;-0.0159
0001116754;6.0717;2.0039;-5.2457;-0.0179;-0.0308;-0.0147
0001116766;6.1579;2.0255;-5.2696;-0.0200;-0.0305;-0.0143
0001116775;6.0190;1.9297;-5.2457;-0.0172;-0.0378;-0.0230
0001116788;6.0094;1.9393;-5.2433;-0.0167;-0.0361;-0.0221
0001116797;6.0382;2.0207;-5.1380;-0.0266;-0.0317;-0.0156
0001116809;6.0932;1.9010;-5.2146;-0.0285;-0.0310;-0.0157
0001116818;5.8682;1.9130;-5.1811;-0.0273;-0.0344;-0.0192
0001116887;6.0525;1.9273;-5.2529;-0.0334;-0.0274;-0.0164
0001116896;6.0669;1.9249;-5.3103;-0.0277;-0.0364;-0.0241
0001116908;6.0238;2.0638;-5.1739;-0.0278;-0.0324;-0.0169
0001116915;6.0334;1.9968;-5.2050;-0.0211;-0.0350;-0.0217
0001116923;6.1962;2.0901;-5.1906;-0.0211;-0.0302;-0.0157
0001116934;6.0047;1.8387;-5.1906;-0.0237;-0.0312;-0.0107
0001116942;6.0621;1.9609;-5.1811;-0.0153;-0.0321;-0.0133
0001116954;5.8610;1.5083;-5.2984;0.0358;-0.0336;-0.0293
0001116962;5.9328;1.7071;-5.2361;0.0318;-0.0322;-0.0228
0001116973;5.9592;2.1596;-5.1595;0.0123;-0.0342;-0.0116
0001116981;6.1100;2.2338;-5.0877;0.0084;-0.0360;-0.0072
0001116993;5.9903;2.0303;-5.1906;-0.0091;-0.0445;-0.0049
0001117001;6.0597;1.9106;-5.1787;-0.0135;-0.0356;-0.0099
0001117009;6.0406;1.9297;-5.2241;-0.0181;-0.0338;-0.0133
0001117021;5.9185;1.8938;-5.1499;-0.0143;-0.0350;-0.0109
0001117028;5.9879;1.8794;-5.2313;-0.0163;-0.0312;-0.0068
0001117040;5.8873;1.8268;-5.1667;-0.0128;-0.0337;-0.0039
0001117048;6.0358;1.8723;-5.2625;-0.0121;-0.0408;-0.0129
0001117059;5.9807;1.9585;-5.1954;-0.0184;-0.0325;-0.0116
0001117067;6.2776;1.9800;-5.1715;-0.0144;-0.0361;-0.0185
