time;acc_x;acc_y;acc_z;gyro_x;gyro_y;gyro_z
0001288410;6.4045;2.4876;2.0901;-0.0546;-0.1030;-0.0189
0001288418;6.2584;2.5474;2.2051;-0.0488;-0.1095;-0.0213
0001288425;6.3255;2.5331;2.1404;-0.0436;-0.1168;-0.0224
0001288433;6.5434;2.7629;2.1476;-0.0346;-0.1136;-0.0233
0001288441;6.4715;2.7342;2.1213;-0.0370;-0.1106;-0.0201
0001288449;6.5410;2.6288;2.1261;-0.0356;-0.1115;-0.0205
0001288457;6.3566;2.6312;2.0997;-0.0326;-0.1050;-0.0208
0001288465;6.5434;2.5953;2.1141;-0.0270;-0.1059;-0.0201
0001288473;6.6846;2.8299;2.1668;-0.0282;-0.0973;-0.0196
0001288481;6.5218;2.6647;2.1644;-0.0274;-0.0931;-0.0179
0001288489;6.5386;2.7031;2.0782;-0.0233;-0.0879;-0.0222
0001288497;6.4739;2.6624;2.0518;-0.0169;-0.0909;-0.0229
0001288505;6.4404;2.6217;2.1452;-0.0196;-0.0818;-0.0196
0001288513;6.5170;2.6839;2.1308;-0.0175;-0.0847;-0.0136
0001288521;6.3805;2.6480;2.1261;-0.0095;-0.0823;-0.0143
0001288529;6.3303;2.4493;2.1284;-0.0064;-0.0802;-0.0137
0001288537;6.4236;2.6600;2.1332;-0.0103;-0.0766;-0.0080
0001288545;6.4069;2.5953;2.1955;-0.0133;-0.0802;-0.0085
0001288553;6.4691;2.7414;2.1284;-0.0111;-0.0813;-0.0181
0001288561;6.4332;2.5738;2.0662;-0.0056;-0.0829;-0.0176
0001288569;6.3710;2.6935;2.0997;-0.0051;-0.0771;-0.0156
0001288577;6.4931;2.6624;2.0542;-0.0093;-0.0733;-0.0171
0001288585;6.6343;2.8108;2.1069;-0.0092;-0.0691;-0.0185
0001288593;6.4835;2.6839;2.0830;-0.0112;-0.0658;-0.0137
0001288601;6.5266;2.6576;2.0566;-0.0092;-0.0685;-0.0216
0001288609;6.4596;2.6097;2.1308;-0.0069;-0.0606;-0.0165
0001288617;6.4835;2.6887;2.0734;-0.0147;-0.0485;-0.0161
0001288625;6.5338;2.6600;2.1165;-0.0091;-0.0534;-0.0153
0001288633;6.4380;2.6169;2.1931;-0.0096;-0.0481;-0.0123
0001288641;6.5266;2.7892;2.1668;-0.0125;-0.0453;-0.0121
0001288649;6.4404;2.6624;2.1093;-0.0104;-0.0450;-0.0171
0001288657;6.3997;2.4828;2.1141;-0.0047;-0.0465;-0.0207
0001288665;6.5242;2.6647;2.1476;-0.0101;-0.0349;-0.0149
0001288673;6.4931;2.6839;2.0734;-0.0097;-0.0329;-0.0140
0001288681;6.4907;2.7031;2.1500;-0.0061;-0.0332;-0.0148
0001288689;6.4141;2.6001;2.0877;-0.0001;-0.0386;-0.0217
0001288697;6.5625;2.6911;2.1787;-0.0007;-0.0342;-0.0189
0001288705;6.5122;2.6456;2.0518;-0.0033;-0.0250;-0.0168
0001288713;6.3829;2.5307;2.1021;-0.0027;-0.0196;-0.0153
0001288721;6.4524;2.7294;2.1811;0.0040;-0.0253;-0.0147
0001288729;6.5242;2.6695;2.1237;0.0000;-0.0197;-0.0101
0001288737;6.3805;2.6169;2.0207;-0.0040;-0.0151;-0.0052
0001288745;6.3901;2.6719;2.1213;-0.0079;-0.0140;-0.0096
0001288753;6.5625;2.7940;2.0375;-0.0121;-0.0209;-0.0187
0001288761;6.5864;2.8204;2.1500;-0.0119;-0.0164;-0.0203
0001288769;6.4931;2.7940;2.0758;-0.0205;-0.0069;-0.0199
0001288777;6.6295;2.7198;2.0973;-0.0218;-0.0129;-0.0197
0001288785;6.3829;2.6264;2.1955;-0.0172;-0.0116;-0.0188
0001288793;6.4859;2.5738;2.1093;-0.0115;-0.0113;-0.0116
0001288801;6.3518;2.4948;2.2841;-0.0084;-0.0147;-0.0148
0001288809;6.2848;2.5187;2.1021;-0.0017;-0.0175;-0.0100
0001288817;6.4691;2.7007;2.0806;0.0005;-0.0179;-0.0133
0001288825;6.5074;2.6695;2.1069;-0.0005;-0.0208;-0.0091
0001288833;6.2752;2.6217;1.9920;0.0040;-0.0232;-0.0080
0001288841;6.5074;2.7078;2.0758;-0.0037;-0.0216;-0.0048
0001288849;6.3997;2.6169;2.1811;-0.0045;-0.0201;-0.0063
0001288857;6.4620;2.7078;2.0949;-0.0100;-0.0241;-0.0133
0001288865;6.4117;2.7605;2.1644;-0.0065;-0.0322;-0.0163
0001288873;6.3877;2.5905;2.1715;-0.0029;-0.0293;-0.0132
0001288881;6.5745;2.6240;2.1380;-0.0041;-0.0274;-0.0128
0001288889;6.3949;2.5355;2.0949;0.0021;-0.0344;-0.0185
0001288897;6.3015;2.5402;2.1021;0.0017;-0.0318;-0.0128
0001288905;6.3805;2.6145;2.0566;0.0008;-0.0338;-0.0208
0001288913;6.3997;2.8539;2.1261;0.0084;-0.0394;-0.0253
0001288921;6.3183;2.5426;2.1787;0.0019;-0.0421;-0.0215
0001288929;6.6559;2.8012;2.1332;0.0053;-0.0490;-0.0260
0001288937;6.2560;2.5666;2.0782;0.0032;-0.0478;-0.0273
0001288945;6.4667;2.7174;2.1404;-0.0053;-0.0482;-0.0264
0001288953;6.5146;2.9018;2.1165;-0.0125;-0.0452;-0.0261
0001288961;6.5505;2.7509;2.0830;-0.0081;-0.0481;-0.0285
0001288969;6.4045;2.6767;2.1117;-0.0033;-0.0537;-0.0344
0001288977;6.4859;2.6001;2.1308;-0.0105;-0.0470;-0.0269
0001289004;6.3183;2.4756;2.1835;-0.0137;-0.0453;-0.0221
0001289012;6.4835;2.5857;2.1811;-0.0073;-0.0554;-0.0237
0001289020;6.4045;2.5474;2.1213;-0.0063;-0.0469;-0.0179
0001289028;6.5003;2.7342;2.0973;-0.0072;-0.0484;-0.0200
0001289036;6.3638;2.5618;2.0494;-0.0057;-0.0506;-0.0281
0001289044;6.3590;2.5402;2.0590;-0.0036;-0.0521;-0.0249
0001289052;6.4452;2.6983;2.1668;-0.0080;-0.0449;-0.0180
0001289060;6.5649;2.6552;2.0279;-0.0089;-0.0484;-0.0268
0001289068;6.6080;2.7892;2.0518;-0.0069;-0.0489;-0.0273
0001289076;6.5841;2.7725;2.1069;-0.0099;-0.0462;-0.0207
0001289084;6.4643;2.7270;2.1237;-0.0175;-0.0469;-0.0241
0001289092;6.4141;2.6480;2.1739;-0.0143;-0.0418;-0.0205
0001289100;6.5170;2.7078;2.0446;-0.0151;-0.0392;-0.0240
0001289108;6.2824;2.4924;2.0782;-0.0167;-0.0368;-0.0217
0001289116;6.4476;2.6336;2.1261;-0.0164;-0.0405;-0.0212
0001289124;6.3901;2.4541;2.0686;-0.0099;-0.0444;-0.0234
0001289132;6.4045;2.5594;2.1500;-0.0039;-0.0482;-0.0262
0001289140;6.6128;2.6288;2.1404;-0.0013;-0.0449;-0.0229
0001289148;6.3901;2.5714;2.0997;-0.0073;-0.0394;-0.0192
0001289156;6.6080;2.8276;2.1596;-0.0012;-0.0464;-0.0242
0001289164;6.5434;2.8252;2.0925;0.0013;-0.0434;-0.0215
0001289172;6.5170;2.7342;2.1739;-0.0093;-0.0414;-0.0172
0001289180;6.4260;2.6791;2.0446;-0.0075;-0.0445;-0.0208
0001289188;6.4236;2.7246;2.0183;-0.0067;-0.0422;-0.0221
0001289196;6.6511;2.8204;2.0638;-0.0096;-0.0384;-0.0168
0001289204;6.4643;2.7054;2.0063;-0.0153;-0.0390;-0.0181
0001289212;6.3853;2.6887;2.1572;-0.0192;-0.0382;-0.0171
0001289220;6.3542;2.4924;2.1620;-0.0180;-0.0425;-0.0229
0001289228;6.4141;2.6145;2.0494;-0.0161;-0.0420;-0.0195
0001289236;6.1986;2.4876;2.1021;-0.0109;-0.0481;-0.0221
0001289244;6.4141;2.7581;2.2458;-0.0055;-0.0474;-0.0184
0001289252;6.2297;2.5283;2.1404;-0.0109;-0.0428;-0.0129
0001289260;6.4452;2.7318;2.1069;-0.0081;-0.0412;-0.0080
0001289268;6.3853;2.6121;2.0877;-0.0049;-0.0545;-0.0169
0001289276;6.4356;2.7653;2.1907;-0.0125;-0.0470;-0.0160
0001289284;6.4859;2.7318;2.0997;-0.0176;-0.0422;-0.0133
0001289292;6.6272;2.7653;2.0925;-0.0199;-0.0397;-0.0179
0001289300;6.2082;2.3942;2.1572;-0.0097;-0.0464;-0.0176
0001289308;6.5649;2.7749;2.1332;-0.0085;-0.0404;-0.0117
0001289316;6.3853;2.6647;2.0901;-0.0107;-0.0380;-0.0096
0001289324;6.3614;2.7007;2.0111;-0.0115;-0.0380;-0.0079
0001289332;6.4021;2.6193;2.0470;-0.0101;-0.0440;-0.0164
0001289340;6.4117;2.6432;2.1356;-0.0093;-0.0482;-0.0128
0001289348;6.3662;2.6815;2.1284;-0.0164;-0.0429;-0.0157
0001289356;6.4763;2.7533;2.0830;-0.0149;-0.0501;-0.0201
0001289364;6.4141;2.6695;2.1811;-0.0203;-0.0542;-0.0151
0001289372;6.5673;2.7821;2.1620;-0.0234;-0.0478;-0.0104
0001289380;6.4260;2.5235;2.1069;-0.0226;-0.0513;-0.0116
0001289388;6.3901;2.6145;2.0662;-0.0238;-0.0552;-0.0144
0001289396;6.4045;2.5043;2.1428;-0.0189;-0.0556;-0.0140
0001289404;6.4979;2.5211;2.1500;-0.0185;-0.0556;-0.0244
0001289412;6.5338;2.6983;2.1691;-0.0192;-0.0517;-0.0196
0001289420;6.5625;2.5235;2.1500;-0.0157;-0.0573;-0.0241
0001289428;6.4404;2.6001;2.0853;-0.0208;-0.0458;-0.0181
0001289436;6.5434;2.8204;2.0446;-0.0191;-0.0510;-0.0264
0001289444;6.3997;2.6815;1.9992;-0.0289;-0.0445;-0.0189
0001289452;6.4691;2.7007;2.0662;-0.0265;-0.0488;-0.0261
0001289460;6.5027;2.7438;2.1069;-0.0348;-0.0404;-0.0191
0001289468;6.4260;2.6839;2.0734;-0.0464;-0.0393;-0.0196
0001289476;6.2991;2.6815;2.1165;-0.0504;-0.0438;-0.0228
0001289484;6.4691;2.8515;2.1021;-0.0444;-0.0474;-0.0252
0001289492;6.5218;2.8802;2.1332;-0.0473;-0.0414;-0.0163
0001289500;6.5122;2.7414;2.1524;-0.0518;-0.0398;-0.0169
0001289508;6.4236;2.6791;2.1165;-0.0512;-0.0349;-0.0179
0001289516;6.4189;2.7078;2.1691;-0.0502;-0.0397;-0.0163
0001289524;6.2728;2.7174;2.1284;-0.0508;-0.0440;-0.0222
0001289532;6.5266;2.6408;2.1356;-0.0466;-0.0440;-0.0201
0001289540;6.4380;2.7414;2.1213;-0.0521;-0.0390;-0.0151
0001289548;6.5697;2.5762;2.1883;-0.0541;-0.0417;-0.0203
0001289556;6.3734;2.5426;2.2075;-0.0460;-0.0441;-0.0241
0001289564;6.5170;2.6480;2.0997;-0.0473;-0.0433;-0.0181
0001289572;6.5098;2.6695;2.2721;-0.0466;-0.0412;-0.0135
0001289657;6.3925;2.5474;2.2098;-0.0264;-0.0446;-0.0115
0001289665;6.5553;2.6791;2.1739;-0.0221;-0.0501;-0.0187
0001289673;6.5457;2.6217;2.1476;-0.0149;-0.0489;-0.0236
0001289681;6.3398;2.6647;2.1620;-0.0131;-0.0496;-0.0137
0001289689;6.3877;2.5618;2.2529;-0.0176;-0.0424;-0.0133
0001289697;6.3853;2.5067;2.2266;-0.0104;-0.0418;-0.0131
0001289705;6.4691;2.6384;2.1404;-0.0060;-0.0413;-0.0155
0001289713;6.3877;2.6025;2.2098;-0.0071;-0.0390;-0.0075
0001289721;6.4548;2.6384;2.2386;-0.0113;-0.0312;-0.0083
0001289729;6.2776;2.6097;2.0662;-0.0173;-0.0297;-0.0111
0001289737;6.4835;2.6743;2.1045;-0.0123;-0.0346;-0.0131
0001289745;6.4596;2.6073;2.1931;-0.0157;-0.0304;-0.0124
0001289753;6.6224;2.9137;2.1141;-0.0205;-0.0276;-0.0108
0001289761;6.4643;2.6695;2.2003;-0.0189;-0.0234;-0.0143
0001289769;6.4596;2.6959;2.1548;-0.0217;-0.0254;-0.0147
0001289777;6.4021;2.6025;2.1979;-0.0137;-0.0286;-0.0164
0001289785;6.4907;2.7054;2.1117;-0.0143;-0.0199;-0.0104
0001289793;6.3614;2.4972;2.1524;-0.0183;-0.0155;-0.0057
0001289801;6.4811;2.7557;2.2122;-0.0147;-0.0191;-0.0068
0001289809;6.4907;2.5881;2.0925;-0.0101;-0.0143;-0.0051
0001289817;6.5027;2.6839;2.0853;-0.0179;-0.0081;0.0052
0001289825;6.5577;2.9137;2.1141;-0.0265;-0.0043;0.0007
0001289833;6.5003;2.7102;2.1189;-0.0240;-0.0100;-0.0031
0001289841;6.4236;2.5546;2.1189;-0.0269;-0.0045;-0.0023
0001289849;6.5553;2.7677;2.1284;-0.0310;0.0007;-0.0008
0001289857;6.3159;2.5259;2.2146;-0.0309;-0.0043;-0.0017
0001289865;6.3614;2.4900;2.2194;-0.0201;0.0012;-0.0019
0001289873;6.1723;2.4349;2.2434;-0.0103;-0.0104;-0.0025
0001289881;6.2608;2.6097;2.1117;0.0008;-0.0148;0.0029
0001289889;6.3686;2.6193;2.0901;0.0117;-0.0173;0.0076
0001289897;6.3375;2.6959;2.1979;0.0052;-0.0176;0.0071
0001289905;6.4284;2.7150;2.1237;0.0041;-0.0213;0.0064
0001289913;6.3782;2.6911;2.1308;-0.0031;-0.0253;0.0019
0001289921;6.4548;2.7438;2.1213;0.0001;-0.0338;-0.0031
0001289929;6.4907;2.6025;2.1308;0.0048;-0.0354;-0.0087
0001289937;6.4931;2.5929;2.1141;-0.0031;-0.0334;-0.0072
0001289945;6.4763;2.5546;2.1356;0.0055;-0.0418;-0.0108
0001289953;6.5769;2.5738;2.0734;0.0124;-0.0389;-0.0083
0001289961;6.5960;2.6001;2.1835;0.0088;-0.0372;-0.0037
0001289969;6.4931;2.7126;2.1811;0.0156;-0.0398;-0.0084
0001289977;6.4500;2.4445;2.1189;0.0288;-0.0490;-0.0111
0001289985;6.5505;2.7150;2.1021;0.0289;-0.0440;-0.0053
0001289993;6.4189;2.6240;2.1069;0.0346;-0.0441;-0.0029
0001290001;6.4284;2.6935;2.0997;0.0369;-0.0512;-0.0045
0001290009;6.4069;2.7461;2.0039;0.0457;-0.0558;-0.0123
0001290017;6.4979;2.8012;2.0183;0.0392;-0.0537;-0.0073
0001290025;6.5912;2.8419;2.0135;0.0262;-0.0506;-0.0036
0001290033;6.6511;2.8659;1.9441;0.0209;-0.0494;-0.0003
0001290041;6.6607;2.9257;2.0566;0.0181;-0.0513;-0.0023
0001290049;6.4739;2.7485;2.1117;0.0191;-0.0554;-0.0017
0001290057;6.3997;2.7318;2.0710;0.0123;-0.0481;0.0041
0001290065;6.6343;2.7701;1.9992;0.0121;-0.0496;-0.0021
0001290073;6.4859;2.7174;2.1117;0.0188;-0.0569;-0.0093
0001290081;6.3566;2.5881;2.0901;0.0124;-0.0576;-0.0059
0001290089;6.6224;2.7940;2.0877;0.0131;-0.0629;-0.0099
0001290097;6.4380;2.6911;2.0782;0.0137;-0.0609;-0.0113
0001290105;6.4452;2.6863;2.0949;0.0153;-0.0653;-0.0117
0001290113;6.6056;2.7964;1.9872;0.0153;-0.0617;-0.0084
0001290121;6.5027;2.7342;2.0542;0.0149;-0.0701;-0.0125
0001290129;6.3614;2.5714;1.9872;0.0136;-0.0698;-0.0129
0001290137;6.4572;2.8108;1.9273;0.0005;-0.0646;-0.0105
0001290145;6.6415;2.7485;2.0111;-0.0051;-0.0593;-0.0119
0001290153;6.5362;2.7677;2.0327;-0.0076;-0.0666;-0.0145
0001290161;6.5266;2.6911;2.0470;-0.0136;-0.0570;-0.0140
0001290169;6.6990;2.8252;1.9944;-0.0169;-0.0549;-0.0149
0001290177;6.5122;2.6959;2.0375;-0.0181;-0.0548;-0.0184
0001290185;6.6535;2.8036;2.0207;-0.0163;-0.0610;-0.0241
0001290193;6.5218;2.5738;2.0877;-0.0218;-0.0550;-0.0168
0001290201;6.4811;2.5187;2.0901;-0.0209;-0.0608;-0.0212
0001290209;6.6248;2.7222;2.1261;-0.0221;-0.0533;-0.0175
0001290217;6.5745;2.6863;2.1787;-0.0177;-0.0564;-0.0153
0001290225;6.3734;2.5307;2.0949;-0.0108;-0.0649;-0.0192
0001290310;6.4332;2.6647;2.0638;-0.0183;-0.0678;-0.0149
0001290318;6.5912;2.6863;2.1380;-0.0103;-0.0730;-0.0212
0001290326;6.4548;2.6887;2.0830;-0.0152;-0.0689;-0.0175
0001290334;6.5146;2.6408;2.1811;-0.0039;-0.0695;-0.0234
0001290342;6.5553;2.6193;2.1069;-0.0001;-0.0666;-0.0191
0001290350;6.5218;2.5570;2.1284;0.0019;-0.0661;-0.0157
0001290358;6.6559;2.6911;2.0351;0.0005;-0.0678;-0.0193
0001290366;6.2680;2.6576;2.0997;0.0043;-0.0729;-0.0226
0001290374;6.3877;2.7342;2.1524;-0.0017;-0.0718;-0.0237
0001290382;6.5553;2.8778;2.0758;-0.0083;-0.0741;-0.0318
0001290390;6.6319;2.9329;2.1596;-0.0131;-0.0677;-0.0325
0001290398;6.4835;2.7126;2.1476;-0.0234;-0.0649;-0.0310
0001290406;6.5649;2.8778;2.1021;-0.0222;-0.0661;-0.0352
0001290414;6.3734;2.6264;2.1189;-0.0091;-0.0713;-0.0333
0001290422;6.4189;2.7557;2.1332;-0.0044;-0.0749;-0.0280
0001290430;6.4811;2.6504;2.0758;-0.0077;-0.0747;-0.0282
0001290438;6.2896;2.6121;2.1428;-0.0041;-0.0814;-0.0318
0001290446;6.3973;2.7126;2.1715;-0.0101;-0.0841;-0.0277
0001290454;6.3494;2.5546;2.1500;-0.0084;-0.0870;-0.0289
0001290462;6.2872;2.7078;2.3391;-0.0065;-0.0959;-0.0393
0001290470;6.2848;2.7629;2.2769;-0.0025;-0.1006;-0.0357
0001290478;6.3518;2.5570;2.1500;-0.0063;-0.0997;-0.0318
0001290486;6.5050;2.8850;2.2242;-0.0089;-0.0946;-0.0297
0001290494;6.3542;2.5570;2.2362;-0.0149;-0.0898;-0.0237
0001290502;6.5314;2.7869;2.1237;-0.0143;-0.0907;-0.0312
0001290510;6.4907;2.5187;2.2410;-0.0081;-0.0930;-0.0324
0001290518;6.4715;2.5139;2.1835;-0.0108;-0.0859;-0.0257
0001290526;6.3925;2.6432;2.2529;-0.0065;-0.0891;-0.0288
0001290534;6.4572;2.5546;2.2601;-0.0005;-0.0878;-0.0280
0001290542;6.4212;2.5977;2.1931;-0.0041;-0.0810;-0.0230
0001290550;6.4356;2.7629;2.2194;-0.0017;-0.0803;-0.0203
0001290558;6.4452;2.7869;2.1979;-0.0064;-0.0815;-0.0183
0001290566;6.5050;2.8778;2.1261;-0.0085;-0.0846;-0.0244
0001290574;6.3159;2.8587;2.2386;-0.0273;-0.0750;-0.0152
0001290582;6.2584;2.8491;2.2505;-0.0392;-0.0694;-0.0092
0001290590;6.4739;2.9544;2.2266;-0.0546;-0.0683;-0.0063
0001290598;6.4117;2.9042;2.3248;-0.0702;-0.0590;-0.0011
0001290606;6.6511;2.9473;2.4134;-0.0798;-0.0525;0.0032
0001290614;6.4835;2.7629;2.4157;-0.0915;-0.0496;-0.0023
0001290622;6.5601;2.7653;2.5474;-0.0918;-0.0445;-0.0071
0001290630;6.4045;2.6169;2.5211;-0.1003;-0.0429;-0.0092
0001290638;6.5793;2.7869;2.4229;-0.0975;-0.0465;-0.0120
0001290646;6.1292;2.4636;2.6193;-0.0966;-0.0420;-0.0128
0001290654;6.4308;2.5163;2.5953;-0.0914;-0.0533;-0.0156
0001290662;6.1675;2.5570;2.6935;-0.0819;-0.0661;-0.0185
0001290670;6.2824;2.6384;2.6169;-0.0837;-0.0709;-0.0147
0001290678;6.1699;2.5331;2.5618;-0.0799;-0.0866;-0.0192
0001290686;6.1603;2.5307;2.6767;-0.0755;-0.1053;-0.0269
0001290694;5.9592;2.5043;2.6025;-0.0706;-0.1154;-0.0252
0001290702;6.1699;2.6288;2.6671;-0.0677;-0.1280;-0.0312
0001290710;6.2177;2.6217;2.6432;-0.0590;-0.1467;-0.0348
0001290718;6.1507;2.2889;2.6169;-0.0593;-0.1508;-0.0250
0001290726;6.2800;2.4181;2.6073;-0.0538;-0.1518;-0.0252
0001290734;6.3255;2.3846;2.6384;-0.0469;-0.1587;-0.0278
0001290742;6.4524;2.3703;2.5331;-0.0361;-0.1568;-0.0261
0001290750;6.5793;2.3631;2.6624;-0.0248;-0.1584;-0.0280
0001290758;6.5434;2.4253;2.5402;-0.0216;-0.1478;-0.0195
0001290766;6.4260;2.3559;2.5642;-0.0167;-0.1375;-0.0165
0001290774;6.4356;2.3846;2.6049;-0.0097;-0.1351;-0.0172
0001290782;6.3925;2.2290;2.4062;0.0000;-0.1298;-0.0123
0001290790;6.4667;2.5163;2.4876;0.0033;-0.1138;-0.0028
0001290798;6.3542;2.3703;2.4972;0.0015;-0.1062;0.0100
0001290806;6.4620;2.5929;2.4972;0.0007;-0.1021;0.0112
0001290814;6.2321;2.4469;2.4565;-0.0023;-0.1026;0.0228
0001290822;6.1244;2.3990;2.5809;-0.0019;-0.1070;0.0241
0001290830;6.3662;2.6480;2.6264;0.0012;-0.1142;0.0314
0001290838;6.0023;2.4828;2.6935;-0.0029;-0.1120;0.0349
0001290846;6.1866;2.4804;2.7270;0.0061;-0.1192;0.0348
0001290854;6.0789;2.3200;2.7414;0.0156;-0.1244;0.0376
0001290862;6.3039;2.4828;2.8659;0.0266;-0.1298;0.0354
0001290870;6.2632;2.2051;2.8347;0.0416;-0.1402;0.0340
0001290878;6.3398;2.2601;2.8443;0.0642;-0.1512;0.0273
0001290886;6.2345;1.9992;2.8659;0.0853;-0.1567;0.0278
0001290972;6.2824;1.6879;3.1723;0.3329;-0.2046;0.0009
0001290980;6.5194;1.8818;3.0957;0.3500;-0.1985;-0.0016
0001290988;6.4859;1.9752;3.1173;0.3539;-0.1939;-0.0071
0001290996;6.5027;2.1907;2.9688;0.3599;-0.1933;-0.0144
0001291004;6.6655;2.2338;2.8467;0.3251;-0.1653;-0.0344
0001291012;6.7612;2.7031;2.9928;0.3171;-0.1651;-0.0183
0001291020;6.7756;2.8994;3.1029;0.2770;-0.1366;-0.0128
0001291028;6.6583;2.9544;3.0957;0.2346;-0.1234;-0.0011
0001291036;6.7014;3.2298;3.1173;0.1713;-0.1128;-0.0011
0001291044;6.6702;3.2346;3.1627;0.0999;-0.0906;-0.0005
0001291052;6.7109;3.4644;3.1125;0.0245;-0.0762;0.0123
0001291060;6.4117;3.4189;3.3112;-0.0494;-0.0642;0.0137
0001291068;6.3829;3.5195;3.5027;-0.1195;-0.0569;0.0107
0001291076;6.2560;3.4836;3.7254;-0.1897;-0.0457;0.0177
0001291084;6.2010;3.4189;3.8547;-0.2586;-0.0364;0.0169
0001291092;6.2369;3.3782;3.8786;-0.3387;-0.0364;0.0136
0001291100;6.1651;3.4046;3.9959;-0.4401;-0.0217;0.0173
0001291108;6.2201;3.2848;4.2737;-0.5228;-0.0284;0.0211
0001291116;6.1052;3.0550;4.7238;-0.5895;-0.0362;0.0177
0001291124;5.9376;2.9664;4.4412;-0.6983;-0.0528;0.0124
0001291132;5.9233;2.8132;4.6759;-0.7869;-0.0734;0.0192
0001291140;5.9113;2.6121;4.4436;-0.8848;-0.0910;0.0080
0001291148;5.9592;2.5786;4.0318;-0.9824;-0.1279;-0.0077
0001291156;5.8299;2.1763;3.6775;-1.0806;-0.1529;-0.0358
0001291164;5.8012;2.0686;3.3232;-1.2089;-0.1853;-0.0468
0001291172;6.2177;2.1117;2.4972;-1.3844;-0.2101;-0.0742
0001291180;6.1962;1.6448;1.4269;-1.5885;-0.2274;-0.1062
0001291188;6.6224;1.3862;0.1915;-1.7942;-0.2569;-0.1460
0001291196;7.0246;0.9098;-0.8452;-2.0050;-0.2801;-0.2032
0001291204;7.2113;-0.0215;-2.1284;-2.2124;-0.2982;-0.2590
0001291212;7.4005;-1.1181;-3.0478;-2.4243;-0.3040;-0.3184
0001291220;7.3694;-2.3296;-3.4979;-2.5940;-0.2996;-0.3760
0001291228;7.3454;-3.6536;-3.7972;-2.7454;-0.2943;-0.4267
0001291236;7.1443;-4.8052;-4.0773;-2.8719;-0.2822;-0.4435
0001291244;6.9743;-6.1196;-4.1492;-2.9299;-0.2955;-0.4371
0001291252;7.0054;-7.2832;-4.3359;-2.9432;-0.3216;-0.4174
0001291260;6.8618;-8.8657;-4.0438;-2.9292;-0.3227;-0.3447
0001291268;7.2449;-9.9982;-3.4524;-2.8160;-0.3019;-0.2714
0001291276;7.0988;-11.5113;-3.1412;-2.6496;-0.2729;-0.1869
0001291284;7.1922;-12.6462;-2.9951;-2.3675;-0.2220;-0.1095
0001291292;7.1874;-13.1226;-2.7198;-2.0074;-0.1382;-0.0362
0001291300;7.4962;-12.8329;-2.8563;-1.5190;-0.0209;0.0256
0001291308;7.6854;-13.0699;-2.5043;-1.0495;0.1256;0.0895
0001291316;7.7668;-13.3189;-1.3934;-0.6308;0.2697;0.1311
0001291324;8.0325;-12.8401;-0.3328;-0.2522;0.3641;0.1519
0001291332;7.8195;-11.2025;-0.3208;0.1180;0.3733;0.1941
0001291340;7.3765;-9.9934;0.0455;0.2749;0.3007;0.2571
0001291348;6.8043;-8.3222;1.3264;0.2121;0.1478;0.3231
0001291356;6.2848;-6.7014;3.0287;0.0620;-0.0096;0.3773
0001291364;5.8466;-5.1116;4.3239;-0.1236;-0.1411;0.3471
0001291372;5.2289;-3.6895;3.5219;-0.2614;-0.2137;0.2201
0001291380;4.3814;-2.5043;2.6959;-0.2336;-0.2587;0.0596
0001291388;3.6009;-1.3096;3.2465;-0.0774;-0.2510;-0.0658
0001291396;3.2992;0.3136;4.3263;0.0977;-0.2021;-0.1785
0001291404;3.2370;2.8587;5.4636;0.2426;-0.1559;-0.2701
0001291412;3.7661;5.8059;4.9680;0.3301;-0.1827;-0.3264
0001291420;5.8155;7.5130;2.7533;0.2121;-0.2582;-0.3353
0001291428;7.3382;6.1794;2.3727;-0.0865;-0.3142;-0.3218
0001291436;8.1954;3.7996;4.2018;-0.2137;-0.3059;-0.2911
0001291444;8.1618;1.1971;4.9799;-0.0915;-0.2662;-0.1905
0001291452;7.9464;-0.1197;5.3103;0.0330;-0.1633;-0.0616
0001291460;7.6207;-1.3216;5.5138;0.1470;-0.0674;0.0580
0001291468;7.5441;-2.1284;6.3782;0.2967;0.0088;0.1581
0001291476;7.3885;-2.6983;7.1754;0.4771;0.0959;0.2571
0001291484;7.1826;-2.8563;8.0876;0.7007;0.2013;0.3305
0001291492;6.8235;-3.4812;9.1075;0.9944;0.2786;0.3854
0001291500;6.5434;-2.9808;10.1778;1.3019;0.3124;0.4096
0001291508;6.2273;-2.9018;10.9200;1.6673;0.2567;0.4198
0001291516;6.0454;-2.4014;10.1730;2.0992;0.1343;0.4283
0001291524;5.5761;-2.0087;9.5361;2.5771;0.0021;0.4327
0001291532;4.5873;-1.3791;9.3925;3.0168;-0.1163;0.4450
0001291540;3.4740;-0.9385;8.7340;3.3833;-0.2170;0.4470
0001291625;6.5218;-1.1109;-1.4940;4.3656;-0.9854;0.4545
0001291633;5.9400;-0.5531;-0.2370;4.3656;-1.1578;0.4856
0001291641;6.7062;1.4126;0.4669;4.3656;-1.3955;0.5300
0001291649;9.2177;6.1316;-5.3127;4.3656;-1.5906;0.5959
0001291657;9.3925;20.7553;-18.3683;4.3656;-1.5779;1.1129
0001291665;23.3650;48.1570;-24.8063;4.3656;-1.6297;1.6518
0001291673;23.2716;66.8222;-39.9233;4.3656;-1.2913;1.1710
0001291681;19.1153;75.6975;-36.7749;4.3656;-0.7143;0.6267
0001291689;11.6167;53.1417;-24.2221;2.9717;-0.2086;0.6899
0001291697;10.2352;29.9634;-7.6638;1.3250;0.0746;0.7272
0001291705;8.9830;16.5751;-0.3160;0.9461;0.0761;0.7027
0001291713;8.5952;7.6303;-1.5467;0.5986;-0.1061;0.7366
0001291721;7.8769;0.3448;-2.4612;0.2642;-0.2880;0.7534
0001291729;6.7181;-6.8881;-4.6352;-0.0076;-0.3796;0.7786
0001291737;6.0717;-12.3277;-6.5170;-0.0123;-0.4394;0.7729
0001291745;4.8267;-14.6405;-7.5154;0.3020;-0.4939;0.6680
0001291753;3.5338;-13.8816;-8.3701;1.1398;-0.5509;0.5359
0001291761;2.5762;-9.2608;-8.2744;2.0467;-0.5897;0.3433
0001291769;4.0845;-1.5610;-7.6495;2.9300;-0.6976;0.2205
0001291777;5.7509;7.4579;-6.8666;2.9677;-0.7462;0.1859
0001291785;9.9886;18.0116;-6.7301;2.1725;-0.6615;0.1442
0001291793;13.8720;25.1463;-9.3637;0.9034;-0.6029;0.0059
0001291801;13.5201;22.4265;-13.1035;-0.9297;-0.4277;-0.0586
0001291809;11.3988;13.8217;-12.0907;-2.4116;-0.2048;0.0349
0001291817;10.1945;6.5649;-8.2121;-3.0078;0.0075;0.1761
0001291825;9.8713;1.1947;-6.5050;-3.1086;0.1947;0.2269
0001291833;9.7348;-2.5905;-6.9983;-3.1312;0.3234;0.1649
0001291841;8.8274;-5.7413;-7.8865;-3.1285;0.3665;0.0151
0001291849;7.9272;-8.0685;-8.0924;-3.0108;0.3589;-0.1446
0001291857;6.7828;-9.1985;-8.3797;-2.7307;0.3484;-0.2778
0001291865;5.5067;-10.1251;-8.6455;-2.3846;0.2923;-0.3283
0001291873;5.2122;-9.9623;-8.1738;-1.7989;0.1528;-0.2974
0001291881;5.0015;-9.0716;-9.2727;-1.2417;0.0115;-0.2467
0001291889;5.0206;-8.5976;-10.7955;-0.8272;-0.0906;-0.1609
0001291897;6.0310;-7.6040;-11.4730;-0.4162;-0.1608;-0.0915
0001291905;6.1914;-6.8187;-12.2392;0.0276;-0.2037;-0.0766
0001291913;6.8331;-3.2346;-11.3605;0.7508;-0.2482;0.0163
0001291921;7.8626;-0.2083;-13.1346;1.5319;-0.2273;0.0703
0001291929;8.2289;1.4509;-12.5959;2.0015;-0.1960;0.0625
0001291937;8.9663;2.9090;-11.0157;2.2198;-0.2104;0.0224
0001291945;9.4188;4.0989;-10.1227;2.0648;-0.2415;-0.0424
0001291953;9.7636;5.0996;-10.1610;1.4031;-0.2515;-0.0859
0001291961;10.2831;5.9807;-10.3046;0.5215;-0.1998;-0.0967
0001291969;10.2999;5.3606;-10.3453;-0.2166;-0.1070;-0.1047
0001291977;10.1801;3.4884;-10.2232;-0.6495;-0.0060;-0.0806
0001291985;9.7133;1.3503;-9.3206;-0.8287;0.0841;-0.0370
0001291993;9.5122;-0.2658;-8.4252;-0.7758;0.1346;-0.0127
0001292001;9.3972;-1.3743;-7.4986;-0.5732;0.1632;-0.0296
0001292009;9.1243;-1.7166;-6.9216;-0.3078;0.1920;-0.0934
0001292017;9.2608;-1.3072;-6.7612;-0.0566;0.2257;-0.1697
0001292025;9.1626;-0.7614;-6.4524;0.1206;0.2461;-0.2477
0001292033;8.7532;-0.2179;-6.1196;0.2233;0.2545;-0.2818
0001292041;8.7053;0.5626;-5.6431;0.2398;0.2374;-0.2778
0001292049;8.4803;0.9026;-5.1954;0.1859;0.1985;-0.2459
0001292057;8.2289;1.4246;-5.1116;0.0865;0.1514;-0.1901
0001292065;8.0828;1.7214;-4.9895;-0.0326;0.1039;-0.1336
0001292073;7.7285;1.6281;-4.8890;-0.1372;0.0580;-0.0833
0001292081;7.6279;1.4198;-4.7357;-0.2081;0.0297;-0.0409
0001292089;7.5824;1.3240;-4.4843;-0.2547;0.0036;-0.0191
0001292097;7.8075;1.1540;-4.2401;-0.2615;-0.0220;-0.0119
0001292105;7.9104;1.2019;-4.3742;-0.2411;-0.0410;-0.0041
0001292113;8.2121;0.6393;-3.7685;-0.1444;-0.0365;0.0113
0001292121;7.9679;1.0798;-2.5139;-0.0894;-0.0274;-0.0043
0001292129;8.1594;1.6544;-3.4884;-0.0200;-0.0052;-0.0041
0001292137;8.3534;2.1117;-3.3686;0.0432;-0.0019;0.0017
0001292145;8.5856;2.8132;-3.8571;0.0926;-0.0151;-0.0021
0001292153;8.6095;3.0574;-3.8475;0.1154;-0.0179;-0.0040
0001292161;8.7388;3.5458;-3.9385;0.0855;-0.0124;-0.0009
0001292169;8.2456;3.6176;-3.9720;0.0288;0.0044;-0.0064
0001292177;8.4563;3.8403;-4.1324;-0.0430;0.0161;-0.0081
0001292185;8.0613;3.5650;-4.1827;-0.1223;0.0432;0.0005
0001292268;7.5824;1.4629;-4.1515;-0.0774;-0.0436;-0.0979
0001292276;7.6471;1.5012;-4.1827;-0.0493;-0.0353;-0.1082
0001292284;7.8937;1.6376;-4.1492;-0.0215;-0.0357;-0.1138
0001292292;7.8410;1.5490;-4.2114;-0.0023;-0.0171;-0.0999
0001292300;7.8697;1.5802;-4.2018;0.0141;-0.0057;-0.0787
0001292308;7.8410;1.7789;-4.2760;0.0324;-0.0081;-0.0450
0001292316;7.9847;1.7861;-4.2784;0.0466;-0.0112;-0.0089
0001292324;8.0565;1.7119;-4.3239;0.0498;-0.0065;0.0302
0001292332;8.0613;1.7717;-4.4341;0.0549;-0.0069;0.0565
0001292340;8.1882;1.8411;-4.3287;0.0763;-0.0115;0.0597
0001292348;8.1451;1.7645;-4.4604;0.0858;-0.0221;0.0477
0001292356;7.7883;1.5993;-4.3910;0.0993;-0.0165;0.0344
0001292364;7.8434;1.5802;-4.4317;0.1057;-0.0089;0.0127
0001292372;7.7764;1.7980;-4.5226;0.1219;0.0007;-0.0153
0001292380;7.5776;1.6855;-4.5346;0.1422;0.0136;-0.0342
0001292388;7.4388;1.6281;-4.6615;0.1511;0.0149;-0.0573
0001292396;7.3717;1.6712;-4.7285;0.1564;0.0132;-0.0584
0001292404;7.4867;1.5945;-4.8459;0.1656;0.0155;-0.0529
0001292412;7.6519;1.7238;-4.9297;0.1736;0.0207;-0.0564
0001292420;7.7859;1.5706;-4.8818;0.1949;0.0192;-0.0703
0001292428;7.9559;1.8244;-4.8818;0.2002;0.0236;-0.0774
0001292436;8.0158;1.6400;-5.0182;0.1940;0.0229;-0.1011
0001292444;8.0876;1.7789;-5.1523;0.1905;0.0306;-0.1171
0001292452;8.1211;1.7310;-5.1116;0.1751;0.0424;-0.1318
0001292460;8.0996;1.6759;-5.0949;0.1785;0.0532;-0.1510
0001292468;8.3151;1.6712;-5.1451;0.1735;0.0810;-0.1645
0001292476;8.1475;1.5514;-5.3415;0.1577;0.1043;-0.1724
0001292484;8.2384;1.6592;-5.1858;0.1756;0.1114;-0.1749
0001292492;8.2384;1.7549;-5.1787;0.2021;0.0943;-0.1715
0001292500;7.8290;1.6807;-5.2289;0.2062;0.0757;-0.1525
0001292508;7.5992;1.5802;-5.1475;0.1955;0.0501;-0.1252
0001292516;7.5250;1.8771;-5.1092;0.1867;0.0244;-0.0943
0001292524;7.3430;1.8507;-4.9823;0.1677;-0.0101;-0.0774
0001292532;7.2688;1.8651;-4.9943;0.1740;-0.0477;-0.0597
0001292540;7.2449;1.9824;-5.2313;0.1675;-0.0794;-0.0570
0001292548;7.0581;1.9465;-5.2074;0.1400;-0.1027;-0.0476
0001292556;7.2329;1.9752;-5.0829;0.1410;-0.1318;-0.0416
0001292564;7.2856;2.0039;-5.1787;0.1327;-0.1560;-0.0272
0001292572;7.3310;1.9513;-5.1451;0.1078;-0.1900;-0.0151
0001292580;7.1898;1.9800;-4.9368;0.0995;-0.2258;0.0057
0001292588;7.4172;2.0327;-5.0542;0.0767;-0.2551;0.0312
0001292596;7.3526;1.9321;-5.0877;0.0342;-0.2661;0.0574
0001292604;7.3981;1.8028;-5.0925;-0.0035;-0.2738;0.0843
0001292612;7.6399;1.6640;-5.0111;-0.0242;-0.2814;0.1039
0001292620;7.9655;1.5107;-5.0781;-0.0264;-0.2825;0.1035
0001292628;8.0948;1.5131;-5.1356;-0.0163;-0.2722;0.0978
0001292636;8.3845;1.5036;-5.2601;0.0052;-0.2425;0.0739
0001292644;8.4515;1.4437;-5.1188;0.0329;-0.2045;0.0325
0001292652;8.7819;1.5658;-5.1763;0.0589;-0.1416;-0.0084
0001292660;9.1219;1.5395;-5.1930;0.0754;-0.0685;-0.0402
0001292668;9.0525;1.5730;-5.0805;0.0797;-0.0001;-0.0642
0001292676;8.9519;1.5945;-5.2170;0.0785;0.0494;-0.0709
0001292684;8.7029;1.6448;-5.2625;0.0818;0.0801;-0.0580
0001292692;8.7412;1.5945;-5.3319;0.0753;0.1058;-0.0329
0001292700;8.3390;1.7119;-5.3582;0.0617;0.1206;0.0024
0001292708;8.0134;1.6352;-5.3247;0.0612;0.1202;0.0260
0001292716;7.6734;1.5850;-5.3367;0.0634;0.1026;0.0518
0001292724;7.5010;1.6424;-5.3247;0.0606;0.0954;0.0636
0001292732;7.2712;1.7071;-5.2648;0.0636;0.0739;0.0608
0001292740;6.9743;1.4964;-5.2409;0.0701;0.0530;0.0518
0001292748;6.9408;1.5850;-5.1978;0.0669;0.0378;0.0328
0001292756;6.9168;1.6065;-5.2577;0.0719;0.0135;0.0163
0001292764;7.0030;1.8435;-5.2313;0.0661;-0.0163;-0.0031
0001292772;7.1204;1.9752;-5.2074;0.0621;-0.0388;-0.0005
0001292780;7.3263;1.9489;-5.3295;0.0461;-0.0598;0.0043
0001292788;7.5346;1.8411;-5.2744;0.0314;-0.0797;0.0091
0001292796;7.7596;1.8483;-5.2361;0.0083;-0.0837;0.0234
0001292804;7.8578;1.7214;-5.0949;-0.0119;-0.0769;0.0250
0001292812;8.0134;1.6903;-4.9728;-0.0177;-0.0767;0.0180
0001292820;7.9847;1.5850;-4.9536;-0.0145;-0.0747;0.0085
0001292828;7.9080;1.5514;-5.0877;-0.0128;-0.0670;0.0056
0001292836;7.9320;1.6927;-5.1092;-0.0168;-0.0592;-0.0068
0001292923;7.8410;1.5514;-5.1739;-0.0060;-0.0624;-0.0472
0001292931;7.7620;1.4724;-5.1763;-0.0061;-0.0745;-0.0541
0001292939;7.7213;1.6472;-5.1547;0.0105;-0.0973;-0.0456
0001292947;7.5585;1.4796;-5.2648;0.0033;-0.1158;-0.0384
0001292955;7.4939;1.4700;-5.1332;0.0015;-0.1371;-0.0280
0001292963;7.5513;1.5467;-5.2409;0.0137;-0.1751;-0.0183
0001292971;7.4268;1.4222;-5.3175;0.0246;-0.1958;-0.0036
0001292979;7.6207;1.4796;-5.2864;0.0257;-0.2034;0.0016
0001292987;7.6638;1.4868;-5.4348;0.0337;-0.2172;0.0031
0001292995;7.7045;1.3360;-5.3965;0.0373;-0.2206;0.0049
0001293003;7.6543;1.2785;-5.3127;0.0586;-0.2317;0.0068
0001293011;7.9799;1.3431;-5.4420;0.0546;-0.2322;0.0031
0001293019;8.1379;1.4533;-5.5785;0.0456;-0.2220;-0.0032
0001293027;8.0349;1.5658;-5.3965;0.0633;-0.2112;-0.0112
0001293035;8.2193;1.5538;-5.4372;0.0801;-0.2074;-0.0213
0001293043;8.0278;1.5275;-5.3582;0.0903;-0.1901;-0.0218
0001293051;8.2815;1.4868;-5.3702;0.0957;-0.1769;-0.0282
0001293059;8.4084;1.8028;-5.4157;0.0906;-0.1653;-0.0277
0001293067;8.5305;1.9369;-5.4205;0.0771;-0.1467;-0.0244
0001293075;8.3869;1.7502;-5.3846;0.0478;-0.1244;-0.0232
0001293083;8.1570;1.6472;-5.2816;0.0143;-0.1019;-0.0213
0001293091;8.2959;1.9609;-5.2625;-0.0165;-0.0774;-0.0173
0001293099;8.1139;1.8100;-5.4085;-0.0464;-0.0548;-0.0248
0001293107;8.0780;1.8004;-5.3175;-0.0701;-0.0410;-0.0353
0001293115;8.0493;1.7980;-5.2888;-0.0782;-0.0274;-0.0388
0001293123;7.9392;1.5682;-5.3175;-0.0846;-0.0192;-0.0434
0001293131;7.8147;1.5419;-5.2792;-0.0833;-0.0204;-0.0472
0001293139;7.8027;1.4676;-5.2457;-0.0741;-0.0293;-0.0553
0001293147;7.7931;1.4796;-5.2625;-0.0622;-0.0228;-0.0494
0001293155;7.8793;1.5323;-5.1930;-0.0418;-0.0370;-0.0586
0001293163;7.9248;1.5299;-5.2505;-0.0280;-0.0390;-0.0586
0001293171;7.8482;1.6472;-5.1739;-0.0230;-0.0333;-0.0533
0001293179;7.6255;1.4724;-5.2026;-0.0120;-0.0257;-0.0553
0001293187;7.8506;1.6352;-5.1691;-0.0145;-0.0172;-0.0541
0001293195;7.6423;1.5347;-5.1954;-0.0152;-0.0163;-0.0550
0001293203;7.9033;1.6951;-5.2313;-0.0183;-0.0071;-0.0553
0001293211;7.8386;1.8699;-5.1451;-0.0222;-0.0033;-0.0496
0001293219;7.5944;1.6951;-5.1044;-0.0278;-0.0019;-0.0533
0001293227;7.6112;1.6664;-5.1858;-0.0228;-0.0024;-0.0556
0001293235;7.7716;1.7717;-5.1571;-0.0290;0.0003;-0.0490
0001293243;7.6926;1.7621;-5.3103;-0.0316;0.0005;-0.0469
0001293251;7.4771;1.6233;-5.1811;-0.0250;-0.0045;-0.0536
0001293259;7.4555;1.6879;-5.2170;-0.0193;-0.0136;-0.0569
0001293267;7.5585;1.5969;-5.1380;-0.0193;-0.0063;-0.0517
0001293275;7.6423;1.7262;-5.2648;-0.0241;-0.0067;-0.0405
0001293283;7.6255;1.5969;-5.1906;-0.0180;-0.0157;-0.0490
0001293291;7.5681;1.6376;-5.2194;-0.0076;-0.0254;-0.0493
0001293299;7.3885;1.5012;-5.3343;-0.0048;-0.0320;-0.0460
0001293307;7.4699;1.6209;-5.3582;-0.0015;-0.0389;-0.0448
0001293315;7.4962;1.6927;-5.3032;0.0064;-0.0497;-0.0477
0001293323;7.7093;1.7119;-5.3798;0.0040;-0.0521;-0.0468
0001293331;7.6375;1.6376;-5.3439;-0.0028;-0.0486;-0.0445
0001293339;7.7692;1.6305;-5.3702;-0.0044;-0.0497;-0.0445
0001293347;7.5800;1.6352;-5.3391;-0.0083;-0.0513;-0.0436
0001293355;7.7237;1.5874;-5.3439;-0.0164;-0.0506;-0.0397
0001293363;7.6567;1.6951;-5.2984;-0.0290;-0.0492;-0.0333
0001293371;7.6231;1.5251;-5.3319;-0.0330;-0.0564;-0.0346
0001293379;7.5824;1.4413;-5.2936;-0.0310;-0.0513;-0.0320
0001293387;7.7117;1.5897;-5.3558;-0.0324;-0.0498;-0.0221
0001293395;7.7189;1.4988;-5.3654;-0.0248;-0.0484;-0.0292
0001293403;7.5633;1.4078;-5.3798;-0.0180;-0.0420;-0.0281
0001293411;7.8314;1.6568;-5.4013;-0.0163;-0.0482;-0.0308
0001293420;7.7045;1.4868;-5.3582;-0.0079;-0.0576;-0.0286
0001293428;7.6447;1.4916;-5.3486;-0.0112;-0.0510;-0.0221
0001293437;7.6567;1.6568;-5.3056;-0.0165;-0.0553;-0.0282
0001293446;7.7644;1.5802;-5.3893;-0.0228;-0.0452;-0.0256
0001293455;7.8362;1.7693;-5.2313;-0.0257;-0.0469;-0.0191
0001293464;7.8027;1.6903;-5.3510;-0.0217;-0.0492;-0.0209
0001293473;7.6974;1.6185;-5.3439;-0.0272;-0.0573;-0.0109
0001293482;7.7261;1.5850;-5.3223;-0.0377;-0.0502;-0.0032
0001293491;7.7644;1.5969;-5.4061;-0.0320;-0.0502;-0.0128
0001293500;7.5800;1.5395;-5.3223;-0.0268;-0.0402;-0.0135
0001293585;7.6567;1.5850;-5.2601;-0.0638;-0.0203;-0.0068
0001293594;7.6950;1.6185;-5.2457;-0.0530;-0.0358;-0.0125
0001293603;7.7117;1.5658;-5.2385;-0.0428;-0.0298;-0.0085
0001293612;7.7141;1.6855;-5.1451;-0.0397;-0.0326;-0.0112
0001293621;7.4148;1.4653;-5.2265;-0.0421;-0.0374;-0.0163
0001293630;7.6926;1.6831;-5.1811;-0.0333;-0.0362;-0.0153
0001293639;7.6902;1.5778;-5.2481;-0.0278;-0.0433;-0.0228
0001293648;7.6160;1.5921;-5.2361;-0.0338;-0.0397;-0.0192
0001293657;7.6614;1.5730;-5.1763;-0.0326;-0.0441;-0.0205
0001293666;7.7596;1.7119;-5.2385;-0.0298;-0.0429;-0.0149
0001293675;7.7141;1.7166;-5.2792;-0.0309;-0.0404;-0.0179
0001293684;7.7500;1.7119;-5.2289;-0.0337;-0.0348;-0.0120
0001293693;7.7883;1.7238;-5.2696;-0.0366;-0.0345;-0.0069
0001293702;7.7405;1.5969;-5.3127;-0.0312;-0.0330;-0.0105
0001293711;7.7476;1.6831;-5.1906;-0.0341;-0.0288;-0.0101
0001293720;7.7261;1.6831;-5.2074;-0.0265;-0.0326;-0.0127
0001293729;7.7045;1.7142;-5.2313;-0.0272;-0.0352;-0.0151
0001293738;7.7716;1.7526;-5.3558;-0.0285;-0.0344;-0.0200
0001293747;7.9416;1.8747;-5.2337;-0.0234;-0.0402;-0.0167
0001293756;7.8075;1.7909;-5.2984;-0.0262;-0.0408;-0.0129
0001293765;7.7189;1.5586;-5.2433;-0.0272;-0.0420;-0.0168
0001293774;7.6375;1.6137;-5.2265;-0.0306;-0.0325;-0.0085
0001293783;7.7788;1.6424;-5.2505;-0.0294;-0.0368;-0.0144
0001293792;7.6160;1.5634;-5.2026;-0.0204;-0.0413;-0.0157
0001293801;7.8769;1.7382;-5.3439;-0.0336;-0.0341;-0.0109
0001293810;7.6184;1.5658;-5.2553;-0.0217;-0.0390;-0.0143
0001293819;7.5992;1.6161;-5.2170;-0.0133;-0.0452;-0.0195
0001293828;7.6878;1.6448;-5.2840;-0.0176;-0.0430;-0.0112
0001293837;7.6614;1.6257;-5.2313;-0.0185;-0.0453;-0.0127
0001293846;7.7021;1.6305;-5.2265;-0.0119;-0.0430;-0.0148
0001293855;7.8362;1.6161;-5.2577;-0.0155;-0.0446;-0.0173
0001293864;7.5753;1.5993;-5.2505;-0.0192;-0.0398;-0.0147
0001293873;7.6423;1.6065;-5.2026;-0.0252;-0.0394;-0.0149
0001293882;8.0110;1.8794;-5.1595;-0.0244;-0.0484;-0.0136
0001293891;7.8123;1.7095;-5.2361;-0.0240;-0.0424;-0.0129
0001293900;7.5944;1.6496;-5.2074;-0.0116;-0.0457;-0.0209
0001293909;7.7117;1.6879;-5.3510;-0.0192;-0.0382;-0.0159
0001293918;7.6016;1.5036;-5.2984;-0.0117;-0.0398;-0.0233
0001293927;7.9751;1.9010;-5.2122;-0.0097;-0.0406;-0.0261
0001293936;7.5609;1.6616;-5.2313;-0.0148;-0.0332;-0.0205
0001293945;7.6854;1.5850;-5.0877;-0.0111;-0.0368;-0.0242
0001293954;7.7452;1.6400;-5.2289;-0.0160;-0.0281;-0.0173
0001293963;7.6614;1.6496;-5.2385;-0.0212;-0.0309;-0.0221
0001293972;7.7381;1.6328;-5.0853;-0.0188;-0.0276;-0.0238
0001293981;7.6758;1.5634;-5.1643;-0.0160;-0.0322;-0.0188
0001293990;7.6519;1.5993;-5.1212;-0.0151;-0.0382;-0.0112
0001293999;7.6112;1.4389;-5.1691;-0.0088;-0.0366;-0.0137
0001294008;7.5393;1.4844;-5.1882;0.0045;-0.0398;-0.0084
0001294017;7.7452;1.6376;-5.2577;0.0139;-0.0350;-0.0104
0001294026;7.7069;1.6831;-5.2313;0.0270;-0.0437;-0.0181
0001294035;7.6231;1.6951;-5.3439;0.0228;-0.0405;-0.0141
0001294044;7.6519;1.7119;-5.3056;0.0133;-0.0430;-0.0237
0001294053;7.7859;1.8507;-5.2792;-0.0016;-0.0408;-0.0147
0001294062;7.7572;1.8076;-5.3271;-0.0116;-0.0369;-0.0121
0001294071;7.4986;1.5586;-5.1787;-0.0141;-0.0350;-0.0218
0001294080;7.6782;1.5490;-5.1858;-0.0133;-0.0298;-0.0169
0001294089;7.5178;1.5083;-5.1906;-0.0141;-0.0358;-0.0136
0001294098;7.5657;1.3958;-5.2265;-0.0099;-0.0346;-0.0116
0001294107;7.5417;1.3886;-5.2026;0.0021;-0.0462;-0.0188
0001294116;7.7596;1.6568;-5.2816;0.0055;-0.0397;-0.0164
0001294125;7.6567;1.6448;-5.2792;0.0045;-0.0388;-0.0191
0001294134;7.5537;1.4820;-5.2337;0.0121;-0.0486;-0.0234
0001294143;7.8817;1.8220;-5.2361;0.0035;-0.0381;-0.0124
0001294152;7.8243;1.6975;-5.3391;0.0033;-0.0390;-0.0164
0001294161;7.8506;1.7190;-5.3175;0.0041;-0.0472;-0.0215
0001294170;7.5848;1.6257;-5.2840;0.0029;-0.0421;-0.0155
0001294179;7.6064;1.6209;-5.2696;0.0011;-0.0448;-0.0185
0001294188;7.6638;1.7526;-5.1954;0.0013;-0.0449;-0.0217
0001294197;7.4962;1.5419;-5.3391;0.0004;-0.0445;-0.0140
0001294206;7.6710;1.6041;-5.1691;-0.0005;-0.0452;-0.0165
0001294291;7.6447;1.6089;-5.3463;-0.0113;-0.0381;-0.0160
0001294300;7.7045;1.6568;-5.3343;-0.0139;-0.0342;-0.0189
0001294309;7.5369;1.5467;-5.2337;-0.0229;-0.0308;-0.0209
0001294318;7.6543;1.5778;-5.2241;-0.0171;-0.0348;-0.0250
0001294327;7.4531;1.4988;-5.2457;-0.0169;-0.0282;-0.0168
0001294336;7.5465;1.4844;-5.3151;-0.0156;-0.0313;-0.0167
0001294345;7.4939;1.4676;-5.2912;-0.0088;-0.0368;-0.0143
0001294354;7.8338;1.6544;-5.2720;-0.0039;-0.0398;-0.0148
0001294363;7.7812;1.6233;-5.2505;-0.0060;-0.0360;-0.0104
0001294372;7.5753;1.6017;-5.2912;-0.0080;-0.0382;-0.0165
0001294381;7.6806;1.6328;-5.2409;-0.0055;-0.0397;-0.0203
0001294390;7.5681;1.6640;-5.1763;-0.0067;-0.0418;-0.0264
0001294399;7.7357;1.7502;-5.2361;-0.0128;-0.0392;-0.0132
0001294408;7.6926;1.6735;-5.3439;-0.0171;-0.0380;-0.0125
0001294417;7.6567;1.5467;-5.3032;-0.0083;-0.0417;-0.0164
0001294426;7.7261;1.7095;-5.2816;-0.0100;-0.0441;-0.0208
0001294435;7.7907;1.7502;-5.2457;-0.0105;-0.0382;-0.0116
0001294444;7.6998;1.5969;-5.1834;-0.0103;-0.0346;-0.0127
0001294453;7.7093;1.6257;-5.2170;-0.0003;-0.0370;-0.0209
0001294462;7.7788;1.6161;-5.4109;-0.0112;-0.0302;-0.0093
0001294471;7.7117;1.6257;-5.2601;-0.0135;-0.0358;-0.0127
0001294480;7.6519;1.4964;-5.2768;-0.0060;-0.0340;-0.0191
0001294489;7.6207;1.5754;-5.2433;-0.0148;-0.0345;-0.0143
0001294498;7.7692;1.5754;-5.2170;-0.0075;-0.0356;-0.0211
0001294507;7.6088;1.5395;-5.1906;-0.0052;-0.0348;-0.0159
0001294516;7.6878;1.5634;-5.2864;-0.0095;-0.0385;-0.0161
0001294525;7.6088;1.5275;-5.3678;-0.0153;-0.0425;-0.0067
0001294534;7.7668;1.7741;-5.3367;-0.0136;-0.0441;-0.0068
0001294543;7.5585;1.5993;-5.2505;0.0029;-0.0482;-0.0112
0001294552;7.6830;1.6041;-5.3103;0.0096;-0.0362;-0.0068
0001294561;7.6758;1.5969;-5.2672;0.0141;-0.0398;-0.0100
0001294570;7.5705;1.6065;-5.3079;0.0160;-0.0485;-0.0136
0001294579;7.5848;1.5107;-5.3343;0.0063;-0.0421;-0.0073
0001294588;7.7716;1.7861;-5.4396;0.0060;-0.0465;-0.0096
0001294597;7.7620;1.6328;-5.3175;-0.0019;-0.0361;-0.0117
0001294606;7.7476;1.6137;-5.3391;-0.0081;-0.0252;-0.0116
0001294615;7.6207;1.5730;-5.2026;-0.0124;-0.0314;-0.0155
0001294624;7.5920;1.4940;-5.2002;-0.0215;-0.0258;-0.0093
0001294633;7.7524;1.6759;-5.2385;-0.0176;-0.0389;-0.0123
0001294642;7.7548;1.6376;-5.1380;-0.0165;-0.0340;-0.0091
0001294651;7.6806;1.3791;-5.3079;-0.0109;-0.0418;-0.0137
0001294660;7.6662;1.5060;-5.2289;-0.0036;-0.0373;-0.0213
0001294669;7.7668;1.6448;-5.3319;-0.0103;-0.0322;-0.0115
0001294678;7.7692;1.6664;-5.2768;-0.0028;-0.0354;-0.0180
0001294687;7.7357;1.7262;-5.2816;-0.0055;-0.0316;-0.0155
0001294696;7.8171;1.6448;-5.3893;-0.0028;-0.0406;-0.0147
0001294705;7.6231;1.5371;-5.3056;-0.0137;-0.0350;-0.0083
0001294714;7.6064;1.5682;-5.1356;-0.0148;-0.0328;-0.0077
0001294723;7.6279;1.6496;-5.3439;-0.0060;-0.0430;-0.0169
0001294732;7.8290;1.7047;-5.3630;-0.0140;-0.0388;-0.0123
0001294741;7.7979;1.7526;-5.2888;-0.0133;-0.0428;-0.0156
0001294750;7.7309;1.6520;-5.2409;-0.0188;-0.0368;-0.0156
0001294759;7.7309;1.5850;-5.3271;-0.0213;-0.0290;-0.0187
0001294768;7.6662;1.6257;-5.2936;-0.0175;-0.0390;-0.0254
0001294777;7.6758;1.6257;-5.2505;-0.0172;-0.0341;-0.0215
0001294786;7.8769;1.6209;-5.2936;-0.0112;-0.0353;-0.0205
0001294795;7.7141;1.5706;-5.3008;-0.0153;-0.0365;-0.0105
0001294804;7.6662;1.5850;-5.2505;-0.0099;-0.0420;-0.0115
0001294813;7.5369;1.6089;-5.3056;-0.0120;-0.0429;-0.0143
0001294822;7.5633;1.6185;-5.2409;-0.0116;-0.0404;-0.0144
0001294831;7.7907;1.7214;-5.3175;-0.0073;-0.0412;-0.0172
0001294840;7.5681;1.6041;-5.3247;-0.0144;-0.0332;-0.0156
0001294849;7.6591;1.6688;-5.3582;-0.0171;-0.0344;-0.0181
0001294858;7.6375;1.5107;-5.3175;-0.0113;-0.0394;-0.0237
0001294867;7.8386;1.6472;-5.3367;-0.0217;-0.0293;-0.0112
0001294876;7.7189;1.6185;-5.2625;-0.0169;-0.0392;-0.0147
0001294885;7.6351;1.6041;-5.2744;-0.0124;-0.0353;-0.0108
0001294894;7.7357;1.6352;-5.2720;-0.0069;-0.0421;-0.0123
0001294903;7.6710;1.7454;-5.3439;-0.0096;-0.0380;-0.0124
0001294912;7.6782;1.7430;-5.2481;-0.0057;-0.0465;-0.0196
0001294921;7.7979;1.6640;-5.2433;-0.0127;-0.0389;-0.0189
0001295059;7.9679;1.8459;-5.1954;-0.0199;-0.0332;-0.0167
0001295068;7.7309;1.4988;-5.2074;-0.0119;-0.0397;-0.0258
0001295077;7.8290;1.6257;-5.2098;-0.0107;-0.0374;-0.0215
0001295086;7.5992;1.3934;-5.2744;-0.0201;-0.0330;-0.0127
0001295095;7.7644;1.5083;-5.3008;-0.0237;-0.0384;-0.0139
0001295104;7.6614;1.4317;-5.2792;-0.0147;-0.0425;-0.0143
0001295113;7.7117;1.6185;-5.2553;-0.0025;-0.0388;-0.0165
0001295122;7.4986;1.6305;-5.2337;0.0092;-0.0341;-0.0141
0001295131;7.8075;1.7358;-5.2744;0.0089;-0.0338;-0.0055
0001295140;7.6710;1.6807;-5.2553;0.0077;-0.0433;-0.0071
0001295149;7.6519;1.6257;-5.3008;0.0052;-0.0441;-0.0104
0001295158;7.6902;1.6999;-5.4037;0.0067;-0.0450;-0.0119
0001295167;7.6926;1.7047;-5.3606;-0.0072;-0.0318;-0.0111
0001295176;7.7309;1.6999;-5.3343;-0.0144;-0.0297;-0.0079
0001295185;7.9152;1.7549;-5.3870;-0.0209;-0.0337;-0.0116
0001295194;7.8243;1.7382;-5.2625;-0.0252;-0.0320;-0.0148
0001295203;7.6758;1.5610;-5.2026;-0.0268;-0.0342;-0.0119
0001295212;7.7141;1.5347;-5.2170;-0.0123;-0.0409;-0.0143
0001295221;7.7117;1.6137;-5.2481;-0.0132;-0.0338;-0.0100
0001295230;7.6327;1.5060;-5.2146;-0.0105;-0.0353;-0.0109
0001295239;7.6614;1.4868;-5.2553;-0.0007;-0.0352;-0.0171
0001295248;7.5585;1.5107;-5.2720;-0.0052;-0.0372;-0.0185
0001295257;7.8817;1.8507;-5.2098;-0.0100;-0.0342;-0.0136
0001295266;7.5992;1.4964;-5.2409;-0.0068;-0.0410;-0.0175
0001295275;7.6495;1.6352;-5.3486;-0.0111;-0.0370;-0.0119
0001295284;7.5968;1.5562;-5.3247;-0.0104;-0.0390;-0.0129
0001295293;7.5920;1.5419;-5.3175;-0.0097;-0.0420;-0.0193
0001295302;7.7213;1.7142;-5.2888;-0.0103;-0.0398;-0.0152
0001295311;7.7213;1.7119;-5.3846;-0.0163;-0.0357;-0.0091
0001295320;7.6040;1.5060;-5.2553;-0.0171;-0.0413;-0.0159
0001295329;7.8362;1.6352;-5.3606;-0.0159;-0.0341;-0.0139
0001295338;7.6543;1.5658;-5.2912;-0.0163;-0.0336;-0.0157
0001295347;7.6423;1.6328;-5.2840;-0.0080;-0.0381;-0.0159
0001295356;7.6591;1.5802;-5.2768;-0.0164;-0.0341;-0.0157
0001295365;7.7189;1.5826;-5.2720;-0.0141;-0.0365;-0.0147
0001295374;7.6710;1.5658;-5.3415;-0.0168;-0.0340;-0.0152
0001295383;7.4867;1.5897;-5.3917;-0.0095;-0.0388;-0.0222
0001295392;7.6327;1.6927;-5.2481;-0.0205;-0.0330;-0.0129
0001295401;7.5992;1.6831;-5.2648;-0.0173;-0.0416;-0.0147
0001295410;7.6471;1.5682;-5.3175;-0.0164;-0.0329;-0.0160
0001295419;7.6471;1.5778;-5.3463;-0.0136;-0.0420;-0.0260
0001295428;7.7524;1.6281;-5.3846;-0.0207;-0.0390;-0.0157
0001295437;7.6423;1.4629;-5.5043;-0.0233;-0.0413;-0.0128
0001295446;7.8841;1.6568;-5.3439;-0.0139;-0.0438;-0.0175
0001295455;7.8027;1.6855;-5.3056;-0.0113;-0.0416;-0.0187
0001295464;7.5609;1.5945;-5.2074;-0.0140;-0.0385;-0.0135
0001295473;7.5729;1.5227;-5.2912;-0.0161;-0.0389;-0.0189
0001295482;7.6878;1.6305;-5.3271;-0.0161;-0.0400;-0.0222
0001295491;7.7572;1.7861;-5.2888;-0.0211;-0.0370;-0.0171
0001295500;7.7261;1.6376;-5.2912;-0.0175;-0.0402;-0.0127
0001295509;7.7716;1.6735;-5.3415;-0.0215;-0.0414;-0.0119
0001295518;7.8051;1.6376;-5.2840;-0.0155;-0.0393;-0.0151
0001295527;7.7524;1.5850;-5.2672;-0.0204;-0.0348;-0.0127
0001295536;7.5896;1.5395;-5.2505;-0.0169;-0.0358;-0.0196
0001295545;7.6112;1.5514;-5.2241;-0.0173;-0.0333;-0.0175
0001295554;7.6255;1.4892;-5.1978;-0.0131;-0.0297;-0.0187
0001295563;7.6351;1.5060;-5.3415;-0.0203;-0.0256;-0.0137
0001295572;7.6279;1.6257;-5.2672;-0.0207;-0.0326;-0.0113
0001295581;7.5657;1.6209;-5.3319;-0.0218;-0.0337;-0.0077
0001295590;7.5753;1.5586;-5.2720;-0.0196;-0.0444;-0.0163
0001295599;7.6543;1.6328;-5.2840;-0.0228;-0.0504;-0.0139
0001295608;7.6902;1.7526;-5.2792;-0.0155;-0.0477;-0.0145
0001295617;7.5609;1.5083;-5.3558;-0.0112;-0.0381;-0.0133
0001295626;7.7644;1.5419;-5.2912;-0.0088;-0.0341;-0.0152
0001295635;7.5753;1.5610;-5.3415;-0.0069;-0.0388;-0.0161
0001295644;7.5896;1.6400;-5.3127;-0.0213;-0.0301;-0.0095
0001295653;7.5920;1.5155;-5.3199;-0.0212;-0.0332;-0.0157
0001295662;7.6160;1.6065;-5.2672;-0.0221;-0.0333;-0.0124
0001295671;7.6399;1.5107;-5.2313;-0.0172;-0.0408;-0.0196
0001295680;7.7165;1.7621;-5.2313;-0.0111;-0.0390;-0.0177
0001295689;7.6136;1.4581;-5.2433;-0.0137;-0.0314;-0.0097
0001295774;7.7117;1.5778;-5.3056;-0.0080;-0.0436;-0.0135
0001295783;7.5298;1.4557;-5.3056;-0.0137;-0.0298;-0.0119
0001295792;7.7859;1.6137;-5.3415;-0.0143;-0.0300;-0.0159
0001295801;7.8937;1.7957;-5.3941;-0.0216;-0.0344;-0.0159
0001295810;7.6974;1.5107;-5.1811;-0.0199;-0.0318;-0.0128
0001295819;7.6231;1.5778;-5.2194;-0.0139;-0.0344;-0.0136
0001295828;7.6040;1.5706;-5.2984;-0.0209;-0.0370;-0.0120
0001295837;7.5944;1.5706;-5.3702;-0.0145;-0.0434;-0.0187
0001295846;7.6998;1.4892;-5.2816;-0.0203;-0.0353;-0.0111
0001295855;7.8554;1.5371;-5.2696;-0.0188;-0.0340;-0.0161
0001295864;7.6974;1.5443;-5.3367;-0.0171;-0.0397;-0.0213
0001295873;7.7644;1.5826;-5.3295;-0.0151;-0.0344;-0.0176
0001295882;7.5705;1.5155;-5.2936;-0.0159;-0.0390;-0.0200
0001295891;7.7524;1.7430;-5.2481;-0.0137;-0.0329;-0.0128
0001295900;7.6998;1.6592;-5.3127;-0.0115;-0.0448;-0.0224
0001295909;7.6016;1.6328;-5.3822;-0.0127;-0.0366;-0.0124
0001295918;7.6088;1.4988;-5.4157;-0.0087;-0.0485;-0.0220
0001295927;7.7189;1.6209;-5.1667;-0.0197;-0.0416;-0.0140
0001295936;7.8482;1.6759;-5.3127;-0.0193;-0.0401;-0.0193
0001295945;7.6112;1.5874;-5.2648;-0.0278;-0.0354;-0.0167
0001295954;7.5896;1.4126;-5.2265;-0.0253;-0.0325;-0.0164
0001295963;7.8697;1.6664;-5.2864;-0.0211;-0.0297;-0.0137
0001295972;7.6950;1.5490;-5.2744;-0.0187;-0.0374;-0.0181
0001295981;7.7213;1.6568;-5.3439;-0.0187;-0.0337;-0.0111
0001295990;7.7428;1.5060;-5.2792;-0.0127;-0.0358;-0.0172
0001295999;7.5417;1.5993;-5.2457;-0.0088;-0.0384;-0.0200
0001296008;7.5800;1.5251;-5.2505;-0.0039;-0.0374;-0.0184
0001296017;7.5561;1.6041;-5.2816;-0.0160;-0.0317;-0.0144
0001296026;7.6543;1.6376;-5.2289;-0.0164;-0.0413;-0.0200
0001296035;7.6686;1.6400;-5.3367;-0.0203;-0.0366;-0.0105
0001296044;7.3694;1.4006;-5.2864;-0.0181;-0.0450;-0.0159
0001296053;7.7333;1.6137;-5.3247;-0.0175;-0.0356;-0.0115
0001296062;7.7955;1.5778;-5.3343;-0.0131;-0.0405;-0.0173
0001296071;7.8243;1.6017;-5.2648;-0.0089;-0.0416;-0.0103
0001296080;7.5848;1.5538;-5.3750;-0.0148;-0.0337;-0.0141
0001296089;7.6902;1.6041;-5.2553;-0.0096;-0.0358;-0.0171
0001296098;7.6303;1.6472;-5.3056;-0.0137;-0.0324;-0.0157
0001296107;7.6567;1.6113;-5.3798;-0.0168;-0.0358;-0.0193
0001296116;7.6734;1.5730;-5.3223;-0.0139;-0.0362;-0.0179
0001296125;7.5465;1.4006;-5.3343;-0.0173;-0.0370;-0.0121
0001296134;7.6614;1.5395;-5.2936;-0.0160;-0.0338;-0.0119
0001296143;7.6495;1.6328;-5.3247;-0.0127;-0.0390;-0.0111
0001296152;7.5776;1.4629;-5.3798;-0.0115;-0.0374;-0.0107
0001296161;7.7189;1.6592;-5.3247;-0.0044;-0.0352;-0.0135
0001296170;7.6854;1.6759;-5.2792;-0.0091;-0.0318;-0.0135
0001296179;7.7333;1.7933;-5.2457;-0.0097;-0.0376;-0.0148
0001296186;7.7835;1.6903;-5.2768;-0.0136;-0.0316;-0.0128
0001296194;7.7285;1.5850;-5.2433;-0.0204;-0.0302;-0.0143
0001296202;7.7835;1.6616;-5.4300;-0.0127;-0.0316;-0.0140
0001296210;7.5106;1.4485;-5.2194;-0.0184;-0.0333;-0.0163
0001296218;7.5872;1.5634;-5.2289;-0.0172;-0.0330;-0.0104
0001296226;7.5824;1.5467;-5.2888;-0.0144;-0.0298;-0.0057
0001296234;7.5417;1.5131;-5.3223;-0.0168;-0.0386;-0.0133
0001296242;7.7740;1.7142;-5.3391;-0.0131;-0.0438;-0.0143
0001296250;7.7692;1.6376;-5.3367;-0.0096;-0.0390;-0.0116
0001296258;7.7764;1.6568;-5.2529;-0.0144;-0.0382;-0.0115
0001296266;7.7644;1.6544;-5.3798;-0.0125;-0.0317;-0.0097
0001296274;7.7644;1.6759;-5.3750;-0.0089;-0.0360;-0.0135
0001296282;7.7069;1.6161;-5.2577;-0.0139;-0.0356;-0.0077
0001296290;7.7333;1.7286;-5.3391;-0.0224;-0.0401;-0.0123
0001296298;7.7045;1.5562;-5.3079;-0.0218;-0.0400;-0.0185
0001296306;7.7069;1.5275;-5.3223;-0.0236;-0.0377;-0.0137
0001296314;7.7141;1.5490;-5.3056;-0.0254;-0.0376;-0.0155
0001296322;7.7428;1.6496;-5.1954;-0.0119;-0.0394;-0.0220
0001296330;7.6998;1.6544;-5.2936;-0.0165;-0.0316;-0.0187
0001296338;7.7261;1.5802;-5.2912;-0.0297;-0.0333;-0.0124
0001296346;7.5561;1.4772;-5.2912;-0.0312;-0.0390;-0.0168
0001296354;7.7165;1.6735;-5.3247;-0.0199;-0.0417;-0.0167
0001296362;7.6040;1.5969;-5.2936;-0.0060;-0.0370;-0.0149
0001296370;7.5920;1.5347;-5.2648;-0.0011;-0.0345;-0.0101
0001296378;7.6974;1.6903;-5.2170;-0.0001;-0.0305;-0.0115
