time;acc_x;acc_y;acc_z;gyro_x;gyro_y;gyro_z
0001319949;6.2417;2.5809;2.1668;-0.0226;-0.0604;-0.0197
0001319957;6.0741;2.5307;2.2482;-0.0225;-0.0592;-0.0143
0001319964;6.1986;2.6647;2.1979;-0.0232;-0.0628;-0.0153
0001319972;6.1076;2.6073;2.2122;-0.0234;-0.0678;-0.0159
0001319981;6.1651;2.5857;2.1907;-0.0128;-0.0731;-0.0225
0001319989;6.3590;2.8156;2.1332;-0.0192;-0.0725;-0.0200
0001320001;6.4308;2.8299;2.1524;-0.0184;-0.0803;-0.0230
0001320009;6.2369;2.6528;2.2314;-0.0236;-0.0743;-0.0204
0001320017;6.2824;2.6408;2.1476;-0.0288;-0.0721;-0.0156
0001320028;6.3422;2.7054;2.2098;-0.0213;-0.0770;-0.0241
0001320036;6.3279;2.5905;2.1620;-0.0250;-0.0690;-0.0217
0001320048;6.2776;2.7629;2.2027;-0.0261;-0.0706;-0.0199
0001320056;6.3039;2.6600;2.2003;-0.0285;-0.0771;-0.0213
0001320067;6.1770;2.7078;2.1404;-0.0258;-0.0693;-0.0167
0001320075;6.1699;2.6264;2.2314;-0.0232;-0.0753;-0.0175
0001320143;6.2537;2.5498;2.1859;-0.0191;-0.0695;-0.0224
0001320151;6.2776;2.5905;2.2769;-0.0226;-0.0593;-0.0147
0001320159;6.2441;2.6025;2.2913;-0.0253;-0.0594;-0.0129
0001320170;6.3782;2.7150;2.2505;-0.0213;-0.0593;-0.0131
0001320178;6.2441;2.5929;2.1548;-0.0221;-0.0596;-0.0137
0001320190;6.1962;2.5307;2.1859;-0.0270;-0.0548;-0.0084
0001320198;6.1076;2.5570;2.1524;-0.0312;-0.0510;-0.0061
0001320209;6.3375;2.7414;2.0590;-0.0329;-0.0540;-0.0147
0001320217;6.3997;2.7581;2.2936;-0.0366;-0.0538;-0.0149
0001320229;6.1818;2.6169;2.1644;-0.0404;-0.0470;-0.0127
0001320237;6.4548;2.6887;2.2075;-0.0397;-0.0493;-0.0159
0001320245;6.3710;2.6504;2.2960;-0.0437;-0.0418;-0.0131
0001320256;6.2560;2.6408;2.2314;-0.0401;-0.0414;-0.0108
0001320264;6.2776;2.6408;2.2577;-0.0442;-0.0370;-0.0020
0001320276;6.2465;2.6193;2.3248;-0.0361;-0.0325;-0.0055
0001320284;6.1603;2.5115;2.3080;-0.0386;-0.0309;-0.0047
0001320295;6.0549;2.5211;2.3176;-0.0272;-0.0353;-0.0063
0001320303;6.3039;2.7318;2.2218;-0.0294;-0.0317;-0.0027
0001320315;6.0454;2.4948;2.3487;-0.0281;-0.0356;-0.0113
0001320323;6.3518;2.8252;2.2505;-0.0337;-0.0384;-0.0065
0001320331;6.2489;2.7557;2.2936;-0.0286;-0.0446;-0.0145
0001320342;6.2513;2.7342;2.1811;-0.0338;-0.0341;-0.0061
0001320350;6.2345;2.6312;2.1763;-0.0354;-0.0360;-0.0060
0001320417;6.3159;2.6360;2.2817;-0.0322;-0.0233;-0.0076
0001320425;6.2321;2.7007;2.2075;-0.0342;-0.0245;-0.0037
0001320436;6.3111;2.6911;2.2673;-0.0452;-0.0218;-0.0003
0001320444;6.1435;2.7246;2.1572;-0.0501;-0.0228;-0.0020
0001320456;6.2249;2.8156;2.2146;-0.0616;-0.0265;-0.0025
0001320464;5.9400;2.5211;2.3343;-0.0546;-0.0317;-0.0093
0001320472;6.1627;2.6073;2.2625;-0.0610;-0.0240;-0.0031
0001320483;6.1316;2.6432;2.3798;-0.0501;-0.0344;-0.0013
0001320491;6.2345;2.5139;2.3774;-0.0493;-0.0316;0.0051
0001320503;6.3518;2.5905;2.3727;-0.0356;-0.0370;0.0055
0001320511;6.4356;2.6001;2.2673;-0.0328;-0.0396;0.0015
0001320522;6.0837;2.5139;2.3200;-0.0308;-0.0421;-0.0005
0001320530;6.2752;2.6264;2.2625;-0.0282;-0.0481;-0.0051
0001320542;6.3470;2.5690;2.2721;-0.0342;-0.0524;-0.0031
0001320550;6.2513;2.5570;2.3248;-0.0297;-0.0513;-0.0061
0001320558;6.0430;2.4277;2.2649;-0.0296;-0.0541;-0.0061
0001320569;6.1723;2.4780;2.3008;-0.0268;-0.0640;-0.0116
0001320577;6.2584;2.6743;2.2673;-0.0238;-0.0642;-0.0109
0001320589;6.1699;2.6600;2.3583;-0.0249;-0.0765;-0.0173
0001320597;6.3470;2.6935;2.3224;-0.0284;-0.0713;-0.0169
0001320608;6.2058;2.6671;2.3583;-0.0265;-0.0755;-0.0119
0001320616;6.1914;2.6360;2.3535;-0.0305;-0.0794;-0.0119
0001320684;6.2537;2.6025;2.3703;-0.0205;-0.1078;-0.0224
0001320692;6.2848;2.5379;2.3942;-0.0262;-0.1083;-0.0171
0001320700;6.2968;2.6264;2.3535;-0.0281;-0.1126;-0.0196
0001320711;6.1555;2.6001;2.2673;-0.0216;-0.1200;-0.0226
0001320719;6.2321;2.5211;2.3272;-0.0196;-0.1287;-0.0257
0001320731;6.2608;2.6480;2.3104;-0.0212;-0.1396;-0.0324
0001320739;6.2656;2.5690;2.3200;-0.0184;-0.1454;-0.0338
0001320750;6.3686;2.6719;2.3367;-0.0191;-0.1515;-0.0337
0001320758;6.4045;2.6959;2.3463;-0.0248;-0.1471;-0.0306
0001320770;6.2153;2.6001;2.3224;-0.0261;-0.1522;-0.0362
0001320778;6.2968;2.7174;2.2865;-0.0329;-0.1549;-0.0338
0001320786;6.2560;2.6073;2.3990;-0.0328;-0.1559;-0.0364
0001320797;6.3470;2.6528;2.3942;-0.0360;-0.1564;-0.0384
0001320805;6.3901;2.5977;2.4062;-0.0297;-0.1547;-0.0400
0001320817;6.1004;2.3846;2.3966;-0.0296;-0.1588;-0.0349
0001320825;6.3590;2.5618;2.4660;-0.0270;-0.1471;-0.0310
0001320836;6.3686;2.4972;2.3320;-0.0199;-0.1561;-0.0338
0001320844;6.4332;2.6217;2.3798;-0.0254;-0.1503;-0.0281
0001320856;6.4572;2.6432;2.3152;-0.0230;-0.1555;-0.0328
0001320864;6.3279;2.6671;2.3176;-0.0246;-0.1535;-0.0352
0001320872;6.4643;2.7725;2.3320;-0.0257;-0.1536;-0.0362
0001320884;6.3997;2.6935;2.3727;-0.0290;-0.1545;-0.0372
0001320892;6.3638;2.7294;2.2769;-0.0344;-0.1564;-0.0328
0001320960;6.2297;2.5642;2.3080;-0.0185;-0.1560;-0.0373
0001320968;6.5170;2.5738;2.3224;-0.0242;-0.1543;-0.0377
0001320979;6.4548;2.6001;2.3583;-0.0284;-0.1527;-0.0353
0001320987;6.2944;2.6312;2.3152;-0.0290;-0.1523;-0.0321
0001320999;6.3782;2.6887;2.3463;-0.0346;-0.1483;-0.0370
0001321007;6.3877;2.7845;2.3224;-0.0408;-0.1427;-0.0317
0001321015;6.3231;2.6839;2.3870;-0.0401;-0.1486;-0.0348
0001321026;6.3039;2.6217;2.4828;-0.0332;-0.1458;-0.0326
0001321034;6.2560;2.6624;2.2865;-0.0317;-0.1512;-0.0358
0001321046;6.2752;2.5929;2.3942;-0.0318;-0.1492;-0.0336
0001321054;6.4212;2.7940;2.2889;-0.0425;-0.1440;-0.0316
0001321065;6.5721;2.7701;2.2697;-0.0410;-0.1468;-0.0356
0001321073;6.4428;2.5139;2.2625;-0.0492;-0.1428;-0.0314
0001321085;6.3375;2.4995;2.2769;-0.0606;-0.1354;-0.0370
0001321093;6.5505;2.5786;2.3487;-0.0541;-0.1227;-0.0381
0001321101;6.6391;2.5139;2.3583;-0.0505;-0.1275;-0.0441
0001321112;6.4596;2.4852;2.2649;-0.0473;-0.1175;-0.0457
0001321120;6.5386;2.4421;2.4469;-0.0372;-0.1158;-0.0446
0001321132;6.4572;2.6073;2.4852;-0.0321;-0.1061;-0.0446
0001321140;6.4356;2.5594;2.4229;-0.0244;-0.1019;-0.0452
0001321152;6.4476;2.5522;2.4181;-0.0226;-0.0934;-0.0396
0001321160;6.3925;2.6456;2.4708;-0.0218;-0.0918;-0.0365
0001321228;6.4165;2.5426;2.3176;-0.0160;-0.0775;-0.0346
0001321236;6.4596;2.5690;2.4588;-0.0189;-0.0667;-0.0340
0001321244;6.3111;2.4421;2.4157;-0.0220;-0.0621;-0.0304
0001321255;6.4141;2.5594;2.3798;-0.0191;-0.0568;-0.0377
0001321263;6.4260;2.4972;2.2649;-0.0093;-0.0542;-0.0344
0001321275;6.5027;2.5833;2.4948;-0.0140;-0.0444;-0.0237
0001321283;6.4260;2.5546;2.3224;-0.0104;-0.0444;-0.0314
0001321294;6.3494;2.4852;2.4517;-0.0155;-0.0358;-0.0191
0001321302;6.4284;2.6528;2.3846;-0.0192;-0.0365;-0.0228
0001321314;6.4572;2.5738;2.3559;-0.0177;-0.0306;-0.0183
0001321322;6.3446;2.5163;2.4876;-0.0093;-0.0298;-0.0236
0001321330;6.3470;2.6217;2.3631;-0.0141;-0.0284;-0.0204
0001321342;6.4404;2.6025;2.4325;-0.0052;-0.0326;-0.0293
0001321350;6.1531;2.4828;2.3296;-0.0036;-0.0246;-0.0221
0001321361;6.3949;2.5379;2.3655;-0.0055;-0.0248;-0.0234
0001321369;6.4284;2.7557;2.3990;0.0013;-0.0233;-0.0238
0001321381;6.2513;2.4469;2.4038;0.0007;-0.0228;-0.0246
0001321389;6.5050;2.6647;2.3367;-0.0005;-0.0149;-0.0213
0001321400;6.3805;2.6528;2.3535;-0.0036;-0.0113;-0.0152
0001321408;6.4141;2.6983;2.3487;-0.0069;-0.0077;-0.0159
0001321416;6.4260;2.6456;2.3846;-0.0096;-0.0049;-0.0168
0001321428;6.4643;2.6169;2.2984;-0.0168;-0.0011;-0.0133
0001321436;6.5290;2.6600;2.3583;-0.0139;0.0035;-0.0124
0001321503;6.4739;2.6791;2.3176;-0.0048;-0.0001;-0.0072
0001321511;6.2417;2.5905;2.2649;-0.0084;-0.0023;-0.0072
0001321523;6.1220;2.5977;2.3511;-0.0175;0.0011;-0.0080
0001321531;6.2872;2.6360;2.2649;-0.0197;-0.0076;-0.0128
0001321542;6.3279;2.5905;2.2913;-0.0209;-0.0039;-0.0059
0001321550;6.2369;2.5355;2.3846;-0.0188;-0.0021;-0.0069
0001321558;6.2752;2.4086;2.3942;-0.0179;0.0005;0.0027
0001321570;6.2225;2.5618;2.4229;-0.0040;-0.0060;-0.0047
0001321578;6.2824;2.5690;2.4325;-0.0024;-0.0079;-0.0039
0001321589;6.2872;2.5091;2.3463;-0.0009;-0.0108;-0.0128
0001321597;6.3087;2.6073;2.3727;-0.0051;-0.0056;-0.0047
0001321609;6.3925;2.6264;2.3343;-0.0072;-0.0043;-0.0079
0001321617;6.1699;2.4732;2.3894;-0.0105;-0.0100;-0.0100
0001321628;6.3638;2.6145;2.3750;-0.0075;-0.0184;-0.0132
0001321636;6.4572;2.6121;2.3224;-0.0013;-0.0208;-0.0131
0001321644;6.1866;2.5067;2.3990;-0.0003;-0.0167;-0.0111
0001321656;6.2560;2.5283;2.3511;-0.0001;-0.0188;-0.0148
0001321664;6.1579;2.4732;2.4205;-0.0004;-0.0203;-0.0185
0001321675;6.3734;2.6671;2.4205;0.0035;-0.0226;-0.0189
0001321683;6.1268;2.6193;2.3224;-0.0021;-0.0224;-0.0180
0001321695;6.1986;2.6480;2.2817;0.0047;-0.0308;-0.0254
0001321703;6.2201;2.6887;2.4469;0.0044;-0.0297;-0.0221
0001321770;6.2106;2.5283;2.3583;-0.0044;-0.0361;-0.0218
0001321778;6.3470;2.6432;2.3846;-0.0083;-0.0328;-0.0189
0001321786;6.3782;2.6480;2.4110;-0.0119;-0.0341;-0.0179
0001321798;6.2968;2.6145;2.3631;-0.0088;-0.0412;-0.0201
0001321806;6.1531;2.5618;2.3822;-0.0108;-0.0373;-0.0167
0001321817;6.1699;2.5474;2.4588;-0.0088;-0.0406;-0.0230
0001321825;6.4739;2.6600;2.3846;-0.0123;-0.0370;-0.0117
0001321837;6.3183;2.6647;2.3056;-0.0124;-0.0397;-0.0128
0001321845;6.2776;2.5402;2.4277;-0.0176;-0.0404;-0.0147
0001321856;6.2489;2.6025;2.3870;-0.0129;-0.0486;-0.0250
0001321864;6.1770;2.5259;2.4038;-0.0112;-0.0477;-0.0184
0001321872;6.2632;2.5762;2.4636;-0.0157;-0.0444;-0.0172
0001321884;6.3422;2.5690;2.4541;-0.0096;-0.0500;-0.0222
0001321892;6.1339;2.5570;2.3272;-0.0083;-0.0442;-0.0177
0001321903;6.1699;2.4277;2.3583;-0.0043;-0.0502;-0.0237
0001321911;6.2584;2.5019;2.3798;-0.0053;-0.0458;-0.0209
0001321923;6.2920;2.7126;2.3607;-0.0029;-0.0528;-0.0238
0001321931;6.2082;2.5259;2.3870;-0.0077;-0.0492;-0.0185
0001321942;6.2153;2.6193;2.3487;-0.0069;-0.0533;-0.0230
0001321950;6.1890;2.6600;2.4565;-0.0113;-0.0501;-0.0157
0001321958;6.2297;2.6791;2.3487;-0.0111;-0.0516;-0.0228
0001321970;6.2393;2.6624;2.3535;-0.0155;-0.0550;-0.0208
0001321978;6.3207;2.6935;2.3607;-0.0175;-0.0580;-0.0228
0001322042;6.2944;2.6743;2.3631;-0.0167;-0.0421;-0.0111
0001322050;6.2441;2.6528;2.3511;-0.0201;-0.0469;-0.0144
0001322062;6.2608;2.8467;2.3894;-0.0240;-0.0478;-0.0148
0001322070;6.1842;2.6408;2.4134;-0.0270;-0.0469;-0.0172
0001322081;6.2058;2.7318;2.3655;-0.0288;-0.0448;-0.0176
0001322089;6.2896;2.6240;2.4181;-0.0314;-0.0425;-0.0143
0001322097;6.2537;2.6384;2.4205;-0.0254;-0.0457;-0.0137
0001322109;6.2608;2.5474;2.4253;-0.0260;-0.0472;-0.0111
0001322117;6.3877;2.6288;2.4134;-0.0216;-0.0474;-0.0119
0001322128;6.1746;2.4900;2.3774;-0.0172;-0.0490;-0.0128
0001322136;6.3015;2.5762;2.3224;-0.0165;-0.0514;-0.0171
0001322148;6.3805;2.7461;2.3463;-0.0207;-0.0522;-0.0172
0001322156;6.4165;2.6073;2.3559;-0.0304;-0.0498;-0.0137
0001322167;6.2369;2.6647;2.3607;-0.0325;-0.0468;-0.0185
0001322175;6.4380;2.6432;2.2410;-0.0297;-0.0506;-0.0143
0001322183;6.4643;2.6360;2.3631;-0.0340;-0.0409;-0.0152
0001322195;6.2824;2.6504;2.3248;-0.0240;-0.0434;-0.0145
0001322203;6.3255;2.6073;2.4732;-0.0266;-0.0372;-0.0176
0001322214;6.3566;2.6240;2.4134;-0.0224;-0.0405;-0.0187
0001322222;6.1268;2.5953;2.3918;-0.0249;-0.0380;-0.0168
0001322234;6.2896;2.7270;2.3391;-0.0244;-0.0398;-0.0179
0001322242;6.1435;2.5570;2.4612;-0.0289;-0.0341;-0.0159
0001322305;6.3590;2.6193;2.4373;-0.0373;-0.0300;-0.0139
0001322313;6.5098;2.5905;2.4038;-0.0345;-0.0326;-0.0157
0001322321;6.4093;2.5163;2.3798;-0.0316;-0.0368;-0.0192
0001322333;6.3997;2.6576;2.4181;-0.0298;-0.0345;-0.0201
0001322341;6.2824;2.6193;2.3727;-0.0230;-0.0360;-0.0153
0001322352;6.2417;2.5762;2.3966;-0.0290;-0.0304;-0.0097
0001322360;6.3782;2.6576;2.4062;-0.0264;-0.0329;-0.0145
0001322372;6.2106;2.5857;2.3296;-0.0270;-0.0332;-0.0095
0001322380;6.1723;2.5522;2.3439;-0.0229;-0.0401;-0.0184
0001322391;6.4572;2.6719;2.3990;-0.0282;-0.0401;-0.0131
0001322399;6.1196;2.5115;2.3535;-0.0293;-0.0357;-0.0161
0001322407;6.2872;2.5570;2.3080;-0.0350;-0.0326;-0.0080
0001322419;6.1411;2.4948;2.4349;-0.0324;-0.0322;-0.0115
0001322427;6.4524;2.6839;2.4421;-0.0282;-0.0356;-0.0117
0001322438;6.4715;2.5331;2.4612;-0.0297;-0.0324;-0.0117
0001322446;6.3470;2.6528;2.4565;-0.0280;-0.0354;-0.0139
0001322458;6.2872;2.4995;2.4948;-0.0252;-0.0345;-0.0097
0001322466;6.4548;2.6121;2.3583;-0.0163;-0.0325;-0.0139
0001322477;6.2297;2.4565;2.4972;-0.0249;-0.0189;-0.0039
0001322485;6.3111;2.5019;2.4397;-0.0200;-0.0242;-0.0065
0001322497;6.4356;2.5953;2.4181;-0.0254;-0.0199;-0.0037
0001322505;6.4620;2.6288;2.4565;-0.0216;-0.0168;-0.0084
0001322513;6.2537;2.6049;2.4636;-0.0233;-0.0136;-0.0036
0001322576;6.3351;2.4852;2.4828;-0.0262;-0.0093;-0.0052
0001322584;6.3327;2.5426;2.4397;-0.0250;-0.0120;-0.0017
0001322596;6.2896;2.6887;2.4708;-0.0220;-0.0133;-0.0009
0001322604;6.2896;2.6121;2.4780;-0.0270;-0.0163;0.0004
0001322615;6.3207;2.7485;2.3918;-0.0228;-0.0261;-0.0113
0001322623;6.3925;2.8395;2.4325;-0.0284;-0.0288;-0.0077
0001322635;6.4955;2.7749;2.4445;-0.0305;-0.0338;-0.0145
0001322643;6.2034;2.5522;2.5187;-0.0356;-0.0313;-0.0125
0001322651;6.2752;2.4924;2.5379;-0.0269;-0.0356;-0.0139
0001322662;6.1483;2.5091;2.5331;-0.0294;-0.0290;-0.0072
0001322670;6.1723;2.4924;2.4636;-0.0237;-0.0314;-0.0067
0001322682;6.2513;2.4924;2.4756;-0.0164;-0.0308;-0.0044
0001322690;6.3398;2.7150;2.3631;-0.0136;-0.0420;-0.0124
0001322702;6.2560;2.5163;2.3679;-0.0260;-0.0388;-0.0113
0001322710;6.2201;2.6145;2.3966;-0.0225;-0.0452;-0.0073
0001322721;6.2728;2.5618;2.4828;-0.0317;-0.0405;-0.0069
0001322729;6.3111;2.4995;2.4325;-0.0222;-0.0460;-0.0137
0001322737;6.3398;2.4948;2.4732;-0.0241;-0.0449;-0.0096
0001322749;6.3303;2.4277;2.4038;-0.0199;-0.0462;-0.0168
0001322757;6.2920;2.4397;2.5139;-0.0173;-0.0368;-0.0085
0001322820;6.4404;2.7749;2.4134;-0.0151;-0.0276;-0.0085
0001322828;6.4667;2.7533;2.4469;-0.0152;-0.0310;-0.0063
0001322840;6.4979;2.7821;2.4277;-0.0177;-0.0321;-0.0083
0001322848;6.2848;2.4756;2.5187;-0.0121;-0.0356;-0.0068
0001322859;6.2560;2.4972;2.5307;-0.0168;-0.0337;-0.0059
0001322867;6.2872;2.6121;2.4588;-0.0063;-0.0409;-0.0100
0001322875;6.4189;2.5594;2.4181;-0.0093;-0.0416;-0.0072
0001322887;6.3877;2.5594;2.4612;-0.0064;-0.0464;-0.0108
0001322895;6.3351;2.5091;2.4493;-0.0089;-0.0442;-0.0052
0001322906;6.2321;2.5570;2.4349;-0.0131;-0.0481;-0.0059
0001322914;6.1651;2.3990;2.4038;-0.0103;-0.0464;-0.0075
0001322926;6.1411;2.4397;2.4325;-0.0067;-0.0524;-0.0029
0001322934;6.3829;2.6193;2.4325;-0.0105;-0.0509;-0.0071
0001322945;6.3518;2.6217;2.3655;-0.0013;-0.0588;-0.0129
0001322953;6.3087;2.5474;2.5019;-0.0121;-0.0589;-0.0049
0001322961;6.2968;2.5570;2.4708;-0.0075;-0.0544;-0.0079
0001322973;6.4428;2.5786;2.4277;-0.0023;-0.0536;-0.0116
0001322981;6.4667;2.5714;2.4660;-0.0023;-0.0574;-0.0155
0001322992;6.5242;2.5881;2.5522;-0.0016;-0.0553;-0.0183
0001323000;6.4212;2.4732;2.4421;0.0011;-0.0570;-0.0211
0001323012;6.2297;2.5115;2.4995;0.0044;-0.0552;-0.0161
0001323020;6.2728;2.6025;2.4588;0.0136;-0.0570;-0.0193
0001323083;6.2920;2.6049;2.4445;0.0104;-0.0533;-0.0120
0001323091;6.3063;2.5857;2.4181;0.0051;-0.0554;-0.0100
0001323099;6.3111;2.6073;2.4349;0.0067;-0.0553;-0.0124
0001323111;6.3422;2.5594;2.4828;0.0061;-0.0584;-0.0065
0001323119;6.1579;2.4469;2.5618;0.0109;-0.0601;-0.0091
0001323130;6.3135;2.5977;2.6719;0.0143;-0.0697;-0.0081
0001323138;6.2489;2.4636;2.5139;0.0233;-0.0727;-0.0100
0001323150;6.1555;2.4277;2.6288;0.0211;-0.0721;-0.0052
0001323158;6.3925;2.6959;2.6169;0.0276;-0.0783;-0.0055
0001323166;6.4979;2.7366;2.5091;0.0274;-0.0781;-0.0052
0001323177;6.4212;2.7246;2.4924;0.0220;-0.0741;-0.0029
0001323185;6.3422;2.7270;2.5474;0.0191;-0.0755;-0.0083
0001323197;6.2848;2.5809;2.4612;0.0203;-0.0763;-0.0040
0001323205;6.3063;2.5498;2.4948;0.0273;-0.0793;-0.0131
0001323216;6.2776;2.5809;2.5307;0.0237;-0.0731;-0.0017
0001323224;6.4332;2.5594;2.5953;0.0362;-0.0801;-0.0037
0001323236;6.4739;2.6001;2.5666;0.0473;-0.0817;-0.0041
0001323244;6.3351;2.6887;2.5283;0.0469;-0.0789;-0.0063
0001323252;6.1842;2.5929;2.4948;0.0485;-0.0729;-0.0052
0001323263;6.3470;2.5762;2.5307;0.0460;-0.0749;-0.0072
0001323271;6.4452;2.7294;2.5522;0.0500;-0.0714;-0.0101
0001323283;6.3734;2.6839;2.5235;0.0501;-0.0625;-0.0032
0001323291;6.3518;2.5953;2.4852;0.0544;-0.0542;-0.0008
0001323354;6.0094;2.5139;2.5307;0.0690;-0.0963;-0.0087
0001323362;6.1483;2.4995;2.4900;0.0721;-0.1162;-0.0079
0001323370;5.8993;2.5019;2.5139;0.0749;-0.1286;-0.0001
0001323382;6.1292;2.4277;2.6336;0.0826;-0.1367;0.0076
0001323390;6.1339;2.3559;2.5618;0.0854;-0.1384;0.0065
0001323401;6.3542;2.2194;2.7366;0.1115;-0.1448;-0.0049
0001323409;6.3973;2.3750;2.5235;0.1303;-0.1515;-0.0164
0001323421;6.4811;2.5139;2.5235;0.1228;-0.1535;-0.0161
0001323429;6.4883;2.4421;2.5786;0.1310;-0.1631;-0.0187
0001323437;6.2201;2.2936;2.5522;0.1292;-0.1620;-0.0111
0001323448;6.2848;2.3320;2.5331;0.1312;-0.1612;0.0019
0001323456;6.3015;2.2601;2.5546;0.1308;-0.1637;0.0083
0001323468;6.3805;2.2601;2.6240;0.1565;-0.1725;0.0131
0001323476;6.3111;2.2075;2.6360;0.1687;-0.1679;0.0203
0001323487;6.3590;2.2434;2.6695;0.1804;-0.1709;0.0221
0001323495;6.4428;2.3583;2.6839;0.1867;-0.1624;0.0221
0001323507;6.3566;2.2960;2.7557;0.2073;-0.1660;0.0193
0001323515;6.2704;2.1859;2.6887;0.2197;-0.1644;0.0211
0001323523;6.2369;2.3798;2.5953;0.2328;-0.1661;0.0254
0001323534;6.3183;2.3774;2.6959;0.2438;-0.1667;0.0349
0001323542;6.0597;2.2146;2.7031;0.2565;-0.1776;0.0318
0001323554;6.1028;2.4110;2.7054;0.2790;-0.1909;0.0392
0001323562;6.1962;2.5738;2.6480;0.2827;-0.2010;0.0390
0001323625;5.8993;2.4253;2.5857;0.3269;-0.3335;-0.0163
0001323633;6.0286;2.5857;2.5331;0.3212;-0.3493;-0.0277
0001323641;6.2153;2.7198;2.4972;0.3072;-0.3569;-0.0424
0001323653;6.1316;2.8706;2.5833;0.2894;-0.3725;-0.0730
0001323661;5.9185;2.7988;2.4732;0.2682;-0.3813;-0.1013
0001323672;6.2752;2.8826;2.6647;0.2410;-0.3760;-0.1118
0001323680;5.9328;2.6408;2.6456;0.2238;-0.3770;-0.1342
0001323692;6.2968;2.6887;2.8204;0.2100;-0.3667;-0.1499
0001323700;6.1244;2.5307;3.1077;0.2049;-0.3585;-0.1635
0001323708;6.3494;2.3415;3.2585;0.1952;-0.3411;-0.1657
0001323719;6.2321;2.1261;3.4213;0.2077;-0.3251;-0.1739
0001323727;6.2417;1.8651;3.3902;0.2208;-0.3186;-0.1760
0001323739;6.0956;1.7238;3.2681;0.2382;-0.2867;-0.1767
0001323747;6.1292;1.6113;2.7557;0.2326;-0.2814;-0.1867
0001323758;6.0669;1.7909;2.3272;0.2001;-0.2615;-0.1856
0001323766;6.0549;2.1548;2.1955;0.1568;-0.2439;-0.1855
0001323778;5.7078;2.6432;2.4900;0.0452;-0.2169;-0.1788
0001323786;5.5713;3.1603;2.5187;-0.0556;-0.1955;-0.1647
0001323794;5.4300;3.3255;2.4732;-0.1620;-0.1889;-0.1603
0001323805;5.4133;3.6464;2.4517;-0.3092;-0.1857;-0.1300
0001323813;5.2313;3.3375;2.0231;-0.4223;-0.2153;-0.1348
0001323825;4.9608;2.6935;1.4269;-0.6078;-0.2887;-0.1154
0001323833;4.6112;1.9944;1.1923;-0.7489;-0.3652;-0.0987
0001323896;4.3503;-6.6343;-1.4988;-1.2657;-1.6954;-0.3083
0001323904;4.5681;-7.6255;-1.0822;-1.2187;-1.8920;-0.4553
0001323916;5.0374;-7.9942;-0.1173;-1.0804;-2.0094;-0.7488
0001323924;5.4133;-7.5393;0.0455;-0.9538;-1.9203;-0.9662
0001323932;5.5976;-6.5601;0.0814;-0.8139;-1.7896;-1.1775
0001323943;6.4236;-4.7788;-0.1413;-0.6948;-1.5230;-1.2846
0001323951;7.1443;-3.7158;0.1867;-0.6984;-1.3431;-1.2592
0001323963;8.8849;-2.1356;0.1221;-0.8731;-1.0990;-1.0653
0001323971;9.7923;-2.0590;0.2562;-1.0665;-0.9702;-0.9134
0001323982;10.6350;-2.3415;0.0934;-1.3159;-0.7799;-0.7742
0001323990;10.8122;-3.0023;0.0383;-1.4280;-0.6415;-0.7402
0001324002;9.9288;-4.0151;-0.1365;-1.5346;-0.4619;-0.6960
0001324010;8.9591;-4.8530;-0.2873;-1.5916;-0.4141;-0.6599
0001324022;7.1228;-5.7461;0.1460;-1.6334;-0.4381;-0.5227
0001324030;6.1675;-6.0525;-0.1700;-1.5557;-0.4843;-0.3994
0001324038;5.0853;-6.4524;-0.6512;-1.4300;-0.5502;-0.2840
0001324049;4.1228;-6.6942;-0.1796;-1.2391;-0.6275;-0.1801
0001324057;3.4907;-6.8953;0.8260;-1.1139;-0.6584;-0.1585
0001324069;2.4636;-6.2417;2.7629;-0.9573;-0.6686;-0.2005
0001324077;1.7023;-5.3008;4.2210;-0.8198;-0.6635;-0.2152
0001324089;1.1396;-3.2202;4.3048;-0.6079;-0.7052;-0.1096
0001324097;1.5897;-1.7047;4.5729;-0.4764;-0.7649;0.0807
0001324165;10.7955;0.4645;6.9647;0.7013;-0.0242;0.1154
0001324173;9.6750;-0.0718;7.8889;0.9633;0.1428;0.0509
0001324184;8.6143;-0.2682;7.8314;1.3503;0.2491;-0.0076
0001324192;7.8410;-0.1053;8.0014;1.6399;0.2535;-0.0218
0001324200;7.1802;-0.0982;8.4803;1.9081;0.2224;-0.0011
0001324212;6.2058;-0.4956;8.2145;2.4284;0.1632;0.0249
0001324220;5.5905;-0.8882;8.4707;2.7836;0.0887;0.0113
0001324231;4.6328;-0.9984;9.3230;3.2742;0.0037;0.0008
0001324239;4.2162;-1.1420;9.2344;3.6520;-0.0689;0.0068
0001324251;3.8978;-0.8715;8.5353;4.1246;-0.0959;0.0469
0001324259;3.8140;-0.7566;8.5114;4.3469;-0.0863;0.0990
0001324267;4.6711;-0.5028;7.3813;4.3656;-0.1127;0.1136
0001324278;6.0478;-0.1030;4.7190;4.3656;-0.1499;0.0397
0001324286;6.2393;-0.1700;2.0662;4.3656;-0.1464;-0.0747
0001324298;5.0781;-0.2658;0.3041;4.3656;-0.1623;-0.2045
0001324306;4.0223;-0.5363;-1.3886;4.3656;-0.2429;-0.2260
0001324318;1.4748;-1.7933;1.5490;4.3656;-0.3591;-0.1470
0001324326;0.4286;-0.2634;-0.0670;4.3656;-0.6318;-0.1215
0001324338;0.5650;6.0190;-15.8496;4.3656;-1.0624;0.1771
0001324346;0.4836;21.8686;-33.4135;4.3656;-1.0993;1.0709
0001324354;15.1888;36.8611;-38.6376;4.3656;-1.1580;1.7228
0001324366;22.5558;54.4034;-37.9816;4.3656;-0.6030;0.9662
0001324374;21.4712;57.3028;-29.6282;4.3656;-0.1868;0.4691
0001324442;4.7956;-1.1349;-3.1364;1.6864;0.0189;0.5524
0001324450;5.1044;9.1698;-5.9304;2.0474;-0.0675;0.5865
0001324461;5.4444;19.3212;-6.7229;0.5393;-0.0593;0.2862
0001324469;5.7365;18.3779;-7.9918;-0.7169;-0.0723;-0.0521
0001324481;5.7916;9.1435;-5.9209;-1.9464;-0.1014;-0.3611
0001324489;5.8945;4.8315;-5.0709;-2.1982;-0.1147;-0.4161
0001324501;6.6032;0.4932;-5.6767;-2.4717;-0.1075;-0.3551
0001324509;7.4172;-2.2984;-5.3654;-2.6268;-0.1001;-0.2741
0001324517;8.0756;-5.0182;-5.4037;-2.7147;-0.1119;-0.1664
0001324529;8.9711;-9.6007;-6.5410;-2.7351;-0.1478;-0.0172
0001324537;9.3685;-10.6805;-5.5426;-2.4344;-0.1683;-0.0457
0001324548;8.0852;-11.3150;-5.9879;-1.6511;-0.2144;0.0212
0001324556;6.9384;-10.0628;-8.2959;-0.9521;-0.2394;0.1360
0001324568;3.0406;-3.9648;-11.6023;0.0837;-0.1271;0.3075
0001324576;2.2960;0.5004;-14.2311;0.8354;0.0372;0.4578
0001324587;4.9752;2.2386;-12.7324;1.1191;0.2137;0.4223
0001324595;7.9128;2.2386;-12.2870;0.8300;0.1841;0.2281
0001324607;10.3908;2.1452;-11.0971;0.0806;0.1168;0.0151
0001324615;10.4100;0.8356;-10.7452;-0.2575;0.0950;0.0286
0001324623;9.5768;-0.8236;-10.6039;-0.3774;0.1347;0.1136
0001324635;7.3574;-2.3966;-9.6414;-0.2264;0.2458;0.2001
0001324643;6.3566;-2.4373;-9.3158;0.0354;0.2884;0.2070
0001324711;7.4316;1.5610;-7.0006;0.1123;0.0898;-0.1264
0001324719;7.3358;1.5826;-6.2944;0.0385;0.0093;-0.1548
0001324731;7.3215;1.5203;-4.8961;-0.0890;-0.1447;-0.1905
0001324739;6.9240;1.5658;-4.4748;-0.1344;-0.2062;-0.2104
0001324751;6.3087;1.5826;-4.0917;-0.0653;-0.1660;-0.2192
0001324759;6.1004;1.7693;-4.2066;0.0296;-0.0252;-0.1472
0001324767;6.5338;1.7909;-4.3551;0.1274;0.1595;-0.0402
0001324779;8.2576;2.1141;-4.3144;0.2069;0.4345;0.2018
0001324787;9.4403;2.0399;-4.1899;0.1915;0.5673;0.3448
0001324799;11.0301;1.9106;-4.5155;0.0997;0.7071;0.5011
0001324807;11.4156;1.6520;-4.7453;0.0195;0.7558;0.5506
0001324818;11.0540;1.0989;-5.0230;-0.0300;0.8074;0.5395
0001324826;10.3142;1.0247;-5.2122;-0.0069;0.8127;0.4918
0001324838;7.8099;0.9122;-4.8626;0.1135;0.7645;0.3794
0001324846;6.1411;0.9290;-4.7645;0.2036;0.7087;0.3014
0001324854;4.8171;1.6041;-4.8291;0.2830;0.6191;0.2108
0001324866;3.1412;2.2122;-5.1212;0.2974;0.4563;0.0970
0001324874;3.0454;2.7653;-5.3415;0.2601;0.3268;0.0360
0001324886;3.2944;2.7773;-5.2840;0.1498;0.1351;-0.0417
0001324894;4.6926;2.9353;-5.2553;0.0749;0.0225;-0.0834
0001324906;6.3710;2.6815;-5.0326;-0.0012;-0.0810;-0.1459
0001324914;7.3047;2.3750;-4.8890;-0.0330;-0.1018;-0.1727
0001324922;8.2337;2.2936;-4.7692;-0.0693;-0.0973;-0.2089
0001324991;8.1331;2.4014;-4.0510;-0.0289;0.2384;-0.1130
0001325000;8.0110;2.5091;-4.1252;-0.0432;0.2562;-0.1086
0001325013;7.7979;2.2170;-4.2401;-0.0851;0.2563;-0.1122
0001325022;7.7045;2.0949;-4.2593;-0.0935;0.2453;-0.1332
0001325035;7.7237;1.7813;-4.3958;-0.1143;0.2459;-0.1604
0001325044;7.6950;1.6089;-4.3958;-0.1188;0.2284;-0.1796
0001325056;7.8219;1.6352;-4.3263;-0.1083;0.2177;-0.1883
0001325065;7.5537;1.4485;-4.2282;-0.0887;0.1931;-0.1820
0001325074;7.5753;1.3623;-4.1922;-0.0608;0.1593;-0.1557
0001325087;7.1587;1.4317;-4.3215;-0.0213;0.0718;-0.1151
0001325096;7.2449;1.5610;-4.3718;0.0073;-0.0052;-0.0738
0001325108;7.1371;1.5706;-4.3048;0.0233;-0.1275;-0.0397
0001325117;7.3287;1.7717;-4.3981;0.0224;-0.2276;-0.0453
0001325130;7.3167;1.9513;-4.4652;0.0244;-0.3443;-0.0949
0001325139;7.3454;2.0758;-4.5226;0.0292;-0.3776;-0.1351
0001325151;7.5154;2.3583;-4.4819;0.0485;-0.3643;-0.1663
0001325160;7.5250;2.2338;-4.4891;0.0385;-0.2927;-0.1340
0001325169;7.7213;2.1931;-4.4077;0.0309;-0.2174;-0.0703
0001325182;8.3103;2.1261;-4.3766;0.0079;-0.1166;0.0565
0001325191;8.7388;2.0423;-4.5035;-0.0037;-0.0733;0.1271
0001325204;9.0573;1.9920;-4.6208;-0.0097;-0.0213;0.1917
0001325213;9.1387;1.8507;-4.6711;-0.0067;0.0039;0.2028
0001325281;6.2489;1.4150;-4.8004;0.1703;-0.0322;-0.0175
0001325290;6.3542;1.6017;-4.9512;0.2062;-0.0454;-0.0352
0001325303;6.6942;1.8483;-5.0254;0.2294;-0.0542;-0.0586
0001325312;7.1515;2.0470;-5.2505;0.2170;-0.0512;-0.0801
0001325321;7.4891;2.2458;-5.3032;0.1885;-0.0282;-0.0961
0001325334;7.5992;1.9465;-5.1427;0.1390;0.0035;-0.1226
0001325343;7.8123;2.1739;-5.0757;0.1279;0.0258;-0.1240
0001325356;7.6184;2.1883;-5.1691;0.1037;0.0217;-0.1095
0001325365;7.2975;1.9776;-5.0757;0.0830;0.0077;-0.0875
0001325378;7.2281;1.9058;-5.1116;0.0568;-0.0169;-0.0502
0001325387;7.1826;1.7406;-5.2170;0.0434;-0.0297;-0.0322
0001325399;7.0413;1.7645;-5.0661;0.0514;-0.0586;-0.0215
0001325408;7.1228;1.6113;-5.1068;0.0636;-0.0937;-0.0204
0001325417;7.2401;1.5993;-4.9775;0.0710;-0.1140;-0.0293
0001325430;7.3406;1.4509;-5.0039;0.1091;-0.1516;-0.0401
0001325439;7.4771;1.5586;-5.1834;0.1156;-0.1576;-0.0397
0001325455;7.6710;1.3862;-4.9536;0.1319;-0.1549;-0.0465
0001325464;7.8817;1.6113;-5.1906;0.1376;-0.1346;-0.0280
0001325533;7.8099;1.8364;-5.1763;0.0801;0.0031;0.0350
0001325542;7.5178;1.7573;-5.2409;0.0554;0.0177;0.0392
0001325554;7.6878;1.8244;-5.2648;0.0496;0.0167;0.0288
0001325563;7.6088;1.5706;-5.2050;0.0545;-0.0001;0.0119
0001325572;7.3526;1.5443;-5.1834;0.0726;-0.0020;0.0141
0001325585;7.5561;1.6879;-5.1020;0.0799;-0.0132;0.0189
0001325594;7.5609;1.7286;-5.1164;0.0822;-0.0248;0.0083
0001325606;7.6040;1.7837;-5.0613;0.0950;-0.0269;0.0113
0001325615;7.5992;1.8387;-5.2840;0.0802;-0.0281;0.0181
0001325628;7.5465;1.7717;-5.1332;0.0673;-0.0386;0.0055
0001325637;7.7835;1.9297;-5.2864;0.0588;-0.0425;-0.0015
0001325646;7.4915;1.7190;-5.3056;0.0425;-0.0456;-0.0065
0001325658;7.6399;1.7957;-5.3439;0.0269;-0.0472;-0.0124
0001325667;7.6327;1.7358;-5.2720;0.0336;-0.0525;-0.0145
0001325680;7.5058;1.5610;-5.4564;0.0250;-0.0550;-0.0143
0001325689;7.4771;1.4581;-5.3941;0.0139;-0.0482;-0.0226
0001325701;7.7069;1.5371;-5.3893;0.0096;-0.0560;-0.0265
0001325710;7.6830;1.5706;-5.4899;0.0088;-0.0504;-0.0304
0001325723;7.7524;1.5107;-5.4157;0.0049;-0.0464;-0.0302
0001325732;7.8937;1.5897;-5.4468;0.0016;-0.0438;-0.0256
0001325741;7.8434;1.7454;-5.4396;0.0061;-0.0470;-0.0244
0001325753;7.7548;1.5658;-5.4444;-0.0100;-0.0345;-0.0187
0001325762;7.8290;1.7597;-5.5091;-0.0199;-0.0289;-0.0191
0001325831;7.5824;1.5227;-5.2194;-0.0715;-0.0120;-0.0260
0001325840;7.6998;1.6209;-5.2601;-0.0669;-0.0068;-0.0224
0001325852;7.4531;1.4293;-5.2289;-0.0564;-0.0065;-0.0230
0001325861;7.4508;1.5299;-5.2457;-0.0618;0.0015;-0.0207
0001325874;7.7213;1.6975;-5.0973;-0.0568;0.0057;-0.0242
0001325883;7.4579;1.6328;-5.0901;-0.0480;-0.0081;-0.0284
0001325895;7.4531;1.5850;-5.0949;-0.0584;-0.0100;-0.0242
0001325904;7.6040;1.6113;-5.0661;-0.0542;-0.0188;-0.0270
0001325913;7.5346;1.8196;-5.0398;-0.0430;-0.0208;-0.0278
0001325926;7.4460;1.6137;-5.1236;-0.0286;-0.0278;-0.0292
0001325935;7.4412;1.6281;-5.1380;-0.0201;-0.0437;-0.0318
0001325947;7.6184;1.6616;-5.2337;-0.0203;-0.0424;-0.0286
0001325956;7.5585;1.7645;-5.2529;-0.0195;-0.0593;-0.0298
0001325969;7.5609;1.6735;-5.2792;-0.0270;-0.0613;-0.0269
0001325978;7.5705;1.7765;-5.2601;-0.0418;-0.0520;-0.0195
0001325990;7.5250;1.6496;-5.1547;-0.0512;-0.0481;-0.0204
0001325999;7.7165;1.5419;-5.1356;-0.0585;-0.0473;-0.0160
0001326012;7.7213;1.6568;-5.1116;-0.0604;-0.0425;-0.0183
0001326021;7.7261;1.5778;-5.1188;-0.0524;-0.0452;-0.0209
0001326030;7.8147;1.6520;-5.1332;-0.0488;-0.0416;-0.0192
0001326042;7.5968;1.5682;-5.0996;-0.0344;-0.0393;-0.0199
0001326051;7.8099;1.6305;-5.1811;-0.0245;-0.0377;-0.0306
0001326120;7.6998;1.6999;-5.1763;-0.0216;-0.0233;-0.0218
0001326129;7.5681;1.7382;-5.1523;-0.0278;-0.0200;-0.0191
0001326141;7.5417;1.6640;-5.2481;-0.0329;-0.0164;-0.0179
0001326150;7.5489;1.5490;-5.0925;-0.0308;-0.0156;-0.0183
0001326163;7.4962;1.8172;-5.1499;-0.0253;-0.0296;-0.0192
0001326172;7.5465;1.6544;-5.1763;-0.0226;-0.0318;-0.0176
0001326181;7.4651;1.5395;-5.2265;-0.0177;-0.0344;-0.0167
0001326193;7.5848;1.7190;-5.1164;-0.0250;-0.0421;-0.0250
0001326202;7.5776;1.8244;-5.1858;-0.0338;-0.0384;-0.0241
0001326215;7.5800;1.6855;-5.1930;-0.0422;-0.0369;-0.0209
0001326224;7.5609;1.6233;-5.1427;-0.0398;-0.0453;-0.0230
0001326236;7.5729;1.6376;-5.1691;-0.0433;-0.0420;-0.0127
0001326245;7.5441;1.6544;-5.1691;-0.0390;-0.0477;-0.0192
0001326258;7.6064;1.6831;-5.2026;-0.0382;-0.0378;-0.0145
0001326267;7.5561;1.5538;-5.2289;-0.0288;-0.0424;-0.0157
0001326279;7.6734;1.7549;-5.2313;-0.0262;-0.0408;-0.0167
0001326288;7.6184;1.6328;-5.1356;-0.0364;-0.0377;-0.0111
0001326297;7.8051;1.7573;-5.1930;-0.0366;-0.0341;-0.0088
0001326310;7.7979;1.7789;-5.1356;-0.0410;-0.0332;-0.0145
0001326319;7.7764;1.7573;-5.1499;-0.0426;-0.0318;-0.0147
0001326331;7.5489;1.6376;-5.1667;-0.0449;-0.0302;-0.0176
0001326340;7.7309;1.6975;-5.1451;-0.0329;-0.0310;-0.0201
0001326409;7.7405;1.8124;-5.1427;-0.0273;-0.0350;-0.0200
0001326418;7.6471;1.6927;-5.0350;-0.0228;-0.0408;-0.0197
0001326430;7.7931;1.6927;-5.0518;-0.0197;-0.0420;-0.0189
0001326439;7.5178;1.6017;-5.0949;-0.0057;-0.0461;-0.0193
0001326452;7.7213;1.8723;-5.1427;0.0048;-0.0477;-0.0188
0001326461;7.7596;1.8244;-5.1691;0.0039;-0.0506;-0.0179
0001326470;7.6327;1.5969;-5.2241;0.0023;-0.0536;-0.0161
0001326482;7.7740;1.8316;-5.1332;-0.0044;-0.0502;-0.0127
0001326491;7.5561;1.6137;-5.1858;-0.0001;-0.0516;-0.0188
0001326504;7.4675;1.6927;-5.0566;-0.0124;-0.0410;-0.0180
0001326513;7.7452;1.6975;-5.2146;-0.0195;-0.0345;-0.0124
0001326525;7.4939;1.4796;-5.1691;-0.0159;-0.0293;-0.0124
0001326534;7.6351;1.5538;-5.0182;-0.0151;-0.0328;-0.0175
0001326547;7.5705;1.6472;-5.0709;-0.0020;-0.0312;-0.0189
0001326556;7.7165;1.6640;-5.0925;0.0025;-0.0274;-0.0133
0001326568;7.5776;1.7502;-5.1523;0.0037;-0.0274;-0.0145
0001326577;7.4915;1.7166;-5.1451;0.0076;-0.0326;-0.0181
0001326586;7.5848;1.6975;-5.1547;0.0055;-0.0304;-0.0115
0001326599;7.6064;1.6951;-5.1834;0.0045;-0.0349;-0.0177
0001326608;7.5106;1.7286;-5.1475;0.0017;-0.0326;-0.0120
0001326620;7.5226;1.6137;-5.2313;-0.0033;-0.0334;-0.0108
0001326629;7.5992;1.8507;-5.1044;-0.0072;-0.0376;-0.0144
0001326696;7.4077;1.6544;-5.1954;-0.0076;-0.0453;-0.0125
0001326705;7.6567;1.7119;-5.0877;-0.0117;-0.0497;-0.0047
0001326717;7.4412;1.6376;-5.0996;-0.0055;-0.0472;-0.0091
0001326726;7.5561;1.6759;-5.1284;-0.0065;-0.0501;-0.0163
0001326735;7.6614;1.7190;-5.1619;-0.0153;-0.0412;-0.0131
0001326748;7.7740;1.7406;-5.2409;-0.0157;-0.0394;-0.0201
0001326757;7.6543;1.5347;-5.2122;-0.0172;-0.0337;-0.0099
0001326769;7.7045;1.5921;-5.1092;-0.0131;-0.0378;-0.0129
0001326778;7.7213;1.6927;-5.0901;-0.0032;-0.0405;-0.0139
0001326791;7.3765;1.7119;-5.0877;0.0011;-0.0424;-0.0139
0001326800;7.6710;1.7071;-5.0877;-0.0047;-0.0396;-0.0199
0001326812;7.6878;1.8364;-5.2241;-0.0109;-0.0330;-0.0124
0001326821;7.5369;1.8100;-5.1787;-0.0093;-0.0361;-0.0179
0001326834;7.7572;1.9010;-5.1595;-0.0180;-0.0374;-0.0172
0001326843;7.7692;1.8148;-5.0589;-0.0199;-0.0353;-0.0128
0001326852;7.6088;1.5730;-5.1643;-0.0156;-0.0362;-0.0155
0001326864;7.6184;1.6305;-5.0996;-0.0132;-0.0342;-0.0179
0001326873;7.6495;1.7478;-5.1451;0.0003;-0.0336;-0.0241
0001326886;7.5872;1.5754;-5.2481;-0.0040;-0.0373;-0.0220
0001326895;7.7141;1.8076;-5.0709;-0.0111;-0.0264;-0.0159
0001326906;7.6016;1.6999;-5.0949;-0.0073;-0.0345;-0.0207
0001326915;7.5513;1.7358;-5.2026;-0.0175;-0.0304;-0.0163
0001326983;7.4555;1.5802;-5.1763;0.0175;-0.0466;-0.0113
0001326992;7.5800;1.6400;-5.0853;0.0286;-0.0522;-0.0139
0001327001;7.8099;1.7166;-5.2505;0.0278;-0.0454;-0.0097
0001327014;7.6734;1.7645;-5.2912;0.0224;-0.0492;-0.0092
0001327023;7.6423;1.8172;-5.2553;0.0152;-0.0422;-0.0064
0001327035;7.6926;1.8603;-5.1834;0.0029;-0.0430;-0.0128
0001327044;7.6184;1.6879;-5.2409;-0.0088;-0.0309;-0.0076
0001327057;7.7596;1.7669;-5.2768;-0.0117;-0.0346;-0.0217
0001327066;7.7859;1.7478;-5.1356;-0.0176;-0.0300;-0.0097
0001327078;7.7524;1.6328;-5.2313;-0.0043;-0.0397;-0.0183
0001327087;7.5585;1.5490;-5.1763;-0.0047;-0.0340;-0.0189
0001327100;7.5800;1.6257;-5.2194;-0.0016;-0.0325;-0.0179
0001327109;7.6327;1.5826;-5.1715;0.0029;-0.0361;-0.0232
0001327118;7.6447;1.5730;-5.1930;-0.0051;-0.0290;-0.0160
0001327130;7.6638;1.7310;-5.2098;-0.0005;-0.0369;-0.0171
0001327139;7.6064;1.6209;-5.2505;-0.0079;-0.0348;-0.0104
0001327152;7.6399;1.6352;-5.2074;-0.0017;-0.0433;-0.0229
0001327161;7.6207;1.7813;-5.2577;-0.0059;-0.0446;-0.0145
0001327173;7.5753;1.7813;-5.1284;-0.0077;-0.0438;-0.0183
0001327182;7.5753;1.5706;-5.2074;-0.0143;-0.0374;-0.0164
0001327195;7.5322;1.5634;-5.2648;-0.0095;-0.0413;-0.0199
0001327204;7.7237;1.6496;-5.1404;-0.0139;-0.0310;-0.0157
0001327272;7.5609;1.6161;-5.1763;-0.0095;-0.0336;-0.0152
0001327281;7.6974;1.7071;-5.1571;-0.0143;-0.0333;-0.0141
0001327290;7.6207;1.6305;-5.1906;-0.0077;-0.0410;-0.0233
0001327303;7.6255;1.6352;-5.1595;-0.0043;-0.0422;-0.0156
0001327312;7.6064;1.7023;-5.2241;-0.0037;-0.0398;-0.0084
0001327324;7.6375;1.6640;-5.1595;-0.0016;-0.0446;-0.0049
0001327333;7.6351;1.6233;-5.2241;0.0048;-0.0402;-0.0116
0001327346;7.5705;1.7837;-5.2505;-0.0123;-0.0374;-0.0121
0001327355;7.6064;1.6783;-5.2481;-0.0089;-0.0401;-0.0175
0001327367;7.6495;1.7502;-5.1954;-0.0156;-0.0345;-0.0133
0001327376;7.5178;1.6041;-5.2529;-0.0100;-0.0408;-0.0152
0001327385;7.8937;1.7597;-5.2313;-0.0093;-0.0350;-0.0069
0001327398;7.5657;1.7286;-5.2553;-0.0024;-0.0340;-0.0107
0001327407;7.4771;1.5395;-5.1451;0.0047;-0.0446;-0.0184
0001327419;7.7381;1.8148;-5.1499;-0.0059;-0.0401;-0.0131
0001327428;7.6184;1.6759;-5.1930;-0.0059;-0.0413;-0.0143
0001327441;7.6351;1.6783;-5.2241;-0.0145;-0.0402;-0.0121
0001327450;7.8051;1.7669;-5.1667;-0.0111;-0.0416;-0.0172
0001327462;7.6279;1.6472;-5.1882;-0.0115;-0.0398;-0.0201
0001327471;7.6567;1.5778;-5.2672;-0.0127;-0.0274;-0.0163
0001327484;7.6207;1.5945;-5.2481;-0.0233;-0.0329;-0.0165
0001327493;7.5417;1.5850;-5.2241;-0.0245;-0.0424;-0.0179
0001327502;7.7381;1.7334;-5.0925;-0.0216;-0.0382;-0.0144
0001327570;7.6974;1.7813;-5.1954;-0.0004;-0.0353;-0.0127
0001327579;7.5872;1.7262;-5.2337;-0.0067;-0.0376;-0.0187
0001327592;7.6495;1.5634;-5.2170;-0.0195;-0.0330;-0.0169
0001327601;7.7788;1.7502;-5.3008;-0.0225;-0.0362;-0.0115
0001327613;7.4412;1.5538;-5.1427;-0.0148;-0.0392;-0.0136
0001327622;7.6016;1.6951;-5.1906;-0.0092;-0.0322;-0.0175
0001327635;7.4915;1.5347;-5.2194;0.0017;-0.0378;-0.0216
0001327644;7.5106;1.5826;-5.1523;0.0068;-0.0418;-0.0143
0001327656;7.6016;1.6328;-5.2218;0.0005;-0.0376;-0.0103
0001327665;7.5465;1.7142;-5.2098;0.0015;-0.0368;-0.0133
0001327674;7.6782;1.6328;-5.0613;0.0043;-0.0454;-0.0135
0001327687;7.6399;1.6376;-5.2433;0.0003;-0.0458;-0.0165
0001327696;7.6878;1.7047;-5.2074;-0.0049;-0.0374;-0.0147
0001327708;7.4795;1.6807;-5.2289;-0.0033;-0.0361;-0.0161
0001327717;7.7859;1.6879;-5.2888;-0.0113;-0.0362;-0.0129
0001327730;7.7021;1.6735;-5.2816;-0.0181;-0.0270;-0.0097
0001327739;7.5106;1.6065;-5.2505;-0.0171;-0.0313;-0.0096
0001327751;7.6184;1.5993;-5.2864;-0.0133;-0.0341;-0.0165
0001327760;7.7572;1.7454;-5.3008;-0.0163;-0.0368;-0.0152
0001327769;7.5824;1.5395;-5.2337;-0.0113;-0.0381;-0.0081
0001327782;7.5872;1.7047;-5.1906;-0.0115;-0.0394;-0.0135
0001327791;7.5992;1.7047;-5.2481;-0.0089;-0.0413;-0.0177
0001327859;7.4747;1.4150;-5.2337;-0.0144;-0.0316;-0.0105
0001327868;7.5968;1.6281;-5.1619;-0.0096;-0.0417;-0.0173
0001327881;7.5130;1.6783;-5.2337;-0.0141;-0.0346;-0.0188
0001327890;7.5561;1.6352;-5.1882;-0.0100;-0.0370;-0.0224
0001327902;7.6088;1.6520;-5.3247;-0.0131;-0.0341;-0.0209
0001327911;7.6662;1.6664;-5.1787;-0.0179;-0.0364;-0.0132
0001327924;7.6016;1.7597;-5.2146;-0.0205;-0.0341;-0.0077
0001327933;7.5968;1.6185;-5.2122;-0.0192;-0.0338;-0.0077
0001327942;7.7405;1.7047;-5.1356;-0.0140;-0.0373;-0.0151
0001327954;7.6471;1.6496;-5.0398;-0.0127;-0.0368;-0.0107
0001327963;7.8003;1.7621;-5.1978;-0.0093;-0.0341;-0.0167
0001327976;7.5657;1.6664;-5.2433;-0.0156;-0.0401;-0.0137
0001327985;7.5633;1.6472;-5.2122;-0.0107;-0.0318;-0.0117
0001327997;7.3885;1.5945;-5.2002;-0.0117;-0.0381;-0.0144
0001328006;7.6662;1.7549;-5.2744;-0.0148;-0.0320;-0.0120
0001328019;7.6758;1.7382;-5.1763;-0.0103;-0.0341;-0.0127
0001328028;7.7213;1.7957;-5.1499;-0.0148;-0.0326;-0.0183
0001328040;7.7261;1.6879;-5.3199;-0.0215;-0.0358;-0.0109
0001328049;7.5848;1.6520;-5.2936;-0.0149;-0.0453;-0.0149
0001328058;7.6399;1.5945;-5.1547;-0.0073;-0.0444;-0.0136
0001328071;7.4962;1.6281;-5.2002;0.0083;-0.0438;-0.0179
0001328080;7.5202;1.6783;-5.1811;0.0080;-0.0432;-0.0087
0001328147;7.5298;1.7047;-5.2529;-0.0191;-0.0318;-0.0161
0001328156;7.6806;1.6831;-5.2050;-0.0245;-0.0344;-0.0137
0001328169;7.6638;1.6137;-5.2505;-0.0159;-0.0321;-0.0117
0001328178;7.4508;1.5012;-5.2936;-0.0088;-0.0425;-0.0153
0001328190;7.6088;1.5275;-5.2026;-0.0017;-0.0374;-0.0199
0001328199;7.5920;1.6759;-5.2026;-0.0060;-0.0376;-0.0167
0001328212;7.7979;1.6735;-5.1619;-0.0121;-0.0338;-0.0144
0001328221;7.6638;1.6592;-5.2194;-0.0115;-0.0432;-0.0139
0001328230;7.6231;1.6903;-5.2577;-0.0144;-0.0416;-0.0191
0001328242;7.5537;1.5514;-5.2816;-0.0117;-0.0461;-0.0171
0001328251;7.7476;1.7310;-5.3056;-0.0109;-0.0378;-0.0093
0001328264;7.5681;1.6257;-5.2816;-0.0125;-0.0445;-0.0175
0001328273;7.6207;1.5921;-5.2241;-0.0177;-0.0353;-0.0195
0001328285;7.5896;1.5467;-5.1906;-0.0177;-0.0340;-0.0177
0001328294;7.6710;1.7693;-5.2409;-0.0180;-0.0320;-0.0220
0001328307;7.5896;1.6161;-5.2481;-0.0145;-0.0305;-0.0177
0001328316;7.6614;1.5682;-5.2696;-0.0143;-0.0364;-0.0179
0001328325;7.6423;1.6328;-5.1834;-0.0201;-0.0372;-0.0161
0001328337;7.6591;1.6089;-5.2912;-0.0175;-0.0396;-0.0177
0001328346;7.5417;1.5802;-5.2289;-0.0067;-0.0377;-0.0181
0001328360;7.6519;1.6496;-5.2074;-0.0044;-0.0353;-0.0165
0001328369;7.5585;1.6017;-5.2720;-0.0156;-0.0341;-0.0140
0001328436;7.6806;1.6400;-5.2744;-0.0120;-0.0381;-0.0133
0001328445;7.6926;1.8100;-5.2792;-0.0127;-0.0398;-0.0171
0001328457;7.6806;1.5850;-5.2625;-0.0097;-0.0382;-0.0222
0001328466;7.6399;1.6376;-5.2026;-0.0164;-0.0318;-0.0180
0001328479;7.6327;1.6209;-5.2553;-0.0203;-0.0306;-0.0148
0001328488;7.8243;1.8124;-5.1595;-0.0221;-0.0366;-0.0127
0001328497;7.7835;1.7430;-5.3151;-0.0201;-0.0310;-0.0117
0001328509;7.5633;1.6544;-5.2577;-0.0152;-0.0369;-0.0156
0001328516;7.6998;1.6903;-5.1619;-0.0188;-0.0328;-0.0153
0001328528;7.6088;1.6903;-5.1499;-0.0153;-0.0332;-0.0180
0001328536;7.6854;1.7502;-5.2194;-0.0133;-0.0446;-0.0145
0001328547;7.4268;1.5395;-5.2026;-0.0099;-0.0421;-0.0176
0001328555;7.6040;1.7549;-5.2912;-0.0095;-0.0386;-0.0115
0001328567;7.6255;1.6400;-5.2864;-0.0117;-0.0409;-0.0180
0001328575;7.6279;1.6041;-5.1643;-0.0129;-0.0384;-0.0169
0001328586;7.5369;1.7454;-5.2218;-0.0145;-0.0377;-0.0161
0001328594;7.6950;1.7382;-5.1380;-0.0136;-0.0344;-0.0179
0001328602;7.6591;1.6664;-5.2601;-0.0181;-0.0321;-0.0140
0001328614;7.5513;1.5060;-5.2194;-0.0207;-0.0313;-0.0088
0001328622;7.6375;1.6281;-5.2601;-0.0253;-0.0313;-0.0079
0001328633;7.6662;1.5826;-5.2074;-0.0081;-0.0396;-0.0129
0001328641;7.5872;1.6496;-5.2026;-0.0021;-0.0378;-0.0104
0001328707;7.5657;1.6089;-5.2194;-0.0128;-0.0310;-0.0189
0001328715;7.6950;1.8004;-5.2648;-0.0139;-0.0313;-0.0171
0001328726;7.5465;1.5131;-5.2840;-0.0225;-0.0310;-0.0121
