time;acc_x;acc_y;acc_z;gyro_x;gyro_y;gyro_z
0001227757;6.3494;2.5881;2.6528;-0.0007;0.0047;0.0381
0001227766;6.1555;2.5139;2.7318;0.0031;-0.0100;0.0341
0001227773;6.3135;2.6647;2.7533;0.0013;-0.0145;0.0332
0001227781;6.4284;2.6121;2.6719;0.0087;-0.0257;0.0338
0001227848;6.3279;2.5211;2.5977;0.0225;-0.0394;0.0242
0001227856;6.4021;2.6049;2.5211;0.0140;-0.0368;0.0301
0001227864;6.4787;2.6408;2.5786;0.0108;-0.0346;0.0322
0001227876;6.4236;2.5522;2.6528;0.0064;-0.0386;0.0397
0001227884;6.5625;2.7007;2.5786;0.0017;-0.0332;0.0372
0001227895;6.4835;2.7054;2.6887;0.0045;-0.0485;0.0345
0001227903;6.2513;2.5666;2.5977;-0.0025;-0.0513;0.0409
0001227915;6.4596;2.6432;2.6169;0.0020;-0.0533;0.0412
0001227923;6.3398;2.6552;2.4804;0.0004;-0.0608;0.0457
0001227931;6.5194;2.6647;2.5211;0.0009;-0.0655;0.0316
0001227942;6.4332;2.6432;2.6240;-0.0149;-0.0594;0.0244
0001227950;6.5721;2.4900;2.6217;-0.0155;-0.0586;0.0184
0001227962;6.6319;2.6839;2.5402;-0.0269;-0.0460;0.0072
0001227970;6.7253;2.5594;2.6743;-0.0338;-0.0366;0.0079
0001227981;6.7540;2.6839;2.6049;-0.0381;-0.0232;0.0080
0001227989;6.5721;2.6193;2.6576;-0.0484;-0.0165;0.0148
0001228001;6.6846;2.6121;2.6336;-0.0520;-0.0079;0.0237
0001228009;6.5984;2.5953;2.7198;-0.0553;-0.0025;0.0272
0001228017;6.5386;2.5618;2.6169;-0.0542;0.0003;0.0301
0001228084;6.5218;2.4708;2.7054;-0.0554;0.0258;0.0384
0001228092;6.4165;2.4493;2.7773;-0.0516;0.0256;0.0414
0001228104;6.4907;2.5211;2.6695;-0.0428;0.0176;0.0350
0001228112;6.5170;2.5211;2.6169;-0.0366;0.0141;0.0364
0001228123;6.3159;2.3535;2.6552;-0.0266;0.0061;0.0361
0001228131;6.4021;2.3870;2.6839;-0.0244;0.0045;0.0353
0001228139;6.6439;2.3511;2.6312;-0.0237;-0.0024;0.0325
0001228151;6.5218;2.3894;2.6504;-0.0171;-0.0033;0.0298
0001228159;6.5912;2.3463;2.8036;-0.0088;-0.0141;0.0228
0001228170;6.6487;2.3559;2.7725;-0.0047;-0.0067;0.0212
0001228178;6.4691;2.3200;2.7270;-0.0051;-0.0087;0.0256
0001228190;6.4452;2.3224;2.7964;0.0041;-0.0087;0.0269
0001228198;6.3734;2.4062;2.7773;0.0075;-0.0123;0.0252
0001228206;6.4643;2.3750;2.6911;0.0095;-0.0191;0.0167
0001228217;6.5218;2.6169;2.8108;0.0037;-0.0264;0.0157
0001228225;6.5505;2.5618;2.8252;0.0029;-0.0284;0.0097
0001228237;6.4955;2.5402;2.7916;0.0035;-0.0350;0.0039
0001228245;6.4931;2.4995;2.7366;-0.0047;-0.0413;0.0113
0001228256;6.3949;2.5259;2.8347;-0.0071;-0.0442;0.0129
0001228264;6.5362;2.5307;2.7940;-0.0117;-0.0526;0.0093
0001228272;6.6152;2.5929;2.7605;-0.0056;-0.0657;0.0013
0001228284;6.4931;2.5259;2.7605;0.0055;-0.0755;-0.0017
0001228292;6.6104;2.5666;2.7174;0.0133;-0.0887;-0.0096
0001228359;6.5601;2.5091;2.6169;-0.0164;-0.1392;-0.0262
0001228367;6.5745;2.4373;2.6073;-0.0171;-0.1379;-0.0274
0001228379;6.6511;2.4612;2.6504;-0.0211;-0.1430;-0.0325
0001228387;6.6726;2.6480;2.6145;-0.0211;-0.1470;-0.0321
0001228398;6.5817;2.4756;2.6647;-0.0241;-0.1350;-0.0217
0001228406;6.6559;2.5546;2.7222;-0.0228;-0.1371;-0.0249
0001228414;6.7181;2.5546;2.7701;-0.0191;-0.1427;-0.0326
0001228426;6.6463;2.5211;2.7198;-0.0141;-0.1428;-0.0272
0001228434;6.6607;2.5762;2.7605;-0.0075;-0.1483;-0.0321
0001228445;6.6918;2.5594;2.6600;-0.0152;-0.1375;-0.0240
0001228453;6.7804;2.6624;2.6791;-0.0164;-0.1427;-0.0300
0001228465;6.7253;2.6647;2.6767;-0.0274;-0.1319;-0.0245
0001228473;6.6918;2.5953;2.6121;-0.0318;-0.1331;-0.0289
0001228484;6.7684;2.5977;2.7270;-0.0332;-0.1258;-0.0318
0001228492;6.8929;2.5881;2.7749;-0.0273;-0.1334;-0.0420
0001228500;6.7253;2.4445;2.6049;-0.0229;-0.1274;-0.0489
0001228512;6.7924;2.5929;2.7509;-0.0133;-0.1238;-0.0490
0001228520;6.7421;2.4660;2.7414;-0.0127;-0.1136;-0.0445
0001228531;6.6535;2.4588;2.5881;-0.0116;-0.1158;-0.0448
0001228539;6.7062;2.5211;2.6384;-0.0164;-0.0987;-0.0384
0001228551;6.6774;2.6935;2.6456;-0.0244;-0.0955;-0.0394
0001228559;6.6966;2.7031;2.6288;-0.0365;-0.0894;-0.0388
0001228627;6.4165;2.4253;2.6552;-0.0594;-0.0903;-0.0314
0001228635;6.7038;2.5091;2.7438;-0.0604;-0.0949;-0.0293
0001228643;6.6870;2.5642;2.6959;-0.0629;-0.0899;-0.0290
0001228655;6.6726;2.4732;2.7797;-0.0620;-0.0921;-0.0296
0001228663;6.4931;2.3822;2.7007;-0.0528;-0.1022;-0.0325
0001228674;6.6056;2.3750;2.7725;-0.0509;-0.1023;-0.0341
0001228682;6.5960;2.3631;2.8012;-0.0521;-0.0989;-0.0314
0001228694;6.5122;2.4349;2.8706;-0.0445;-0.0971;-0.0373
0001228702;6.6679;2.4086;2.7605;-0.0476;-0.0934;-0.0361
0001228713;6.7014;2.4517;2.7342;-0.0441;-0.0931;-0.0400
0001228721;6.5529;2.3200;2.6480;-0.0458;-0.0909;-0.0434
0001228729;6.7900;2.5618;2.6480;-0.0396;-0.0947;-0.0430
0001228741;6.7756;2.5714;2.6217;-0.0462;-0.0883;-0.0353
0001228749;6.5697;2.5043;2.7102;-0.0432;-0.0893;-0.0358
0001228760;6.5290;2.3559;2.7342;-0.0452;-0.0806;-0.0369
0001228768;6.3997;2.3822;2.7821;-0.0402;-0.0866;-0.0346
0001228780;6.5170;2.4397;2.7845;-0.0378;-0.0857;-0.0342
0001228788;6.5577;2.5115;2.6791;-0.0334;-0.0799;-0.0362
0001228799;6.7445;2.5402;2.7533;-0.0373;-0.0747;-0.0318
0001228807;6.6846;2.4469;2.7509;-0.0226;-0.0777;-0.0288
0001228815;6.5984;2.3583;2.7964;-0.0225;-0.0702;-0.0250
0001228827;6.6272;2.4900;2.8108;-0.0278;-0.0648;-0.0238
0001228835;6.7540;2.4205;2.7102;-0.0233;-0.0701;-0.0265
0001228902;6.6391;2.2505;2.6935;0.0043;-0.0482;-0.0342
0001228910;6.6128;2.3846;2.7773;-0.0011;-0.0380;-0.0308
0001228922;6.5577;2.3511;2.7892;0.0092;-0.0413;-0.0253
0001228930;6.7373;2.5163;2.7438;0.0087;-0.0354;-0.0177
0001228941;6.7133;2.5283;2.6743;0.0047;-0.0350;-0.0155
0001228949;6.6319;2.5211;2.7725;0.0065;-0.0272;-0.0147
0001228957;6.7205;2.5402;2.6959;0.0020;-0.0212;-0.0063
0001228969;6.4763;2.3535;2.7342;0.0055;-0.0252;-0.0047
0001228977;6.6726;2.6432;2.7821;0.0032;-0.0252;-0.0009
0001228988;6.5266;2.4229;2.7485;0.0096;-0.0310;-0.0076
0001228996;6.6990;2.4876;2.7533;0.0137;-0.0290;-0.0077
0001229008;6.7373;2.4636;2.7461;0.0196;-0.0308;-0.0116
0001229016;6.4763;2.3367;2.7916;0.0129;-0.0222;-0.0073
0001229027;6.5218;2.3320;2.7725;0.0187;-0.0233;-0.0081
0001229035;6.6918;2.5283;2.6600;0.0211;-0.0222;-0.0076
0001229043;6.7253;2.6935;2.6480;0.0183;-0.0260;-0.0083
0001229055;6.6200;2.6288;2.6719;0.0068;-0.0191;-0.0151
0001229063;6.5625;2.5139;2.7557;0.0044;-0.0176;-0.0211
0001229074;6.8474;2.5570;2.7007;-0.0103;-0.0043;-0.0181
0001229082;6.6104;2.5833;2.7078;-0.0112;-0.0077;-0.0246
0001229094;6.7253;2.6791;2.7797;-0.0213;-0.0051;-0.0171
0001229102;6.6008;2.5786;2.6791;-0.0179;-0.0155;-0.0207
0001229110;6.6104;2.4876;2.7150;-0.0124;-0.0127;-0.0248
0001229177;6.5817;2.4804;2.7054;-0.0276;-0.0417;-0.0133
0001229185;6.5553;2.4732;2.7725;-0.0248;-0.0510;-0.0168
0001229197;6.5122;2.3679;2.7414;-0.0169;-0.0608;-0.0260
0001229205;6.4572;2.4349;2.7054;-0.0169;-0.0614;-0.0280
0001229217;6.5505;2.5355;2.7222;-0.0204;-0.0649;-0.0349
0001229225;6.6391;2.4828;2.6935;-0.0286;-0.0670;-0.0377
0001229236;6.5218;2.5067;2.7438;-0.0381;-0.0566;-0.0310
0001229244;6.5577;2.4876;2.7988;-0.0420;-0.0541;-0.0262
0001229252;6.7876;2.4948;2.7581;-0.0413;-0.0520;-0.0302
0001229264;6.5003;2.4732;2.7701;-0.0396;-0.0469;-0.0285
0001229272;6.4739;2.2314;2.7629;-0.0316;-0.0474;-0.0289
0001229283;6.8019;2.4684;2.6935;-0.0340;-0.0361;-0.0277
0001229291;6.4883;2.3080;2.7701;-0.0293;-0.0404;-0.0282
0001229303;6.6008;2.2697;2.7461;-0.0313;-0.0288;-0.0257
0001229311;6.4620;2.4588;2.8084;-0.0262;-0.0354;-0.0317
0001229322;6.5242;2.4110;2.7246;-0.0220;-0.0377;-0.0277
0001229330;6.5984;2.5570;2.7007;-0.0242;-0.0308;-0.0204
0001229338;6.5027;2.4469;2.6791;-0.0252;-0.0302;-0.0177
0001229350;6.5577;2.4948;2.8204;-0.0229;-0.0340;-0.0209
0001229358;6.4883;2.4828;2.7174;-0.0213;-0.0344;-0.0177
0001229425;6.6367;2.5498;2.7414;-0.0148;-0.0342;-0.0135
0001229433;6.4691;2.5786;2.7821;-0.0185;-0.0314;-0.0148
0001229445;6.5434;2.5762;2.8611;-0.0145;-0.0332;-0.0151
0001229453;6.7732;2.6791;2.8395;-0.0192;-0.0317;-0.0167
0001229464;6.5673;2.3631;2.8491;-0.0117;-0.0334;-0.0173
0001229472;6.5170;2.4876;2.8252;-0.0151;-0.0302;-0.0143
0001229484;6.5817;2.5163;2.8635;-0.0161;-0.0310;-0.0189
0001229492;6.3973;2.3870;2.8132;-0.0187;-0.0292;-0.0203
0001229500;6.3805;2.3798;2.8874;-0.0148;-0.0337;-0.0199
0001229511;6.4620;2.2913;2.8467;-0.0137;-0.0373;-0.0245
0001229519;6.5745;2.5091;2.8802;-0.0209;-0.0356;-0.0226
0001229531;6.5314;2.4469;2.8443;-0.0238;-0.0280;-0.0234
0001229539;6.6391;2.3559;2.7940;-0.0244;-0.0317;-0.0249
0001229550;6.4811;2.4014;2.9209;-0.0168;-0.0329;-0.0294
0001229558;6.5601;2.4301;2.9113;-0.0237;-0.0294;-0.0256
0001229570;6.7086;2.6288;2.8706;-0.0249;-0.0281;-0.0228
0001229578;6.3782;2.2793;2.7749;-0.0309;-0.0200;-0.0091
0001229586;6.6535;2.5522;2.8778;-0.0298;-0.0196;-0.0044
0001229597;6.4667;2.4924;2.9018;-0.0252;-0.0237;-0.0112
0001229605;6.5697;2.5690;2.8371;-0.0306;-0.0232;-0.0103
0001229617;6.5434;2.4181;2.9616;-0.0312;-0.0224;-0.0019
0001229625;6.5505;2.4708;2.8371;-0.0298;-0.0277;-0.0051
0001229692;6.5338;2.4181;2.9736;-0.0073;-0.0298;-0.0089
0001229700;6.6511;2.6025;2.9832;-0.0029;-0.0309;-0.0167
0001229712;6.4835;2.5259;2.9760;0.0039;-0.0378;-0.0132
0001229720;6.5745;2.5618;3.0071;0.0075;-0.0393;-0.0168
0001229728;6.4069;2.4421;3.0023;0.0095;-0.0441;-0.0157
0001229739;6.5936;2.4900;3.0023;0.0215;-0.0446;-0.0149
0001229747;6.6798;2.4852;2.9329;0.0266;-0.0534;-0.0147
0001229759;6.6056;2.4852;2.9090;0.0333;-0.0648;-0.0179
0001229767;6.3901;2.5115;2.8826;0.0328;-0.0661;-0.0124
0001229778;6.6224;2.4469;2.8994;0.0338;-0.0737;-0.0116
0001229786;6.6176;2.4229;2.9544;0.0393;-0.0769;-0.0115
0001229794;6.4907;2.3296;3.0622;0.0441;-0.0762;-0.0080
0001229806;6.5434;2.3655;3.0837;0.0565;-0.0834;-0.0103
0001229814;6.5577;2.3918;3.0598;0.0608;-0.0843;-0.0097
0001229825;6.6080;2.2745;3.1675;0.0699;-0.0849;-0.0093
0001229833;6.5625;2.2601;3.2465;0.0739;-0.0806;-0.0045
0001229845;6.5434;2.2553;3.1987;0.0869;-0.0917;-0.0099
0001229853;6.4380;2.1165;3.3279;0.0991;-0.0954;-0.0049
0001229864;6.4332;2.1189;3.3327;0.1131;-0.1082;-0.0101
0001229872;6.4356;2.0494;3.4620;0.1234;-0.1164;-0.0052
0001229880;6.3614;2.1907;3.4979;0.1307;-0.1242;-0.0123
0001229892;6.4069;2.2673;3.6200;0.1411;-0.1383;-0.0195
0001229900;6.3853;2.2529;3.7062;0.1362;-0.1432;-0.0189
0001229964;6.8354;2.5235;4.6256;0.0695;-0.0245;-0.0115
0001229972;6.7900;2.4181;4.6280;0.0476;-0.0089;-0.0032
0001229984;6.5146;2.4876;4.6160;0.0012;0.0089;0.0304
0001229992;6.1986;2.3487;4.4197;-0.0301;0.0057;0.0446
0001230000;6.1866;2.3463;4.4365;-0.0518;-0.0117;0.0657
0001230011;5.6599;2.0925;4.4891;-0.0827;-0.0606;0.0783
0001230019;5.4923;1.9752;4.5538;-0.1041;-0.0935;0.0802
0001230031;4.8818;1.6712;4.7573;-0.1390;-0.1613;0.0791
0001230039;5.1595;1.7789;4.8004;-0.1486;-0.2150;0.0695
0001230050;4.9967;1.3575;4.9919;-0.1503;-0.2948;0.0560
0001230058;5.2625;1.4629;4.8387;-0.1480;-0.3533;0.0476
0001230066;5.4372;1.0726;4.7525;-0.1549;-0.4120;0.0233
0001230078;5.6934;1.2857;4.5059;-0.1645;-0.4804;-0.0085
0001230086;5.8682;1.2019;4.3359;-0.1868;-0.5179;-0.0364
0001230097;6.2369;1.4892;4.0127;-0.2253;-0.5574;-0.0835
0001230105;6.5745;1.5371;3.3495;-0.2960;-0.5626;-0.1124
0001230117;6.9839;1.8818;2.8922;-0.4498;-0.5521;-0.1500
0001230125;7.1467;1.7502;3.0215;-0.5744;-0.5215;-0.1667
0001230136;7.4843;1.6281;2.8539;-0.7614;-0.4539;-0.2088
0001230144;7.5896;1.7693;2.7916;-0.8865;-0.4018;-0.2153
0001230152;7.8889;1.6807;2.6312;-1.0283;-0.3421;-0.2270
0001230164;7.8027;1.3455;2.1572;-1.2494;-0.2495;-0.2136
0001230172;7.4771;0.9409;1.6735;-1.4220;-0.2013;-0.1920
0001230239;4.5466;-4.5586;-1.2641;-2.6738;-0.4278;-0.2336
0001230247;4.8028;-5.8849;-1.8459;-2.7194;-0.4796;-0.2875
0001230259;5.3295;-7.7093;-2.3415;-2.7030;-0.5177;-0.3368
0001230267;5.8634;-9.2320;-2.1428;-2.6315;-0.4995;-0.3581
0001230278;6.7325;-10.6374;-1.8507;-2.4355;-0.4337;-0.3733
0001230286;7.3119;-11.5353;-1.5275;-2.2108;-0.3645;-0.3733
0001230298;8.1523;-12.3924;-0.8140;-1.7532;-0.2257;-0.3199
0001230306;8.5425;-12.7300;-0.8116;-1.3871;-0.1276;-0.2338
0001230317;9.5600;-12.6342;0.1149;-0.8499;0.0187;-0.0783
0001230325;9.7827;-12.4235;1.0511;-0.4434;0.1112;0.0602
0001230333;10.0748;-11.2767;1.3551;-0.1130;0.1652;0.1584
0001230345;9.6343;-9.5098;2.2218;0.1733;0.2173;0.2381
0001230353;9.2632;-7.3406;2.6025;0.2398;0.2312;0.2402
0001230364;8.4563;-3.7924;3.0813;0.2296;0.2710;0.1825
0001230372;7.5657;-0.2274;4.2066;0.1721;0.3195;0.0462
0001230384;6.1555;6.4404;5.1643;-0.0645;0.4502;-0.2738
0001230392;4.6160;10.9032;3.5195;-0.2919;0.5012;-0.4169
0001230403;3.3878;9.0142;0.1221;-1.1808;0.5029;-0.4223
0001230411;3.9672;3.2825;2.1093;-1.6347;0.5121;-0.4530
0001230419;4.4221;-1.9130;5.6623;-1.5135;0.5116;-0.4891
0001230431;3.8451;-5.7844;8.0397;-0.8972;0.4158;-0.4323
0001230439;3.7014;-6.7828;6.1124;-0.4521;0.2690;-0.2659
0001230507;7.9296;-3.3255;8.2049;1.7976;0.3238;0.4874
0001230515;8.6670;-3.9720;7.5776;2.2421;0.1853;0.4704
0001230527;8.2145;-4.3479;8.4970;2.9379;-0.0489;0.4265
0001230535;7.3741;-4.2042;7.6351;3.4693;-0.1422;0.3625
0001230543;5.9280;-3.5338;6.4332;4.0100;-0.1815;0.2509
0001230554;3.2178;-3.0598;5.9903;4.3656;-0.2236;0.1247
0001230562;1.8244;-2.0446;5.2505;4.3656;-0.2809;0.1435
0001230574;1.5945;-0.0790;3.5027;4.3656;-0.3840;0.4607
0001230582;3.5075;0.7398;2.3966;4.3656;-0.4113;0.7252
0001230594;7.9272;1.1253;0.9840;4.3656;-0.4174;0.9678
0001230602;10.7212;1.1325;-0.5100;4.3656;-0.3788;0.9534
0001230613;12.3062;1.6616;-2.3152;4.3656;-0.3385;0.7569
0001230621;10.8912;2.1811;-2.8635;4.3656;-0.3299;0.6367
0001230629;8.7724;4.4484;-1.4844;4.3656;-0.3834;0.6031
0001230641;6.7636;8.5569;-1.7741;4.3656;-0.6881;0.6494
0001230649;6.5314;12.9024;-2.6217;4.3656;-0.9080;0.7615
0001230660;7.1539;32.1254;-9.8737;4.3656;-1.1095;1.1532
0001230668;10.9630;51.4801;-21.8136;4.3656;-1.2456;1.3348
0001230680;12.5600;59.5965;-22.1272;4.3656;-0.8872;0.8126
0001230688;10.7260;41.8387;-13.4841;4.0851;-0.5698;0.4951
0001230700;7.4891;18.8424;-3.7613;3.0357;-0.4122;0.5472
0001230708;8.1259;10.1083;-3.1149;2.5957;-0.4575;0.7169
0001230716;8.9016;3.3303;-3.8810;2.1079;-0.5113;0.8051
0001230784;5.3175;20.8535;-14.9853;4.3656;-0.9469;0.0068
0001230792;4.7597;10.1107;-13.2351;2.1771;-0.6139;0.1703
0001230803;6.4548;-3.6943;-3.8235;2.3365;-0.4738;0.3849
0001230811;7.9248;-2.8563;-5.2505;2.6462;-0.5085;0.3925
0001230823;7.5800;-4.2545;-6.6655;2.7715;-0.5999;0.3175
0001230831;7.3765;-8.2073;-6.8235;3.1357;-0.6322;0.2658
0001230842;7.6734;-7.7237;-10.4411;3.7060;-0.4477;0.2681
0001230850;8.3055;-4.8363;-12.9287;3.8584;-0.4125;0.1744
0001230858;8.0637;-2.1308;-13.5751;3.5821;-0.2495;0.1143
0001230870;7.5346;-0.5291;-15.6102;3.4186;-0.1986;0.1282
0001230878;7.4891;1.2450;-18.0379;2.8321;-0.1323;0.1254
0001230889;7.7788;-0.7757;-18.0259;2.1634;-0.0577;0.1368
0001230897;7.7117;-1.3982;-15.8712;1.6166;-0.0028;0.1027
0001230909;6.9384;-3.2609;-13.9319;1.0038;0.0601;0.1222
0001230917;7.2832;-4.3048;-13.6086;0.7233;0.0691;0.1135
0001230928;6.8738;-5.4085;-11.1043;0.3046;0.0667;0.0750
0001230936;7.2089;-5.3846;-10.8745;0.2140;0.0598;0.0725
0001230948;7.5824;-5.1691;-13.1250;0.1142;0.0294;0.0348
0001230956;7.4747;-3.9552;-14.1425;-0.2332;0.0296;0.0043
0001230964;7.5729;-3.0574;-13.6110;-0.6779;0.0722;-0.0542
0001230976;6.9216;-3.7158;-12.8186;-1.0539;0.1190;-0.0791
0001230984;7.5369;-3.6105;-11.7795;-1.2364;0.1536;-0.0989
0001231052;8.0732;-5.3199;-11.2288;-1.3779;0.1042;-0.2821
0001231060;8.2408;-4.8914;-11.3940;-1.3827;0.1154;-0.3108
0001231071;7.7644;-4.7190;-10.6757;-1.4301;0.1255;-0.3359
0001231079;7.9871;-4.2329;-10.4363;-1.4861;0.1318;-0.3375
0001231091;7.5513;-3.7661;-9.9000;-1.5163;0.1132;-0.3473
0001231099;7.6255;-3.1532;-9.4355;-1.4658;0.0926;-0.3515
0001231110;7.4867;-2.6001;-9.1794;-1.3912;0.0590;-0.3412
0001231118;7.4292;-2.1691;-8.9184;-1.3495;0.0341;-0.3345
0001231126;7.2065;-1.8387;-8.5377;-1.3424;0.0205;-0.3078
0001231138;7.4986;-1.0846;-7.5465;-1.3739;0.0462;-0.2952
0001231146;7.5369;-1.0008;-7.0318;-1.3143;0.0835;-0.3040
0001231157;7.5681;-0.7470;-6.4715;-1.2065;0.0954;-0.3264
0001231165;7.4699;-0.7015;-6.5434;-1.1278;0.0865;-0.3255
0001231177;7.4579;-0.4238;-6.7684;-1.0389;0.0364;-0.3240
0001231185;7.1323;-0.4621;-6.7373;-1.0119;0.0063;-0.3031
0001231196;6.9791;-0.2011;-6.5912;-0.9515;-0.0600;-0.2755
0001231204;6.7852;-0.1437;-6.5242;-0.9293;-0.1090;-0.2334
0001231216;6.9599;-0.0072;-6.2130;-0.8737;-0.1673;-0.1875
0001231224;6.9288;0.3136;-6.8283;-0.8216;-0.1848;-0.1556
0001231232;6.7636;0.5794;-7.6806;-0.8286;-0.1529;-0.1139
0001231244;6.9001;0.3065;-6.8881;-0.8002;-0.0180;-0.0722
0001231252;7.3215;0.6057;-7.1323;-0.7767;0.0850;-0.0705
0001231320;6.6750;1.0558;-6.3422;-0.1639;0.0514;-0.0342
0001231328;6.9264;0.9936;-6.1842;-0.1050;0.0581;0.0159
0001231339;6.7325;0.6776;-5.6072;0.0043;0.0669;0.0666
0001231347;6.9911;0.8667;-5.4971;0.0925;0.0624;0.0986
0001231359;6.9671;0.5267;-5.4995;0.2372;0.0378;0.1340
0001231367;7.1012;0.6033;-5.6886;0.3176;0.0213;0.1584
0001231375;7.1323;0.5674;-6.1244;0.3809;0.0032;0.1760
0001231386;7.3239;0.4860;-6.5434;0.4226;-0.0143;0.1968
0001231394;7.2975;0.4357;-6.7277;0.4382;-0.0268;0.1989
0001231406;7.4196;0.3496;-6.9264;0.4191;-0.0322;0.2110
0001231414;7.2472;0.2729;-7.0773;0.4029;-0.0370;0.2078
0001231425;7.3933;0.3280;-7.3382;0.3744;-0.0488;0.2085
0001231433;7.4412;0.3256;-7.5058;0.3246;-0.0526;0.2077
0001231441;7.4029;0.2897;-7.5369;0.2723;-0.0550;0.2081
0001231453;7.4292;0.3352;-7.3981;0.1841;-0.0438;0.1997
0001231461;7.4508;0.3136;-7.3885;0.1422;-0.0364;0.2006
0001231472;7.5106;0.0120;-7.2880;0.0985;-0.0397;0.1996
0001231480;7.5417;-0.1532;-7.4867;0.0762;-0.0449;0.1915
0001231492;7.8985;-0.4645;-7.4771;0.0569;-0.0646;0.1645
0001231500;8.0182;-0.6081;-7.3741;0.0711;-0.0679;0.1255
0001231512;8.2073;-0.5004;-7.7357;0.0911;-0.0654;0.0568
0001231520;8.0469;-0.2514;-7.7812;0.0858;-0.0508;0.0079
0001231528;7.8003;-0.0048;-7.9152;0.0553;-0.0257;-0.0218
0001231596;7.7237;0.2586;-7.8769;-0.1879;0.1131;-0.0586
0001231604;7.7117;0.1915;-7.7716;-0.2253;0.1279;-0.0578
0001231616;7.4699;0.2634;-7.4388;-0.2465;0.1471;-0.0585
0001231624;7.4627;0.1221;-7.1491;-0.2353;0.1597;-0.0521
0001231636;7.5657;0.3879;-6.9049;-0.1887;0.1512;-0.0450
0001231644;7.6040;0.2490;-6.8785;-0.1677;0.1344;-0.0365
0001231655;7.4843;0.1867;-6.7014;-0.1371;0.1039;-0.0317
0001231663;7.4412;0.2825;-6.7421;-0.1148;0.0919;-0.0225
0001231671;7.6447;0.3926;-6.6367;-0.0929;0.0825;-0.0181
0001231683;7.7069;0.3663;-6.4620;-0.0373;0.0675;-0.0189
0001231691;7.6160;0.2514;-6.4141;0.0031;0.0521;-0.0188
0001231702;7.5753;0.2729;-6.5481;0.0490;0.0179;-0.0208
0001231710;7.7476;0.2801;-6.6319;0.0795;-0.0103;-0.0148
0001231722;7.7069;0.1939;-6.7493;0.1063;-0.0498;-0.0104
0001231730;7.6375;0.1939;-6.9192;0.1099;-0.0699;-0.0144
0001231741;7.6016;0.1006;-6.9240;0.1092;-0.0950;-0.0175
0001231749;7.6423;0.1532;-7.0054;0.1179;-0.1118;-0.0234
0001231757;7.6207;0.2227;-6.8642;0.1360;-0.1246;-0.0262
0001231769;7.5800;0.1413;-6.4596;0.1768;-0.1320;-0.0185
0001231777;7.6279;0.2682;-6.5457;0.2268;-0.1466;-0.0144
0001231789;7.4819;0.3089;-6.5481;0.2914;-0.1571;-0.0043
0001231797;7.6638;0.1341;-6.9288;0.3321;-0.1701;-0.0117
0001231865;7.5920;0.0311;-8.1403;-0.0163;-0.1451;-0.0476
0001231873;7.6806;0.2155;-8.0685;-0.0576;-0.1328;-0.0565
0001231884;7.4819;-0.0622;-7.6064;-0.1005;-0.1062;-0.0541
0001231892;7.3861;0.0670;-7.4148;-0.1031;-0.0926;-0.0554
0001231900;7.5513;0.1891;-7.3191;-0.0893;-0.0842;-0.0537
0001231912;7.3694;0.0599;-7.1419;-0.0753;-0.0758;-0.0485
0001231920;7.3310;0.0144;-6.8714;-0.0458;-0.0794;-0.0436
0001231932;7.5369;0.1293;-7.0629;0.0040;-0.0870;-0.0436
0001231940;7.5824;0.1508;-7.2664;0.0165;-0.1003;-0.0460
0001231952;7.5561;0.0599;-7.3981;0.0056;-0.1077;-0.0517
0001231960;7.4843;-0.0096;-7.6447;-0.0057;-0.1120;-0.0621
0001231972;7.5441;0.0383;-7.6519;-0.0493;-0.1061;-0.0671
0001231980;7.3717;0.0215;-7.8290;-0.0795;-0.1087;-0.0726
0001231991;7.4579;0.0263;-7.8721;-0.1220;-0.1029;-0.0721
0001231999;7.7189;0.2203;-7.7596;-0.1427;-0.1067;-0.0770
0001232007;7.3430;0.0144;-7.5872;-0.1687;-0.0999;-0.0791
0001232019;7.3909;0.2849;-7.4268;-0.1831;-0.0951;-0.0730
0001232027;7.3861;0.3400;-7.4388;-0.1839;-0.0881;-0.0596
0001232039;7.3071;0.1149;-7.2664;-0.1745;-0.0835;-0.0630
0001232047;7.3741;0.1508;-7.1228;-0.1683;-0.0815;-0.0593
0001232059;7.4005;0.0455;-7.2425;-0.1502;-0.0751;-0.0674
0001232067;7.3430;0.0982;-7.2616;-0.1420;-0.0719;-0.0698
0001232135;7.3263;0.1341;-7.0964;-0.1320;-0.0512;-0.0622
0001232143;7.2784;0.1772;-7.0581;-0.1244;-0.0545;-0.0630
0001232155;7.3023;0.2442;-7.1371;-0.1112;-0.0568;-0.0667
0001232163;7.3430;0.3974;-7.3071;-0.1166;-0.0553;-0.0577
0001232171;7.3358;0.3280;-7.1539;-0.1171;-0.0517;-0.0593
0001232183;7.1994;0.2490;-7.0270;-0.1128;-0.0469;-0.0473
0001232191;7.2185;0.3041;-7.1946;-0.1053;-0.0528;-0.0436
0001232203;7.4029;0.2035;-6.9360;-0.0943;-0.0514;-0.0346
0001232211;7.2472;0.2035;-7.0126;-0.0877;-0.0544;-0.0284
0001232223;7.2257;0.2945;-6.9743;-0.0697;-0.0578;-0.0312
0001232231;7.1587;0.2011;-7.1587;-0.0632;-0.0526;-0.0253
0001232243;7.0174;0.1867;-7.0868;-0.0601;-0.0461;-0.0185
0001232251;7.3095;0.3448;-7.0988;-0.0593;-0.0444;-0.0167
0001232263;7.1682;0.3136;-7.0150;-0.0484;-0.0436;-0.0218
0001232271;7.3550;0.3735;-6.9528;-0.0353;-0.0388;-0.0187
0001232279;7.4699;0.3807;-7.0413;-0.0305;-0.0297;-0.0143
0001232291;7.2927;0.3041;-7.0461;-0.0096;-0.0344;-0.0165
0001232299;7.2113;0.3112;-7.1204;-0.0080;-0.0334;-0.0163
0001232311;7.2664;0.3519;-7.2568;-0.0177;-0.0332;-0.0111
0001232319;7.2377;0.2682;-7.1443;-0.0199;-0.0348;-0.0108
0001232331;7.3095;0.4022;-7.0844;-0.0111;-0.0352;-0.0104
0001232339;7.2520;0.2059;-7.2281;-0.0067;-0.0329;-0.0063
0001232407;7.4723;0.3783;-7.0533;-0.0348;-0.0240;-0.0069
0001232415;7.3550;0.2993;-7.0892;-0.0298;-0.0309;-0.0115
0001232427;7.3310;0.3663;-7.0820;-0.0264;-0.0282;-0.0100
0001232435;7.5369;0.3352;-7.1180;-0.0201;-0.0297;-0.0181
0001232443;7.3741;0.2777;-7.2688;-0.0218;-0.0305;-0.0149
0001232455;7.4340;0.4549;-7.3167;-0.0369;-0.0385;-0.0123
0001232463;7.2927;0.3974;-7.3191;-0.0496;-0.0434;-0.0160
0001232475;7.5058;0.5004;-7.3071;-0.0608;-0.0474;-0.0173
0001232483;7.3430;0.2705;-7.2233;-0.0675;-0.0525;-0.0205
0001232495;7.3215;0.1748;-7.1850;-0.0733;-0.0510;-0.0233
0001232503;7.3550;0.4094;-7.0677;-0.0733;-0.0496;-0.0294
0001232515;7.3406;0.2322;-7.1132;-0.0799;-0.0550;-0.0361
0001232523;7.3909;0.3089;-7.1228;-0.0810;-0.0614;-0.0360
0001232531;7.3717;0.3112;-7.1850;-0.0747;-0.0618;-0.0414
0001232543;7.5082;0.4549;-7.1994;-0.0791;-0.0746;-0.0510
0001232551;7.4460;0.3926;-7.2353;-0.0929;-0.0729;-0.0525
0001232563;7.3310;0.4573;-7.1922;-0.1047;-0.0634;-0.0541
0001232571;7.2042;0.4573;-7.1084;-0.1123;-0.0663;-0.0598
0001232583;7.3215;0.5962;-7.1299;-0.1271;-0.0677;-0.0596
0001232591;7.2472;0.3448;-7.0318;-0.1283;-0.0727;-0.0601
0001232603;7.2233;0.3089;-7.0964;-0.1204;-0.0825;-0.0568
0001232611;7.3023;0.3519;-7.0366;-0.1138;-0.0801;-0.0508
0001232679;7.1946;0.3926;-6.9432;-0.1929;-0.0839;-0.0412
0001232687;7.1419;0.3926;-7.0054;-0.1836;-0.0919;-0.0472
0001232695;7.3047;0.4310;-6.9216;-0.1747;-0.0913;-0.0406
0001232707;7.2233;0.4717;-7.0797;-0.1624;-0.0962;-0.0330
0001232715;7.1180;0.4908;-7.1922;-0.1623;-0.1094;-0.0393
0001232727;7.1443;0.5794;-7.0174;-0.1851;-0.1027;-0.0341
0001232735;7.0749;0.5531;-7.0006;-0.1867;-0.1067;-0.0349
0001232747;6.9192;0.4046;-6.8522;-0.2050;-0.0982;-0.0393
0001232755;7.0102;0.6153;-6.8354;-0.2128;-0.0886;-0.0378
0001232768;7.0485;0.4501;-6.8714;-0.1901;-0.0877;-0.0512
0001232777;7.2281;0.4980;-6.8690;-0.1845;-0.0891;-0.0549
0001232790;7.2927;0.5100;-7.0868;-0.1697;-0.1074;-0.0520
0001232799;7.1275;0.4932;-6.9887;-0.1832;-0.0933;-0.0345
0001232808;7.1395;0.5674;-6.9192;-0.1797;-0.0910;-0.0258
0001232821;7.0174;0.6225;-6.8115;-0.1795;-0.0787;-0.0193
0001232830;7.1898;0.7374;-6.8211;-0.1671;-0.0789;-0.0301
0001232843;7.1228;0.8523;-6.8570;-0.1691;-0.0822;-0.0364
0001232852;7.0198;0.7183;-6.8450;-0.1749;-0.0761;-0.0333
0001232864;7.1467;0.8260;-6.9192;-0.1957;-0.0761;-0.0409
0001232873;7.1802;0.9098;-6.8690;-0.2208;-0.0722;-0.0297
0001232886;7.1802;1.0343;-6.7397;-0.2585;-0.0698;-0.0193
0001232895;7.0102;0.9050;-6.6008;-0.2711;-0.0691;-0.0132
0001232964;7.3334;1.3479;-6.5912;-0.2902;-0.0285;0.0019
0001232973;7.0581;1.1109;-6.4428;-0.2963;-0.0253;-0.0008
0001232982;7.0318;0.9936;-6.4596;-0.2974;-0.0132;0.0117
0001232995;7.1228;0.7685;-6.5936;-0.3096;-0.0140;0.0340
0001233004;7.1970;0.7973;-6.4931;-0.3000;-0.0232;0.0416
0001233017;7.1539;0.6752;-6.4236;-0.2825;-0.0242;0.0500
0001233026;7.0270;0.5770;-6.1435;-0.2743;-0.0128;0.0565
0001233039;7.0988;0.5315;-6.3255;-0.2539;-0.0117;0.0421
0001233048;7.1204;0.5100;-6.2201;-0.2322;-0.0096;0.0452
0001233061;7.1467;0.4286;-6.2082;-0.2022;-0.0040;0.0372
0001233070;7.2113;0.4118;-6.3063;-0.1807;-0.0049;0.0366
0001233079;7.2880;0.4884;-6.3710;-0.1500;-0.0053;0.0288
0001233092;7.2137;0.7661;-6.4739;-0.1300;-0.0001;0.0237
0001233101;7.0988;0.7781;-6.4739;-0.1352;0.0081;0.0220
0001233114;7.2449;1.0391;-6.2920;-0.1318;0.0125;0.0313
0001233123;7.1658;1.0343;-6.3470;-0.1372;0.0151;0.0382
0001233136;7.1491;0.9553;-6.3542;-0.1262;0.0044;0.0322
0001233145;7.1706;1.1181;-6.5410;-0.1356;-0.0091;0.0332
0001233158;6.9839;0.9242;-6.3303;-0.1486;-0.0245;0.0220
0001233167;7.2233;1.1564;-6.2560;-0.1656;-0.0188;0.0284
0001233176;7.2449;1.2258;-6.2010;-0.1708;-0.0005;0.0376
0001233189;7.1850;0.9457;-6.1172;-0.1700;0.0188;0.0460
0001233198;7.1251;0.8188;-6.1938;-0.1540;0.0228;0.0492
0001233267;7.3430;1.2043;-6.1411;-0.1801;0.0309;0.0071
0001233276;7.3909;1.0439;-6.1579;-0.1765;0.0346;0.0048
0001233289;7.5010;1.0151;-6.1986;-0.1836;0.0338;0.0105
0001233298;7.4579;0.9697;-6.1651;-0.1691;0.0357;0.0043
0001233307;7.3406;0.9146;-6.0597;-0.1428;0.0341;-0.0001
0001233320;7.3119;1.0056;-6.0118;-0.0990;0.0252;-0.0160
0001233329;7.2089;0.9529;-6.0525;-0.0789;0.0151;-0.0294
0001233342;7.4795;1.2929;-6.2728;-0.0789;0.0139;-0.0356
0001233351;7.4388;1.2953;-6.2130;-0.0965;0.0240;-0.0434
0001233367;7.6758;1.5921;-6.0956;-0.1435;0.0513;-0.0554
0001233376;7.5753;1.4581;-6.0071;-0.1648;0.0588;-0.0513
0001233389;7.5465;1.0534;-5.9448;-0.1679;0.0701;-0.0432
0001233398;7.6591;1.0630;-5.8849;-0.1508;0.0649;-0.0429
0001233407;7.2856;0.8691;-5.8610;-0.1282;0.0614;-0.0357
0001233419;7.2281;0.8140;-5.8059;-0.0873;0.0337;-0.0385
0001233428;7.0294;0.8475;-5.8706;-0.0636;0.0087;-0.0352
0001233441;7.1515;1.1923;-5.8059;-0.0533;-0.0140;-0.0438
0001233450;7.0916;1.2665;-5.8969;-0.0679;-0.0226;-0.0492
0001233519;7.4484;1.3623;-5.9065;-0.0809;0.0004;-0.0490
0001233528;7.3430;1.3599;-5.9089;-0.0885;0.0136;-0.0509
0001233541;7.3550;1.2617;-6.0238;-0.1014;0.0293;-0.0521
0001233550;7.3670;1.2953;-5.9927;-0.1015;0.0281;-0.0564
0001233562;7.4675;1.3168;-5.8706;-0.1030;0.0338;-0.0472
0001233571;7.3263;1.2282;-5.8778;-0.1031;0.0350;-0.0345
0001233580;7.1467;1.0750;-5.9759;-0.0937;0.0240;-0.0350
0001233593;7.2161;1.1947;-5.8897;-0.0751;0.0208;-0.0297
0001233602;7.1084;1.2522;-5.9065;-0.0781;0.0238;-0.0238
0001233614;7.1323;1.0798;-5.8299;-0.0686;0.0168;-0.0273
0001233623;7.1443;1.2091;-5.8083;-0.0596;0.0051;-0.0334
0001233636;7.0030;1.1732;-5.7509;-0.0501;-0.0132;-0.0285
0001233645;7.1036;1.0343;-5.8083;-0.0416;-0.0183;-0.0156
0001233657;6.9671;0.9960;-5.8466;-0.0345;-0.0306;-0.0213
0001233666;7.0270;0.9697;-5.8347;-0.0288;-0.0354;-0.0169
0001233675;7.2640;1.2450;-5.7197;-0.0374;-0.0384;-0.0083
0001233688;7.3047;1.3072;-5.8227;-0.0338;-0.0497;-0.0072
0001233697;7.3263;1.3216;-5.8347;-0.0253;-0.0521;-0.0028
0001233709;7.3095;1.2426;-5.7724;-0.0193;-0.0537;-0.0088
0001233718;7.3095;1.3288;-5.8107;-0.0183;-0.0522;-0.0028
0001233731;7.2712;1.2689;-5.9113;-0.0203;-0.0497;-0.0033
0001233740;7.4603;1.3503;-5.8802;-0.0135;-0.0544;-0.0093
0001233810;7.2640;1.3815;-5.7916;-0.0121;-0.0659;0.0248
0001233819;7.3239;1.3862;-5.7413;-0.0167;-0.0661;0.0225
0001233832;7.3167;1.2857;-5.7365;-0.0127;-0.0644;0.0217
0001233841;7.3526;1.2258;-5.8083;-0.0147;-0.0726;0.0193
0001233850;7.2832;1.2067;-5.8179;-0.0273;-0.0723;0.0234
0001233862;7.2951;1.0511;-5.8347;-0.0211;-0.0698;0.0197
0001233871;7.3741;1.1803;-5.9807;-0.0045;-0.0745;0.0216
0001233884;7.5537;1.3575;-5.8993;0.0152;-0.0644;0.0187
0001233893;7.4747;1.3599;-5.9304;0.0132;-0.0552;0.0224
0001233905;7.3861;1.4174;-5.9592;0.0069;-0.0496;0.0121
0001233914;7.2592;1.3910;-6.0094;-0.0129;-0.0473;0.0085
0001233923;7.3526;1.3312;-5.9017;-0.0131;-0.0508;0.0081
0001233936;7.4508;1.2929;-5.9664;-0.0225;-0.0504;0.0065
0001233945;7.2999;1.0750;-5.9448;-0.0252;-0.0418;0.0148
0001233957;7.4268;1.1468;-5.9137;-0.0164;-0.0397;0.0117
0001233966;7.4148;1.1851;-5.9089;-0.0208;-0.0314;0.0095
0001233979;7.3574;1.0630;-5.9256;-0.0113;-0.0293;-0.0065
0001233988;7.3574;1.1708;-5.8323;-0.0177;-0.0205;-0.0047
0001234000;7.4843;1.2067;-5.9280;-0.0196;-0.0136;-0.0059
0001234009;7.5633;1.4102;-6.0334;-0.0189;-0.0124;-0.0096
0001234022;7.5872;1.3886;-5.9065;-0.0225;-0.0160;-0.0155
0001234031;7.4364;1.3431;-6.0071;-0.0252;-0.0077;-0.0180
0001234040;7.4603;1.3384;-5.9185;-0.0218;-0.0148;-0.0232
0001234110;7.4484;1.2737;-5.8323;-0.0160;-0.0209;-0.0292
0001234119;7.3502;1.2546;-5.8921;-0.0128;-0.0276;-0.0293
0001234132;7.4460;1.2881;-5.8514;-0.0183;-0.0318;-0.0264
0001234141;7.2712;1.2330;-5.8131;-0.0224;-0.0325;-0.0266
0001234153;7.3622;1.2522;-5.7221;-0.0199;-0.0317;-0.0250
0001234162;7.2999;1.2809;-5.8179;-0.0159;-0.0402;-0.0220
0001234175;7.3885;1.0774;-5.8419;-0.0169;-0.0465;-0.0191
0001234184;7.4412;1.3815;-5.9424;-0.0109;-0.0524;-0.0238
0001234196;7.3478;1.2498;-5.9113;-0.0187;-0.0489;-0.0232
0001234205;7.3047;1.2546;-5.9280;-0.0187;-0.0408;-0.0163
0001234214;7.3119;1.2617;-5.9161;-0.0189;-0.0368;-0.0207
0001234227;7.4268;1.3838;-5.8826;-0.0213;-0.0358;-0.0230
0001234236;7.4244;1.4006;-5.7916;-0.0187;-0.0404;-0.0292
0001234248;7.1706;1.1779;-5.8945;-0.0253;-0.0404;-0.0209
0001234257;7.2377;1.2043;-5.8419;-0.0215;-0.0414;-0.0216
0001234270;7.1970;1.1444;-5.8586;-0.0215;-0.0389;-0.0081
0001234279;7.4723;1.4222;-5.9687;-0.0111;-0.0381;-0.0120
0001234291;7.4579;1.3934;-5.9137;-0.0129;-0.0334;-0.0183
0001234300;7.3478;1.4054;-5.9424;-0.0173;-0.0309;-0.0183
0001234313;7.3239;1.3886;-5.7892;-0.0185;-0.0330;-0.0204
0001234322;7.1156;1.1588;-5.8466;-0.0250;-0.0322;-0.0151
0001234331;7.3646;1.2474;-5.8012;-0.0152;-0.0361;-0.0079
0001234400;7.3454;1.2210;-5.9017;-0.0145;-0.0338;-0.0121
0001234409;7.1874;1.1947;-5.8730;-0.0208;-0.0364;-0.0040
0001234422;7.4795;1.3144;-5.8634;-0.0270;-0.0373;0.0045
0001234431;7.4627;1.2761;-5.8969;-0.0254;-0.0432;-0.0023
0001234443;7.3933;1.1827;-5.8203;-0.0230;-0.0352;-0.0085
0001234452;7.4915;1.2450;-5.8155;-0.0104;-0.0385;-0.0140
0001234465;7.4412;1.3001;-5.9711;-0.0179;-0.0416;-0.0137
0001234474;7.4077;1.3048;-5.8466;-0.0180;-0.0488;-0.0112
0001234483;7.3694;1.2306;-5.7676;-0.0193;-0.0452;-0.0072
0001234495;7.2927;1.1779;-5.8466;-0.0131;-0.0448;-0.0064
0001234504;7.3933;1.4557;-5.8299;-0.0037;-0.0448;-0.0069
0001234517;7.4508;1.3144;-5.8419;-0.0021;-0.0426;-0.0143
0001234526;7.3909;1.3838;-5.8993;-0.0201;-0.0321;-0.0132
0001234538;7.4077;1.3216;-5.8658;-0.0181;-0.0274;-0.0159
0001234547;7.2592;1.2043;-5.7844;-0.0148;-0.0265;-0.0244
0001234560;7.3287;1.1660;-5.7748;-0.0179;-0.0237;-0.0229
0001234569;7.5106;1.2282;-5.7509;-0.0099;-0.0320;-0.0250
0001234581;7.3430;1.2354;-5.8155;-0.0168;-0.0318;-0.0201
0001234590;7.3191;1.2689;-5.7964;-0.0107;-0.0325;-0.0215
0001234599;7.4531;1.3216;-5.8945;-0.0204;-0.0300;-0.0192
0001234612;7.4268;1.3336;-5.8466;-0.0141;-0.0345;-0.0253
0001234621;7.4723;1.4293;-5.9256;-0.0107;-0.0385;-0.0293
0001234689;7.3334;1.2929;-5.8586;-0.0260;-0.0333;-0.0280
0001234698;7.3574;1.3144;-5.7724;-0.0312;-0.0286;-0.0211
0001234711;7.2568;1.2689;-5.8299;-0.0211;-0.0406;-0.0153
0001234720;7.2401;1.2139;-5.7461;-0.0222;-0.0380;-0.0112
0001234732;7.3526;1.2258;-5.8466;-0.0164;-0.0420;-0.0073
0001234741;7.4436;1.4102;-5.8586;-0.0157;-0.0502;-0.0140
0001234754;7.3430;1.3695;-5.8993;-0.0140;-0.0434;-0.0229
0001234763;7.3598;1.2689;-5.8395;-0.0242;-0.0333;-0.0139
0001234772;7.4675;1.4030;-5.8299;-0.0197;-0.0390;-0.0156
0001234784;7.4364;1.2977;-5.8395;-0.0224;-0.0349;-0.0113
0001234793;7.3191;1.1684;-5.8275;-0.0131;-0.0370;-0.0131
0001234806;7.2496;1.1995;-5.8203;-0.0188;-0.0444;-0.0132
0001234815;7.3550;1.3982;-5.8442;-0.0246;-0.0417;-0.0072
0001234826;7.3406;1.2258;-5.8035;-0.0201;-0.0436;-0.0121
0001234835;7.4316;1.2905;-5.7748;-0.0224;-0.0408;-0.0121
0001234849;7.1347;1.1660;-5.8227;-0.0191;-0.0354;-0.0119
0001234858;7.3239;1.2665;-5.8203;-0.0273;-0.0257;-0.0069
0001234871;7.3717;1.2210;-5.8634;-0.0212;-0.0333;-0.0067
0001234880;7.2736;1.0870;-5.8251;-0.0211;-0.0393;-0.0040
0001234889;7.3239;1.3216;-5.8730;-0.0143;-0.0480;-0.0167
0001234901;7.2903;1.1803;-5.8227;-0.0238;-0.0397;-0.0096
0001234910;7.4484;1.3384;-5.8945;-0.0232;-0.0400;-0.0147
0001234979;7.5369;1.4126;-5.8993;-0.0300;-0.0337;-0.0204
0001234988;7.4101;1.4437;-5.9089;-0.0404;-0.0298;-0.0177
0001235000;7.3765;1.3599;-5.7269;-0.0426;-0.0301;-0.0155
0001235009;7.4843;1.2833;-5.7844;-0.0401;-0.0350;-0.0236
0001235022;7.3670;1.3743;-5.8155;-0.0366;-0.0392;-0.0265
0001235031;7.4244;1.4006;-5.8059;-0.0434;-0.0442;-0.0250
0001235043;7.4005;1.3791;-5.8873;-0.0440;-0.0422;-0.0266
0001235052;7.2903;1.2929;-5.8395;-0.0465;-0.0412;-0.0184
0001235061;7.3933;1.2689;-5.7820;-0.0505;-0.0353;-0.0208
0001235074;7.4915;1.4413;-5.7916;-0.0480;-0.0366;-0.0232
0001235083;7.3478;1.3408;-5.6934;-0.0498;-0.0332;-0.0253
0001235095;7.4627;1.3455;-5.8754;-0.0518;-0.0368;-0.0199
0001235104;7.1874;1.2641;-5.8227;-0.0548;-0.0485;-0.0215
0001235117;7.3741;1.1899;-5.7652;-0.0517;-0.0506;-0.0176
0001235126;7.4292;1.5060;-5.8802;-0.0526;-0.0368;-0.0148
0001235138;7.3023;1.4222;-5.7892;-0.0420;-0.0369;-0.0196
0001235147;7.2927;1.3312;-5.7389;-0.0382;-0.0454;-0.0221
0001235156;7.3717;1.3982;-5.8275;-0.0473;-0.0417;-0.0132
0001235169;7.4555;1.4605;-5.7940;-0.0533;-0.0382;-0.0161
0001235178;7.4843;1.5155;-5.7916;-0.0642;-0.0294;-0.0076
0001235190;7.4101;1.2737;-5.7652;-0.0655;-0.0252;-0.0103
0001235199;7.4531;1.2522;-5.8227;-0.0671;-0.0313;-0.0157
0001235268;7.4771;1.4724;-5.7557;-0.0408;-0.0322;-0.0132
0001235277;7.4220;1.4293;-5.7772;-0.0453;-0.0334;-0.0171
0001235289;7.2832;1.4605;-5.7652;-0.0484;-0.0365;-0.0147
0001235298;7.3358;1.4868;-5.8993;-0.0529;-0.0373;-0.0117
0001235311;7.2760;1.3647;-5.8131;-0.0593;-0.0430;-0.0147
0001235320;7.3622;1.3431;-5.7245;-0.0630;-0.0490;-0.0221
0001235329;7.3095;1.2785;-5.6623;-0.0653;-0.0441;-0.0199
0001235341;7.4603;1.4222;-5.6479;-0.0598;-0.0409;-0.0274
0001235350;7.3239;1.1013;-5.6503;-0.0549;-0.0370;-0.0306
0001235363;7.4603;1.3168;-5.6527;-0.0397;-0.0380;-0.0253
0001235372;7.3263;1.2019;-5.5976;-0.0298;-0.0338;-0.0221
0001235384;7.3526;1.3503;-5.7461;-0.0296;-0.0410;-0.0273
0001235391;7.5561;1.5036;-5.7772;-0.0349;-0.0333;-0.0250
0001235403;7.2712;1.3575;-5.6623;-0.0346;-0.0300;-0.0304
0001235411;7.2903;1.4246;-5.7557;-0.0348;-0.0281;-0.0298
0001235422;7.3191;1.4892;-5.7485;-0.0332;-0.0322;-0.0297
0001235430;7.2951;1.3096;-5.6240;-0.0389;-0.0325;-0.0268
0001235438;7.4579;1.4676;-5.6072;-0.0377;-0.0282;-0.0222
0001235450;7.3885;1.2977;-5.6168;-0.0325;-0.0372;-0.0274
0001235458;7.2856;1.2378;-5.6000;-0.0361;-0.0338;-0.0265
0001235469;7.2784;1.3599;-5.7413;-0.0304;-0.0348;-0.0253
0001235477;7.2113;1.2809;-5.6575;-0.0226;-0.0370;-0.0276
0001235543;7.4723;1.5107;-5.6024;-0.0281;-0.0344;-0.0221
0001235551;7.2568;1.3886;-5.6814;-0.0189;-0.0361;-0.0230
0001235562;7.5154;1.4341;-5.5522;-0.0128;-0.0294;-0.0175
0001235570;7.3789;1.4198;-5.6671;-0.0040;-0.0308;-0.0213
0001235582;7.2401;1.2905;-5.6695;-0.0004;-0.0340;-0.0209
0001235590;7.4053;1.4892;-5.7078;-0.0069;-0.0309;-0.0187
0001235598;7.3167;1.3479;-5.7006;-0.0075;-0.0348;-0.0111
0001235609;7.3670;1.5227;-5.7389;-0.0036;-0.0417;-0.0187
0001235617;7.3861;1.4078;-5.7365;-0.0169;-0.0321;-0.0143
0001235629;7.2089;1.2833;-5.6695;-0.0236;-0.0280;-0.0056
0001235637;7.3550;1.2641;-5.6647;-0.0217;-0.0238;-0.0048
