time;acc_x;acc_y;acc_z;gyro_x;gyro_y;gyro_z
0000969093;5.4803;-16.0412;1.6496;0.0012;0.0221;-0.0410
0000969102;5.5067;-16.0244;1.6041;-0.0005;0.0281;-0.0382
0000969109;5.3965;-16.0962;1.5874;-0.0015;0.0350;-0.0372
0000969117;5.4133;-16.0938;1.6448;0.0003;0.0336;-0.0381
0000969126;5.3510;-16.0675;1.6951;0.0001;0.0329;-0.0421
0000969134;5.3582;-15.9262;1.6712;0.0127;0.0294;-0.0405
0000969146;5.5426;-15.8089;1.6281;0.0103;0.0238;-0.0378
0000969154;5.2337;-15.8879;1.6735;0.0019;0.0203;-0.0344
0000969162;5.2625;-15.7945;1.6161;0.0019;0.0093;-0.0334
0000969173;5.3079;-15.9119;1.7238;-0.0151;0.0107;-0.0246
0000969181;5.2433;-15.8879;1.6544;-0.0131;-0.0031;-0.0270
0000969193;5.3870;-16.0100;1.6568;-0.0209;-0.0079;-0.0234
0000969201;5.4995;-16.0148;1.6544;-0.0165;-0.0116;-0.0250
0000969212;5.3439;-16.1585;1.6807;-0.0244;-0.0088;-0.0238
0000969220;5.4396;-16.0962;1.6376;-0.0249;-0.0157;-0.0242
0000969232;5.3606;-16.3069;1.7071;-0.0192;-0.0145;-0.0208
0000969240;5.4827;-16.2016;1.6041;-0.0120;-0.0221;-0.0245
0000969303;5.2241;-16.0771;1.7310;-0.0175;-0.0421;-0.0065
0000969311;5.2433;-15.9837;1.6616;-0.0171;-0.0521;-0.0076
0000969319;5.3199;-15.9837;1.6759;-0.0179;-0.0492;-0.0036
0000969331;5.4731;-15.9621;1.5610;-0.0161;-0.0573;-0.0039
0000969339;5.3606;-15.9526;1.6592;-0.0236;-0.0534;0.0044
0000969350;5.4636;-15.9717;1.5802;-0.0159;-0.0609;-0.0005
0000969358;5.3774;-16.0340;1.5945;-0.0153;-0.0546;-0.0005
0000969370;5.4947;-16.0100;1.5945;-0.0181;-0.0533;0.0012
0000969378;5.6407;-16.0005;1.6161;-0.0256;-0.0448;0.0031
0000969389;5.2960;-16.2447;1.5945;-0.0257;-0.0510;0.0007
0000969397;5.4516;-16.0172;1.5610;-0.0232;-0.0490;-0.0048
0000969409;5.4037;-16.0483;1.5802;-0.0197;-0.0560;-0.0049
0000969417;5.5186;-15.9669;1.6352;-0.0282;-0.0484;-0.0003
0000969428;5.3008;-16.1489;1.6592;-0.0183;-0.0537;-0.0041
0000969436;5.3798;-16.0842;1.6448;-0.0204;-0.0497;-0.0003
0000969444;5.4348;-16.0100;1.5610;-0.0272;-0.0466;0.0027
0000969456;5.4277;-16.0507;1.5490;-0.0230;-0.0450;0.0081
0000969464;5.5282;-15.9957;1.6281;-0.0179;-0.0365;0.0108
0000969475;5.5354;-16.0627;1.6161;-0.0173;-0.0412;0.0059
0000969483;5.4947;-15.9502;1.6759;-0.0145;-0.0332;0.0019
0000969495;5.4708;-16.0435;1.6831;-0.0085;-0.0384;-0.0031
0000969503;5.4300;-16.0124;1.6424;-0.0073;-0.0342;0.0005
0000969566;5.5929;-15.8927;1.5682;-0.0113;-0.0232;-0.0021
0000969574;5.3822;-16.0316;1.6257;-0.0141;-0.0169;-0.0008
0000969586;5.2888;-16.1441;1.6520;-0.0096;-0.0136;-0.0001
0000969594;5.5785;-15.8688;1.6448;-0.0029;-0.0196;-0.0007
0000969602;5.2792;-16.0412;1.5634;-0.0027;-0.0164;-0.0032
0000969613;5.4157;-15.9454;1.5203;-0.0064;-0.0135;0.0024
0000969621;5.4444;-15.9334;1.5395;-0.0051;-0.0157;0.0020
0000969633;5.5474;-15.9933;1.6855;-0.0083;-0.0113;0.0012
0000969641;5.4803;-15.9238;1.6352;-0.0025;-0.0167;-0.0031
0000969652;5.5785;-15.9358;1.7119;-0.0085;-0.0051;-0.0011
0000969660;5.2505;-16.0220;1.6281;-0.0035;-0.0116;-0.0052
0000969672;5.3343;-16.0100;1.6879;-0.0084;-0.0097;-0.0048
0000969680;5.4109;-15.8688;1.6209;-0.0183;-0.0097;-0.0043
0000969691;5.3247;-15.8879;1.6305;-0.0313;-0.0035;0.0045
0000969699;5.4660;-15.8712;1.6712;-0.0364;-0.0053;0.0000
0000969707;5.4708;-15.9286;1.5945;-0.0381;-0.0064;0.0001
0000969719;5.5474;-15.9167;1.6688;-0.0408;-0.0064;-0.0019
0000969727;5.4253;-16.0627;1.6544;-0.0392;-0.0064;0.0003
0000969738;5.2816;-16.0986;1.5586;-0.0352;-0.0021;-0.0028
0000969746;5.3846;-16.1273;1.5969;-0.0322;-0.0056;-0.0015
0000969758;5.3798;-16.0675;1.5874;-0.0266;0.0027;0.0049
0000969766;5.2361;-16.1704;1.6065;-0.0226;0.0016;-0.0003
0000969829;5.3774;-15.9813;1.6927;-0.0016;0.0047;-0.0080
0000969837;5.2816;-16.0890;1.7693;-0.0096;0.0108;-0.0041
0000969849;5.2026;-16.0555;1.7047;-0.0100;0.0085;-0.0033
0000969857;5.4133;-15.9502;1.6496;-0.0152;0.0108;0.0015
0000969865;5.3008;-15.9167;1.6520;-0.0191;0.0101;-0.0003
0000969876;5.2912;-15.9454;1.6305;-0.0156;0.0069;-0.0017
0000969884;5.2816;-16.1178;1.6783;-0.0196;-0.0009;-0.0017
0000969896;5.3151;-16.0579;1.6352;-0.0068;-0.0056;0.0020
0000969904;5.3103;-16.0771;1.6544;-0.0057;-0.0085;-0.0004
0000969915;5.2984;-16.1656;1.6688;0.0059;-0.0067;0.0067
0000969923;5.3343;-16.1202;1.6137;0.0132;-0.0109;-0.0085
0000969935;5.2050;-16.1896;1.7430;0.0282;-0.0047;-0.0053
0000969943;5.2936;-16.1441;1.7526;0.0382;-0.0099;-0.0125
0000969954;5.2696;-16.1273;1.7406;0.0434;-0.0075;-0.0111
0000969962;5.2241;-16.1537;1.6975;0.0326;-0.0073;-0.0079
0000969970;5.1978;-16.0292;1.7095;0.0300;-0.0113;-0.0095
0000969982;5.2313;-16.0483;1.7286;0.0124;-0.0084;-0.0069
0000969990;5.1858;-16.0651;1.6688;0.0133;-0.0135;-0.0143
0000970001;5.2720;-16.1034;1.6640;0.0027;-0.0104;-0.0097
0000970009;5.2529;-16.0364;1.7262;0.0139;-0.0119;-0.0055
0000970021;5.1739;-16.0866;1.7023;0.0057;-0.0107;-0.0040
0000970029;5.3726;-15.8161;1.6759;0.0123;-0.0203;-0.0091
0000970092;5.3534;-15.9334;1.7214;0.0076;-0.0148;-0.0128
0000970100;5.3175;-16.0962;1.6688;0.0160;-0.0201;-0.0111
0000970112;5.1451;-16.2542;1.7071;0.0216;-0.0187;-0.0084
0000970120;5.2218;-16.0005;1.6999;0.0234;-0.0159;0.0004
0000970128;5.1691;-16.1297;1.7238;0.0273;-0.0245;-0.0011
0000970139;5.2074;-16.1800;1.7382;0.0241;-0.0245;-0.0032
0000970147;5.1547;-16.1034;1.8052;0.0248;-0.0290;-0.0053
0000970159;5.3606;-15.8975;1.7382;0.0216;-0.0364;-0.0035
0000970167;5.2026;-15.9286;1.7190;0.0073;-0.0353;-0.0012
0000970178;5.2984;-15.9143;1.7023;-0.0027;-0.0412;-0.0039
0000970186;5.2577;-16.0388;1.6735;-0.0037;-0.0444;-0.0032
0000970198;5.3558;-15.9214;1.7071;-0.0152;-0.0390;0.0015
0000970206;5.3822;-15.9645;1.7238;-0.0237;-0.0312;0.0013
0000970217;5.3127;-15.8855;1.7573;-0.0250;-0.0344;0.0036
0000970225;5.1523;-15.9190;1.6903;-0.0284;-0.0361;0.0057
0000970233;5.3463;-15.8137;1.7597;-0.0208;-0.0406;-0.0005
0000970245;5.2888;-15.8999;1.8028;-0.0272;-0.0390;-0.0001
0000970253;5.2194;-15.9071;1.7765;-0.0350;-0.0369;0.0048
0000970264;5.2960;-15.8520;1.7454;-0.0358;-0.0405;0.0027
0000970272;5.1404;-15.9478;1.7190;-0.0370;-0.0364;0.0007
0000970284;5.4396;-15.8616;1.7047;-0.0397;-0.0368;-0.0004
0000970292;5.1978;-15.9669;1.6855;-0.0477;-0.0277;0.0004
0000970355;5.2648;-16.1034;1.6783;-0.0334;-0.0232;-0.0012
0000970363;5.1451;-16.2494;1.6113;-0.0264;-0.0274;-0.0091
0000970375;5.0996;-16.2231;1.7454;-0.0193;-0.0244;-0.0107
0000970383;4.9895;-16.2040;1.7382;-0.0149;-0.0272;-0.0091
0000970391;5.1858;-16.0986;1.6927;-0.0189;-0.0220;-0.0033
0000970402;5.0063;-15.9813;1.7597;-0.0144;-0.0344;-0.0041
0000970410;5.3486;-15.8400;1.7765;-0.0220;-0.0326;0.0027
0000970422;5.2194;-15.8879;1.7023;-0.0342;-0.0381;-0.0031
0000970430;4.9512;-16.0483;1.6281;-0.0390;-0.0374;-0.0015
0000970442;5.2816;-15.8185;1.6664;-0.0441;-0.0422;-0.0065
0000970450;5.3702;-15.9502;1.7262;-0.0408;-0.0436;-0.0023
0000970461;5.0781;-16.0148;1.6712;-0.0325;-0.0504;-0.0053
0000970469;5.2529;-16.0005;1.7262;-0.0289;-0.0488;0.0000
0000970481;5.2672;-15.9741;1.7549;-0.0180;-0.0485;0.0009
0000970489;5.2026;-15.9789;1.6640;-0.0187;-0.0473;-0.0001
0000970500;5.0063;-16.0340;1.6616;-0.0161;-0.0554;-0.0021
0000970508;5.1356;-15.9909;1.6831;-0.0176;-0.0520;0.0008
0000970516;5.2385;-15.9837;1.7166;-0.0244;-0.0540;0.0033
0000970528;5.1523;-15.9358;1.7166;-0.0300;-0.0566;0.0056
0000970536;5.1188;-16.0962;1.6041;-0.0325;-0.0568;0.0001
0000970547;5.0877;-16.1297;1.7023;-0.0340;-0.0616;0.0029
0000970555;5.1739;-16.0579;1.7669;-0.0324;-0.0573;0.0065
0000970619;5.2050;-16.1034;1.5921;-0.0289;-0.0492;0.0040
0000970627;5.2026;-16.0268;1.6376;-0.0322;-0.0526;0.0052
0000970638;5.2864;-15.9310;1.6807;-0.0332;-0.0512;0.0041
0000970646;5.0230;-16.0172;1.6185;-0.0302;-0.0557;-0.0004
0000970658;5.1954;-16.0172;1.6376;-0.0310;-0.0584;0.0023
0000970666;5.0661;-16.0914;1.6352;-0.0364;-0.0533;0.0000
0000970674;5.0302;-16.1106;1.6927;-0.0328;-0.0560;0.0036
0000970685;5.1715;-16.0962;1.6305;-0.0297;-0.0604;-0.0008
0000970693;5.1068;-16.1082;1.6352;-0.0353;-0.0473;0.0031
0000970705;5.2936;-15.9382;1.6137;-0.0352;-0.0450;0.0037
0000970713;5.4660;-15.9574;1.5538;-0.0313;-0.0497;-0.0009
0000970724;5.2289;-16.0651;1.4868;-0.0369;-0.0430;0.0012
0000970732;5.0973;-16.0316;1.5419;-0.0324;-0.0437;-0.0035
0000970744;5.2720;-15.9813;1.6161;-0.0402;-0.0334;0.0027
0000970752;5.2816;-16.0100;1.5562;-0.0373;-0.0300;0.0033
0000970763;5.3463;-16.0244;1.5945;-0.0258;-0.0376;-0.0064
0000970771;5.1356;-16.1034;1.5395;-0.0272;-0.0310;0.0043
0000970779;5.0996;-16.1130;1.5514;-0.0293;-0.0320;0.0040
0000970791;5.1451;-16.0986;1.6065;-0.0284;-0.0293;0.0044
0000970799;5.2122;-16.0172;1.6328;-0.0222;-0.0296;-0.0024
0000970811;5.1116;-16.1130;1.5371;-0.0213;-0.0256;0.0004
0000970819;5.2864;-16.0100;1.5826;-0.0120;-0.0265;-0.0035
0000970885;5.0781;-16.1034;1.6161;-0.0305;-0.0221;-0.0009
0000970893;5.1906;-16.0962;1.6161;-0.0284;-0.0153;-0.0015
0000970904;5.1954;-16.0412;1.4964;-0.0172;-0.0209;-0.0015
0000970912;5.1236;-16.1345;1.6400;-0.0141;-0.0176;0.0011
0000970924;5.0422;-16.1082;1.6568;-0.0032;-0.0199;-0.0068
0000970932;5.1260;-16.0148;1.6137;0.0057;-0.0240;-0.0044
0000970940;5.1811;-15.9981;1.5778;-0.0011;-0.0229;-0.0029
0000970951;5.0709;-16.0124;1.7119;-0.0048;-0.0250;-0.0067
0000970959;5.0996;-16.0172;1.5443;-0.0089;-0.0197;0.0015
0000970971;5.1547;-15.9837;1.6472;-0.0112;-0.0233;0.0012
0000970979;5.1882;-16.0220;1.6017;-0.0127;-0.0226;0.0027
0000970990;5.1236;-15.9430;1.5993;-0.0143;-0.0256;0.0021
0000970998;5.1763;-16.0603;1.5562;-0.0152;-0.0179;0.0019
0000971010;5.2098;-16.0028;1.6664;-0.0075;-0.0199;-0.0003
0000971018;5.1667;-16.0100;1.6281;-0.0109;-0.0193;-0.0004
0000971029;5.2433;-16.0412;1.6328;-0.0108;-0.0215;-0.0007
0000971037;5.0159;-16.2087;1.6544;-0.0019;-0.0257;-0.0055
0000971049;5.1260;-16.1082;1.5131;0.0025;-0.0285;-0.0051
0000971057;5.0709;-16.2207;1.6065;-0.0009;-0.0225;-0.0017
0000971065;5.0805;-16.0459;1.7119;0.0001;-0.0226;0.0024
0000971077;5.2385;-15.7922;1.5586;0.0053;-0.0218;0.0036
0000971085;5.2337;-15.9047;1.5658;0.0060;-0.0281;-0.0008
0000971151;5.1404;-16.0938;1.6257;0.0123;-0.0137;-0.0027
0000971159;5.1475;-16.1704;1.5443;0.0163;-0.0179;-0.0069
0000971170;5.1140;-16.1010;1.6712;0.0215;-0.0163;-0.0056
0000971178;5.1332;-15.9669;1.6568;0.0167;-0.0160;-0.0088
0000971190;5.0709;-16.0076;1.6544;0.0240;-0.0207;-0.0127
0000971198;5.0949;-15.9645;1.6065;0.0180;-0.0241;-0.0131
0000971209;5.0422;-15.9262;1.5730;0.0145;-0.0309;-0.0203
0000971217;5.0805;-16.0890;1.6855;0.0071;-0.0266;-0.0127
0000971225;5.2936;-15.8568;1.6759;0.0000;-0.0256;-0.0104
0000971237;5.0159;-16.1513;1.6616;0.0049;-0.0276;-0.0153
0000971245;5.1571;-16.0938;1.7023;0.0037;-0.0230;-0.0145
0000971256;5.1427;-16.0531;1.6448;0.0167;-0.0318;-0.0171
0000971264;5.0733;-16.0459;1.6640;0.0140;-0.0240;-0.0133
0000971276;5.0805;-15.9789;1.6376;0.0199;-0.0242;-0.0136
0000971284;5.0661;-15.9406;1.6496;0.0105;-0.0266;-0.0161
0000971295;5.0613;-15.9454;1.5395;0.0015;-0.0266;-0.0180
0000971303;5.1188;-15.8329;1.6544;-0.0017;-0.0338;-0.0258
0000971311;5.0254;-16.0028;1.6065;-0.0012;-0.0396;-0.0281
0000971323;5.0159;-16.0603;1.6520;-0.0076;-0.0356;-0.0249
0000971331;5.0350;-16.0052;1.7430;-0.0067;-0.0416;-0.0281
0000971343;5.1715;-15.8807;1.6640;0.0005;-0.0361;-0.0269
0000971351;4.8674;-16.0100;1.6903;0.0015;-0.0389;-0.0254
0000971419;5.1930;-16.0268;1.6640;-0.0133;-0.0398;-0.0226
0000971427;5.2385;-15.9837;1.6783;-0.0067;-0.0429;-0.0238
0000971438;5.1954;-16.1010;1.6640;-0.0031;-0.0373;-0.0225
0000971446;5.1643;-16.0005;1.6903;-0.0041;-0.0420;-0.0225
0000971458;5.1691;-15.9597;1.6712;0.0013;-0.0513;-0.0280
0000971466;5.0973;-15.9765;1.5706;-0.0068;-0.0465;-0.0245
0000971477;5.2625;-15.8472;1.6520;-0.0105;-0.0438;-0.0244
0000971485;5.1356;-15.8783;1.7454;-0.0081;-0.0474;-0.0309
0000971493;5.1140;-16.0412;1.7334;-0.0176;-0.0457;-0.0260
0000971505;5.2361;-15.8975;1.5778;-0.0183;-0.0410;-0.0292
0000971513;5.0446;-15.9382;1.7095;-0.0143;-0.0470;-0.0344
0000971524;5.0446;-16.0388;1.6209;-0.0156;-0.0425;-0.0290
0000971532;5.0589;-16.0340;1.6113;-0.0155;-0.0429;-0.0277
0000971544;5.2289;-15.9526;1.7238;-0.0165;-0.0398;-0.0216
0000971552;5.1954;-16.0340;1.6999;-0.0140;-0.0429;-0.0261
0000971563;5.2218;-15.9717;1.7717;-0.0199;-0.0348;-0.0234
0000971571;5.2337;-16.1130;1.6592;-0.0160;-0.0389;-0.0257
0000971583;5.0685;-16.1154;1.6879;-0.0225;-0.0328;-0.0211
0000971591;5.1427;-16.0076;1.6975;-0.0200;-0.0348;-0.0233
0000971603;5.0805;-15.8807;1.6783;-0.0222;-0.0341;-0.0230
0000971611;5.0877;-15.9406;1.7262;-0.0246;-0.0373;-0.0258
0000971619;4.9704;-16.0148;1.6759;-0.0284;-0.0329;-0.0244
0000971687;5.1140;-16.1896;1.8459;-0.0029;-0.0290;-0.0370
0000971695;5.0973;-16.3141;1.7621;-0.0067;-0.0224;-0.0282
0000971706;5.0613;-16.1944;1.7621;0.0041;-0.0246;-0.0289
0000971714;5.3223;-15.9597;1.6975;0.0011;-0.0200;-0.0312
0000971726;5.1140;-15.9957;1.6113;-0.0087;-0.0171;-0.0345
0000971734;5.3032;-16.0435;1.6376;-0.0181;-0.0109;-0.0310
0000971745;5.2313;-16.0005;1.7119;-0.0124;-0.0157;-0.0361
0000971753;5.2409;-15.9406;1.6664;-0.0187;-0.0157;-0.0404
0000971765;5.1667;-16.0723;1.6999;-0.0073;-0.0187;-0.0389
0000971773;5.2218;-15.8424;1.6759;-0.0040;-0.0141;-0.0361
0000971785;5.1068;-16.0699;1.7334;0.0017;-0.0185;-0.0376
0000971793;5.2194;-16.0412;1.7119;0.0011;-0.0152;-0.0320
0000971801;5.2098;-15.9310;1.7047;0.0047;-0.0181;-0.0372
0000971812;5.2696;-15.8233;1.6688;-0.0049;-0.0140;-0.0322
0000971820;5.0470;-16.0052;1.7238;-0.0053;-0.0211;-0.0386
0000971832;5.0949;-16.0459;1.6568;-0.0160;-0.0230;-0.0428
0000971840;5.1427;-16.0412;1.7023;-0.0165;-0.0224;-0.0413
0000971851;4.9177;-16.2135;1.6903;-0.0197;-0.0187;-0.0353
0000971859;5.1523;-16.0723;1.7741;-0.0181;-0.0215;-0.0356
0000971871;5.0566;-16.0986;1.7454;-0.0128;-0.0257;-0.0337
0000971879;5.2122;-16.1561;1.7549;-0.0119;-0.0228;-0.0324
0000971947;5.0781;-15.9837;1.8028;0.0127;-0.0230;-0.0317
0000971955;5.0206;-16.0795;1.7526;0.0136;-0.0289;-0.0344
0000971963;5.2529;-15.9669;1.7214;0.0151;-0.0320;-0.0374
0000971975;5.2241;-15.9526;1.7478;0.0147;-0.0292;-0.0330
0000971983;5.2218;-15.9789;1.7669;0.0107;-0.0256;-0.0314
0000971994;5.1978;-15.9645;1.6807;0.0121;-0.0360;-0.0297
0000972002;5.2098;-16.0579;1.7478;0.0120;-0.0330;-0.0233
0000972014;5.2433;-15.9669;1.7980;0.0124;-0.0344;-0.0220
0000972022;5.1332;-16.1034;1.7262;0.0103;-0.0328;-0.0152
0000972033;5.3175;-15.9669;1.7693;0.0047;-0.0308;-0.0115
0000972041;5.2648;-16.0675;1.8411;0.0019;-0.0261;-0.0107
0000972053;5.2146;-16.0771;1.8100;-0.0008;-0.0262;-0.0071
0000972061;4.9871;-16.1992;1.9058;0.0031;-0.0297;-0.0151
0000972069;5.1427;-16.1609;1.8771;0.0117;-0.0329;-0.0155
0000972080;5.2194;-16.1106;1.9369;0.0141;-0.0313;-0.0145
0000972088;5.1906;-16.0268;2.0423;0.0051;-0.0316;-0.0120
0000972100;5.2050;-16.0507;2.0973;0.0119;-0.0408;-0.0230
0000972108;5.1787;-16.0627;2.1476;0.0161;-0.0472;-0.0293
0000972119;5.3151;-16.1034;2.2194;0.0151;-0.0560;-0.0356
0000972127;5.0805;-16.2016;2.2793;0.0101;-0.0617;-0.0384
0000972139;5.1451;-16.2518;2.4134;0.0123;-0.0766;-0.0410
0000972147;5.0781;-16.2662;2.4756;0.0152;-0.0861;-0.0516
0000972215;5.2409;-16.3955;3.1747;0.0211;-0.1833;-0.1584
0000972223;5.3008;-16.4362;3.3423;0.0654;-0.2069;-0.1516
0000972231;5.3127;-16.5535;3.4500;0.1202;-0.2273;-0.1344
0000972243;5.4564;-16.8025;3.8523;0.2354;-0.2633;-0.0977
0000972251;5.3798;-17.0611;4.2401;0.3308;-0.2762;-0.0629
0000972262;5.7748;-17.1473;4.5155;0.4995;-0.2902;-0.0128
0000972270;5.9783;-17.0443;4.7740;0.6515;-0.3079;0.0173
0000972282;6.1531;-16.5679;4.9608;0.9162;-0.3172;0.0640
0000972290;6.1746;-16.3285;5.1667;1.1166;-0.3256;0.0922
0000972301;6.0837;-15.5288;5.3032;1.3945;-0.3313;0.1242
0000972309;5.9951;-14.8369;5.1236;1.5779;-0.3204;0.1418
0000972317;5.8442;-14.1761;4.9608;1.7776;-0.3313;0.1327
0000972329;5.5306;-13.1130;4.1899;1.9696;-0.3508;0.0786
0000972337;5.4923;-12.1578;3.1867;2.0189;-0.3671;0.0049
0000972348;5.6479;-10.8793;1.9800;2.0423;-0.4143;-0.1079
0000972356;5.6288;-10.2807;0.3735;1.9725;-0.4297;-0.1669
0000972368;5.4899;-9.0740;-1.1181;1.8331;-0.4274;-0.2399
0000972376;5.0542;-8.6024;-2.7174;1.7375;-0.4353;-0.2743
0000972387;5.2385;-7.6806;-3.6009;1.7487;-0.4571;-0.3419
0000972395;5.3798;-7.0509;-3.8810;1.9024;-0.5287;-0.4185
0000972407;5.9304;-6.1794;-4.3503;2.3162;-0.6686;-0.5079
0000972415;5.6312;-5.3032;-4.1611;2.6096;-0.7368;-0.5348
0000972423;6.2177;-4.2856;-4.4819;2.8630;-0.7540;-0.5576
0000972491;7.0294;0.0479;-1.8579;0.8929;-0.4193;-1.1267
0000972499;6.9504;-0.3256;-0.8021;0.9417;-0.3564;-1.0645
0000972511;7.4915;-1.4940;0.3136;1.0102;-0.1336;-0.8769
0000972519;8.5904;-3.2465;-0.1245;0.8667;0.1773;-0.6707
0000972530;9.5840;-6.2345;1.8052;0.4588;0.6851;-0.4040
0000972538;9.5313;-8.7676;3.8666;0.2661;0.9884;-0.2670
0000972550;8.1930;-11.2934;0.6967;0.1372;1.3844;-0.3861
0000972558;9.2680;-12.0620;1.0942;0.2450;1.7189;-0.7172
0000972566;10.9128;-12.7372;2.1213;0.0721;2.1478;-1.1273
0000972577;11.8705;-13.8481;8.9950;-0.5433;2.2266;-1.7525
0000972585;11.1474;-15.1361;11.5017;-0.8464;2.0382;-2.0210
0000972597;8.2791;-17.0707;4.8100;-1.2296;2.1849;-2.0238
0000972605;6.7852;-16.0244;4.1611;-1.1846;2.2346;-1.7989
0000972616;4.5825;-13.7092;7.7692;-1.0068;2.3078;-1.2422
0000972624;3.7350;-12.5720;10.0245;-0.9475;2.1771;-0.7714
0000972636;3.2202;-12.7395;10.7500;-1.0541;1.7229;-0.1988
0000972644;2.3727;-14.2623;11.2839;-1.2406;1.3058;0.0866
0000972655;1.0942;-16.8791;13.2064;-1.4346;0.9371;0.2821
0000972663;-0.7805;-18.7945;12.2535;-1.5054;0.8783;0.2482
0000972671;-3.2968;-19.8719;11.8393;-1.4138;0.7350;0.2678
0000972683;-4.0677;-17.9302;13.8624;-1.3194;0.4588;0.3108
0000972691;-3.5650;-15.0188;15.0787;-1.5262;0.1260;0.4018
0000972759;19.9533;-59.2373;-26.4511;-4.3657;0.5419;-0.9258
0000972767;12.0787;-77.8211;-33.5069;-4.3657;-0.1998;-1.6366
0000972779;5.7461;-58.8327;-1.0558;-4.3657;0.5236;-0.5243
0000972787;4.1803;-43.9815;-6.7636;-3.1878;0.0847;0.3706
0000972798;7.5250;-37.1389;-8.6790;-2.2597;0.4354;0.7281
0000972806;6.2513;-36.5403;-8.6048;-2.4513;0.6340;0.7512
0000972818;5.3726;-32.1350;-4.2928;-1.3287;0.4812;0.5967
0000972826;5.0422;-29.5780;-4.1611;0.0376;0.3103;0.4656
0000972837;5.1547;-23.8678;-6.5146;2.1102;-0.1202;0.4355
0000972845;4.9967;-19.3571;-7.6255;3.0814;-0.3444;0.6710
0000972853;5.4708;-14.6094;-5.9831;3.4861;-0.4245;0.9441
0000972865;6.1914;-8.6095;-3.0718;3.2333;-0.5341;1.1595
0000972873;5.0135;-5.5043;-1.1660;2.5262;-0.6213;1.1667
0000972884;2.1644;-3.4788;-1.5802;1.1915;-1.0104;1.1026
0000972892;-0.0096;-4.3551;-2.0566;0.5021;-1.3214;0.9558
0000972904;-2.8994;-6.2465;0.5363;0.2194;-1.7949;0.7910
0000972912;-3.6655;-7.8171;0.1724;0.2798;-2.0087;0.7978
0000972923;-2.8108;-8.9567;-2.2673;0.3367;-2.2880;0.7254
0000972931;-0.7063;-9.3111;-3.3662;0.1978;-2.4371;0.4990
0000972939;1.0056;-10.5393;-5.0039;-0.1334;-2.5221;0.1879
0000972951;5.9113;-16.5152;-6.2991;-0.9984;-2.3133;-0.0530
0000972959;14.2718;-23.8295;-4.9368;-1.7832;-1.9001;0.3929
0000973025;6.4236;-15.7898;-1.3455;-1.5235;1.1587;-0.4449
0000973033;5.3630;-16.3620;-0.7638;-1.5700;1.1739;-0.4727
0000973045;3.6512;-17.1952;-0.3041;-1.4489;1.0809;-0.4383
0000973053;2.7174;-17.7075;0.1508;-1.2793;0.9537;-0.3818
0000973064;1.3743;-17.8823;0.5028;-0.9527;0.7135;-0.3143
0000973072;0.3304;-18.0188;0.7374;-0.6516;0.4871;-0.2526
0000973084;-0.9457;-17.2550;0.7374;-0.2353;0.1023;-0.1162
0000973092;-1.0989;-16.4697;0.4549;-0.0557;-0.1376;0.0004
0000973104;-0.1939;-14.9901;-0.0120;-0.0007;-0.4844;0.1091
0000973112;0.7494;-14.5567;-0.2418;-0.0578;-0.6638;0.1539
0000973120;2.1165;-14.3437;-0.4788;-0.1688;-0.7993;0.1575
0000973131;3.6966;-14.6789;-0.4046;-0.3300;-0.8978;0.1300
0000973139;4.9153;-15.0930;-0.1891;-0.3978;-0.9300;0.0979
0000973151;6.6966;-16.1489;0.4070;-0.4223;-0.8624;0.0512
0000973159;7.5896;-16.8815;0.5171;-0.4068;-0.7666;0.0294
0000973170;8.8585;-17.7985;0.7135;-0.3656;-0.5512;0.0333
0000973178;9.3948;-17.9637;0.7039;-0.3194;-0.3496;0.0353
0000973190;8.9495;-17.6333;0.4286;-0.2356;-0.0420;-0.0103
0000973198;8.1714;-17.0970;0.3759;-0.2182;0.1544;-0.0755
0000973265;3.9337;-17.9852;1.5251;-0.1368;0.4594;-0.2030
0000973273;3.5075;-17.8703;1.5730;-0.0449;0.4101;-0.1685
0000973281;3.3926;-17.5232;1.3982;0.0309;0.3608;-0.1344
0000973293;3.6152;-16.7881;1.3384;0.1095;0.2914;-0.0881
0000973301;4.0007;-16.2901;1.1325;0.1316;0.2525;-0.0610
0000973313;4.2329;-15.9502;0.9290;0.1242;0.2088;-0.0536
0000973321;4.3622;-15.9167;0.8499;0.1199;0.1705;-0.0576
0000973333;5.0063;-15.7179;0.7901;0.1067;0.1339;-0.0663
0000973341;5.1619;-15.7778;0.7685;0.1023;0.1176;-0.0727
0000973352;5.4324;-15.8975;0.6776;0.1112;0.0887;-0.0870
0000973360;5.5689;-15.9238;0.6800;0.1115;0.0841;-0.0911
0000973372;5.5091;-15.9334;0.4429;0.1172;0.0581;-0.1092
0000973380;5.3678;-15.8448;0.2873;0.1058;0.0444;-0.1156
0000973388;5.3678;-15.5958;0.1484;0.0922;0.0286;-0.1252
0000973399;5.2936;-15.5647;-0.0814;0.0477;-0.0001;-0.1408
0000973407;5.3486;-15.6629;-0.1676;0.0060;-0.0224;-0.1508
0000973419;5.3079;-15.9957;-0.1077;-0.0317;-0.0465;-0.1460
0000973427;5.5210;-16.1249;0.0144;-0.0397;-0.0629;-0.1370
0000973439;5.4468;-16.3309;0.1939;-0.0405;-0.0873;-0.1108
0000973447;5.5402;-16.4769;0.2011;-0.0372;-0.0935;-0.0817
0000973459;5.4947;-16.4458;-0.0575;-0.0314;-0.1186;-0.0517
0000973467;5.4755;-16.2447;-0.0742;-0.0518;-0.1364;-0.0446
0000973534;6.2560;-17.1209;0.0072;-0.1291;-0.1150;-0.0793
0000973542;6.1148;-17.1808;0.0862;-0.0266;-0.0990;-0.0685
0000973550;6.1076;-16.9174;0.2753;0.0538;-0.0713;-0.0526
0000973562;6.0813;-16.2447;0.1939;0.1054;-0.0350;-0.0364
0000973570;5.8035;-15.8855;0.1580;0.0891;-0.0208;-0.0382
0000973582;5.6599;-15.6150;-0.0120;0.0079;0.0088;-0.0265
0000973590;5.7078;-15.4546;-0.0670;-0.0394;0.0240;-0.0165
0000973602;5.7245;-15.4977;-0.1006;-0.1223;0.0384;-0.0040
0000973610;5.6455;-15.8424;-0.1628;-0.1561;0.0505;0.0051
0000973622;5.4803;-16.0483;-0.0239;-0.1815;0.0594;0.0221
0000973630;5.4540;-16.2255;0.2179;-0.1845;0.0589;0.0258
0000973642;5.3606;-16.2830;0.1365;-0.1728;0.0544;0.0426
0000973650;4.9656;-16.4170;0.1820;-0.1540;0.0484;0.0444
0000973658;5.2098;-16.4314;0.1341;-0.1384;0.0409;0.0568
0000973670;5.2648;-16.4051;0.0455;-0.1347;0.0304;0.0640
0000973678;5.2146;-16.4673;0.0838;-0.1274;0.0221;0.0690
0000973690;5.0709;-16.7163;-0.0718;-0.1192;0.0080;0.0759
0000973698;5.1691;-16.6948;0.0335;-0.1075;0.0008;0.0759
0000973710;5.1475;-16.5990;0.4357;-0.0693;-0.0009;0.0753
0000973718;4.9608;-16.6948;0.9361;-0.0333;-0.0132;0.0629
0000973730;5.0709;-16.1178;0.7590;-0.0007;-0.0742;0.0540
0000973738;5.1308;-16.0052;-0.0215;-0.0212;-0.1290;0.0474
0000973805;5.5809;-16.5032;0.0048;-0.0851;0.0060;-0.0296
0000973813;5.8538;-16.3907;-0.2969;-0.0412;0.0470;-0.0197
0000973821;5.9759;-16.4218;-0.6608;0.0001;0.0790;-0.0124
0000973833;6.3973;-16.1824;-0.7015;0.0245;0.1288;-0.0257
0000973841;6.3183;-16.0172;-0.8643;0.0250;0.1440;-0.0368
0000973853;5.7317;-16.3763;-0.7757;-0.0272;0.1675;-0.0266
0000973861;5.4564;-16.4482;-0.4166;-0.0602;0.1655;-0.0136
0000973873;5.0326;-16.6780;0.3519;-0.0397;0.1418;0.0189
0000973881;4.8746;-16.5751;0.2490;-0.0203;0.1164;0.0466
0000973893;4.8267;-16.3021;-0.4405;-0.0199;0.0490;0.0640
0000973901;4.8985;-16.1058;-0.5195;-0.0532;0.0184;0.0813
0000973909;4.8674;-15.9119;-0.6488;-0.0887;-0.0004;0.0885
0000973921;4.9057;-15.8592;-0.5746;-0.1451;-0.0305;0.0905
0000973929;5.1164;-15.7443;-0.6249;-0.1699;-0.0488;0.0879
0000973941;5.3630;-15.6317;-0.7254;-0.1947;-0.0626;0.0737
0000973949;5.3774;-15.8089;-0.7973;-0.1933;-0.0616;0.0621
0000973961;5.6790;-15.8616;-0.9002;-0.1743;-0.0453;0.0350
0000973969;5.6407;-15.8616;-0.9361;-0.1649;-0.0414;0.0225
0000973980;5.8083;-16.1824;-0.9074;-0.1559;-0.0160;0.0266
0000973988;5.9185;-16.5128;-0.8045;-0.1504;0.0100;0.0345
0000974000;5.7700;-17.0563;-0.3519;-0.1215;0.0341;0.0564
0000974008;5.9185;-17.1090;-0.0718;-0.0891;0.0384;0.0719
0000974076;4.8914;-15.2798;-0.5411;-0.0650;-0.0633;-0.0020
0000974084;4.8578;-15.4905;-0.5746;-0.1014;-0.0593;0.0008
0000974092;5.0781;-15.7491;-0.5986;-0.1271;-0.0526;0.0116
0000974105;5.4803;-15.9837;-0.4046;-0.1148;-0.0293;0.0205
0000974114;5.4324;-16.2854;-0.6081;-0.0887;0.0040;0.0392
0000974126;5.4731;-16.6373;-0.4118;-0.0517;0.0278;0.0440
0000974135;5.3534;-16.8456;-0.2466;-0.0313;0.0429;0.0528
0000974148;5.2194;-16.9749;-0.1125;0.0027;0.0524;0.0608
0000974157;4.9752;-17.2670;0.0479;0.0402;0.0517;0.0486
0000974170;5.3032;-16.5822;0.0168;0.1013;0.0426;0.0413
0000974179;4.9344;-16.3931;0.0024;0.1224;0.0286;0.0325
0000974192;4.7740;-15.9597;-0.2155;0.0893;-0.0016;0.0293
0000974201;4.8315;-15.5719;-0.3208;0.0398;-0.0173;0.0211
0000974210;4.9632;-15.3492;-0.4908;-0.0242;-0.0229;0.0132
0000974223;4.8914;-15.3875;-0.4788;-0.0958;-0.0400;0.0079
0000974232;4.8363;-15.6844;-0.5171;-0.1232;-0.0590;0.0044
0000974245;4.8842;-16.1130;-0.4860;-0.1330;-0.0670;0.0145
0000974254;5.2481;-16.3596;-0.4669;-0.1034;-0.0655;0.0151
0000974266;5.2218;-16.5008;-0.4812;-0.0470;-0.0454;0.0140
0000974275;5.3175;-16.5056;-0.5866;-0.0149;-0.0332;0.0221
0000974288;5.0278;-16.8288;-0.4597;-0.0107;-0.0125;0.0221
0000974297;5.1332;-16.6349;-0.3256;-0.0061;-0.0220;0.0117
0000974365;4.8530;-15.6796;-0.5267;-0.0806;-0.0979;-0.0330
0000974374;4.9895;-15.8185;-0.4717;-0.1047;-0.1077;-0.0333
0000974387;5.1212;-16.1776;-0.4573;-0.1138;-0.0953;-0.0270
0000974396;5.4564;-16.2782;-0.3998;-0.1074;-0.0766;-0.0208
0000974405;5.3965;-16.4913;-0.4812;-0.0725;-0.0630;-0.0191
0000974418;5.5162;-16.5200;-0.3472;-0.0258;-0.0338;-0.0151
0000974427;5.4181;-16.5463;-0.4381;-0.0003;-0.0131;-0.0076
0000974440;5.2912;-16.5727;-0.4046;0.0195;-0.0065;-0.0073
0000974449;5.3750;-16.3021;-0.3950;0.0313;-0.0116;-0.0120
0000974462;5.0422;-16.2925;-0.4334;0.0313;-0.0203;-0.0167
0000974471;5.0661;-16.1968;-0.4094;0.0254;-0.0333;-0.0149
0000974484;5.2122;-16.0148;-0.3280;0.0111;-0.0378;-0.0179
0000974493;5.2002;-15.8855;-0.2011;-0.0060;-0.0364;-0.0177
0000974509;5.0446;-15.9358;-0.4334;-0.0600;-0.0674;-0.0217
0000974518;5.0135;-15.9741;-0.4334;-0.0683;-0.0853;-0.0300
0000974531;5.1332;-15.9645;-0.4693;-0.0762;-0.0950;-0.0300
0000974540;4.9512;-16.3644;-0.4022;-0.0763;-0.1127;-0.0362
0000974549;4.9488;-16.2782;-0.4334;-0.0653;-0.1264;-0.0425
0000974561;5.0326;-16.3739;-0.4429;-0.0453;-0.1240;-0.0405
0000974570;5.1404;-16.2973;-0.5602;-0.0270;-0.1303;-0.0361
0000974639;5.4492;-16.4817;-0.4788;0.1780;-0.0697;-0.0009
0000974648;5.2050;-16.4649;-0.4286;0.2093;-0.0674;-0.0129
0000974660;5.2720;-16.2064;-0.3759;0.2317;-0.0464;-0.0011
0000974669;5.1404;-16.2494;-0.2969;0.2370;-0.0497;0.0065
0000974682;4.8171;-16.1441;-0.2586;0.2380;-0.0596;0.0064
0000974691;5.0542;-16.0364;-0.1460;0.2218;-0.0629;0.0096
0000974703;5.1499;-15.8113;-0.3136;0.1828;-0.0827;-0.0003
0000974712;4.9847;-15.8017;-0.1772;0.1426;-0.0969;-0.0180
0000974725;4.8459;-15.7251;-0.1269;0.0693;-0.1023;-0.0175
0000974734;5.1140;-15.6437;-0.1963;0.0348;-0.1254;-0.0253
0000974743;5.2505;-15.7347;-0.1101;-0.0019;-0.1286;-0.0088
0000974755;5.2194;-15.8736;-0.1939;-0.0325;-0.1404;0.0060
0000974764;5.4133;-15.9909;-0.1508;-0.0369;-0.1374;0.0173
0000974777;5.2744;-16.3883;0.0024;-0.0284;-0.1322;0.0220
0000974786;5.5234;-16.4913;-0.0168;-0.0151;-0.1200;0.0221
0000974798;5.3870;-16.4242;-0.1077;0.0047;-0.1022;0.0072
0000974807;5.2050;-16.6038;0.0335;0.0211;-0.0899;-0.0083
0000974820;5.4348;-16.2997;-0.0431;0.0204;-0.0667;-0.0233
0000974829;5.3199;-16.3261;-0.0958;0.0252;-0.0677;-0.0345
0000974841;5.3008;-16.2590;-0.0120;0.0137;-0.0550;-0.0414
0000974850;5.3534;-16.1273;-0.1006;0.0061;-0.0533;-0.0362
0000974919;5.1356;-16.1704;-0.1484;-0.0164;-0.0410;-0.0179
0000974928;5.1140;-16.2494;-0.1149;-0.0185;-0.0492;-0.0183
0000974937;5.1068;-16.2327;-0.0982;-0.0132;-0.0550;-0.0254
0000974949;5.2026;-16.3716;-0.0239;-0.0149;-0.0590;-0.0133
0000974958;5.2577;-16.2399;-0.1077;-0.0053;-0.0675;-0.0115
0000974971;5.2361;-16.1489;-0.1628;-0.0037;-0.0733;-0.0061
0000974980;5.0781;-16.3165;-0.2203;-0.0183;-0.0616;0.0127
0000974992;5.2218;-16.1202;-0.2634;-0.0252;-0.0592;0.0048
0000975001;5.3319;-16.0028;-0.1724;-0.0341;-0.0504;0.0063
0000975014;5.2888;-16.0842;-0.2298;-0.0486;-0.0414;0.0024
0000975023;5.1739;-16.1297;-0.2227;-0.0504;-0.0390;-0.0064
0000975035;5.2433;-16.3189;-0.1341;-0.0533;-0.0350;-0.0127
0000975044;5.1044;-16.4266;-0.1245;-0.0426;-0.0449;-0.0222
0000975057;5.0278;-16.4673;-0.1508;-0.0264;-0.0552;-0.0249
0000975066;5.1882;-16.3380;-0.1796;-0.0104;-0.0640;-0.0234
0000975078;5.2768;-16.1896;-0.0383;0.0051;-0.0649;-0.0218
0000975087;5.1356;-16.1249;-0.0886;0.0039;-0.0641;-0.0103
0000975096;5.1523;-16.0555;-0.1915;-0.0120;-0.0604;-0.0069
0000975109;5.3391;-15.9550;-0.3017;-0.0352;-0.0582;0.0029
0000975118;5.2385;-16.1968;-0.2777;-0.0337;-0.0569;0.0003
0000975130;5.2457;-16.2854;-0.2777;-0.0361;-0.0477;0.0052
0000975139;5.2888;-16.2782;-0.2227;-0.0393;-0.0412;0.0037
0000975207;5.1547;-16.0579;-0.0862;-0.0252;-0.0620;-0.0068
0000975216;5.0039;-16.1154;-0.1844;-0.0250;-0.0641;-0.0117
0000975228;5.0182;-16.0914;-0.1652;-0.0281;-0.0705;-0.0045
0000975237;5.2984;-16.1154;-0.2274;-0.0401;-0.0577;0.0045
0000975250;5.1643;-16.1824;-0.1867;-0.0452;-0.0590;0.0057
0000975259;5.1116;-16.3428;-0.1963;-0.0501;-0.0537;0.0029
0000975271;5.1787;-16.1944;-0.2011;-0.0481;-0.0493;-0.0004
0000975280;5.0613;-16.1585;-0.1293;-0.0436;-0.0541;-0.0036
0000975293;5.0829;-16.3261;-0.1053;-0.0414;-0.0601;-0.0104
0000975302;5.0805;-16.2064;-0.1844;-0.0433;-0.0604;-0.0116
0000975311;5.0949;-16.2040;-0.1724;-0.0288;-0.0622;-0.0161
0000975323;5.1188;-16.4266;-0.0982;-0.0240;-0.0682;-0.0109
0000975332;5.2122;-16.2423;-0.1963;-0.0216;-0.0691;-0.0163
0000975345;5.1475;-16.1321;-0.1556;-0.0176;-0.0705;-0.0116
0000975354;4.9752;-16.2494;-0.1437;-0.0277;-0.0673;-0.0040
0000975366;5.2194;-16.0196;-0.1987;-0.0277;-0.0738;-0.0025
0000975375;4.9943;-16.1345;-0.1532;-0.0389;-0.0727;0.0052
0000975388;5.2457;-15.9262;-0.1173;-0.0510;-0.0785;0.0069
0000975397;5.1619;-15.8376;-0.1293;-0.0564;-0.0795;0.0088
0000975409;5.2409;-15.7131;-0.0934;-0.0746;-0.0923;0.0107
0000975418;5.0805;-15.7131;-0.1460;-0.0959;-0.0915;0.0216
0000975486;4.5610;-17.6381;-0.0551;-0.0429;-0.1547;0.0132
0000975495;4.5514;-17.3556;-0.1101;0.0260;-0.1585;0.0016
0000975504;4.5825;-16.8695;-0.0599;0.0802;-0.1740;-0.0185
0000975516;4.5753;-16.4530;-0.3280;0.1055;-0.1973;-0.0304
0000975525;4.8100;-16.0507;-0.6153;0.0817;-0.2118;-0.0306
0000975538;4.6783;-15.6533;-0.6249;0.0314;-0.2357;-0.0357
0000975547;4.8315;-15.5240;-0.6393;-0.0091;-0.2525;-0.0392
0000975559;4.9704;-15.5863;-0.5483;-0.0572;-0.2498;-0.0449
0000975568;5.2337;-15.8927;-0.2346;-0.0746;-0.2378;-0.0482
0000975581;5.1212;-16.3811;-0.1963;-0.0605;-0.2126;-0.0552
0000975590;5.4109;-16.3476;-0.1556;-0.0364;-0.1836;-0.0621
0000975602;5.4468;-16.5080;-0.0527;-0.0012;-0.1464;-0.0613
0000975611;5.5210;-16.3524;-0.1604;0.0242;-0.1330;-0.0621
0000975624;5.5881;-16.1465;-0.2897;0.0506;-0.1099;-0.0452
0000975633;5.5785;-16.0459;-0.4621;0.0601;-0.0905;-0.0297
0000975645;5.6192;-15.9837;-0.4357;0.0417;-0.0625;-0.0075
0000975654;5.6910;-15.9669;-0.5339;0.0286;-0.0458;0.0101
0000975663;5.5952;-16.1297;-0.5339;0.0101;-0.0191;0.0261
0000975676;5.6288;-16.3356;-0.4357;0.0093;0.0073;0.0204
0000975685;5.6982;-16.3309;-0.4836;0.0049;0.0332;0.0264
0000975697;5.5689;-16.6110;-0.4022;0.0049;0.0573;0.0099
0000975706;5.6479;-16.4625;-0.4381;-0.0077;0.0787;-0.0007
0000975775;5.2002;-16.1465;-0.1125;-0.0242;0.1174;-0.0556
0000975784;4.9823;-16.2447;-0.0527;-0.0011;0.1077;-0.0608
0000975796;4.5945;-16.2064;-0.0479;0.0109;0.0841;-0.0482
0000975805;4.4963;-16.0890;-0.0551;0.0185;0.0588;-0.0408
0000975818;4.3766;-16.1680;-0.0407;0.0284;0.0077;-0.0316
0000975827;4.3694;-16.0986;0.0215;0.0326;-0.0384;-0.0266
0000975836;4.1707;-16.1848;-0.0311;0.0278;-0.0713;-0.0165
0000975848;4.5945;-15.9621;-0.1293;0.0093;-0.1158;-0.0063
0000975857;4.7238;-16.1872;-0.0599;0.0029;-0.1376;-0.0079
0000975870;4.8052;-16.1728;-0.1987;-0.0064;-0.1427;0.0052
0000975879;5.3008;-16.3572;-0.2107;-0.0095;-0.1298;0.0028
0000975891;5.2960;-16.2231;-0.2418;0.0032;-0.1095;0.0099
0000975900;5.6886;-16.1992;-0.3112;0.0093;-0.0802;0.0229
0000975913;5.4588;-16.2135;-0.2777;0.0167;-0.0421;0.0266
0000975922;5.7940;-15.8783;-0.2705;0.0028;-0.0188;0.0151
0000975933;5.5809;-15.8472;-0.2131;-0.0187;0.0161;0.0040
0000975942;5.4827;-15.9550;-0.2059;-0.0412;0.0388;-0.0035
0000975951;5.1906;-16.0938;-0.2490;-0.0612;0.0488;-0.0121
0000975965;5.1380;-16.3117;-0.1173;-0.0629;0.0470;-0.0298
0000975974;5.1212;-16.3859;-0.1101;-0.0513;0.0452;-0.0410
0000976043;5.0685;-16.3668;-0.2705;-0.0105;-0.0457;-0.0246
0000976052;5.0278;-16.3261;-0.1748;-0.0064;-0.0452;-0.0201
0000976064;5.1044;-16.2997;-0.3041;-0.0108;-0.0501;-0.0211
0000976073;5.0566;-16.3117;-0.2370;-0.0103;-0.0530;-0.0242
0000976086;5.1643;-16.2135;-0.2634;-0.0268;-0.0497;-0.0268
0000976095;5.2481;-16.2183;-0.2418;-0.0337;-0.0432;-0.0205
0000976107;5.1643;-16.2901;-0.2562;-0.0191;-0.0394;-0.0266
0000976116;5.1906;-16.3117;-0.2634;-0.0218;-0.0312;-0.0157
0000976129;4.9680;-16.4218;-0.2370;-0.0140;-0.0332;-0.0160
0000976138;5.1739;-16.2207;-0.1101;-0.0093;-0.0368;-0.0156
0000976150;4.9895;-16.2327;-0.1413;-0.0095;-0.0382;-0.0164
0000976159;5.2002;-15.9574;-0.1628;-0.0133;-0.0477;-0.0173
0000976168;5.1427;-16.0699;-0.1724;-0.0136;-0.0496;-0.0189
0000976181;5.1906;-16.1585;-0.2394;-0.0120;-0.0556;-0.0172
0000976190;5.2241;-16.2351;-0.1963;-0.0151;-0.0465;-0.0089
0000976202;5.3079;-16.3045;-0.1939;-0.0039;-0.0513;-0.0205
0000976211;5.2385;-16.3692;-0.1580;-0.0037;-0.0425;-0.0120
0000976224;5.2696;-16.1465;-0.1293;0.0057;-0.0438;-0.0147
0000976233;5.2074;-16.1848;-0.1724;0.0081;-0.0409;-0.0095
0000976245;5.0063;-16.1034;-0.2322;-0.0055;-0.0402;-0.0124
0000976254;5.2122;-15.9717;-0.2873;-0.0121;-0.0358;-0.0111
0000976323;5.3917;-16.1848;-0.1963;-0.0364;-0.0310;-0.0199
0000976332;5.3558;-16.2183;-0.1101;-0.0357;-0.0204;-0.0148
0000976344;5.2912;-16.2590;-0.0958;-0.0266;-0.0091;-0.0137
0000976353;5.2146;-16.1633;-0.1532;-0.0232;-0.0109;-0.0232
0000976366;5.2146;-16.3476;-0.2035;-0.0201;0.0041;-0.0313
0000976375;5.2625;-16.0962;-0.2131;-0.0136;0.0081;-0.0309
0000976384;5.3079;-16.1226;-0.2370;-0.0177;0.0059;-0.0300
0000976396;5.1619;-16.2806;-0.3256;-0.0341;0.0013;-0.0352
0000976405;5.0230;-16.3524;-0.3041;-0.0354;-0.0105;-0.0428
0000976418;5.1068;-16.3261;-0.2203;-0.0377;-0.0183;-0.0444
0000976427;5.0182;-16.4434;-0.2705;-0.0360;-0.0201;-0.0405
0000976439;5.2361;-16.4577;-0.2227;-0.0229;-0.0183;-0.0344
0000976448;5.0973;-16.3524;-0.2801;-0.0083;-0.0218;-0.0360
0000976461;5.0996;-16.3500;-0.2131;-0.0023;-0.0193;-0.0320
0000976470;5.2241;-16.1369;-0.2227;0.0037;-0.0253;-0.0366
0000976482;5.2553;-16.0962;-0.2035;-0.0020;-0.0256;-0.0382
0000976491;5.2792;-16.0627;-0.2227;-0.0064;-0.0245;-0.0358
0000976504;5.1092;-16.2638;-0.2993;-0.0059;-0.0268;-0.0357
0000976513;5.0542;-16.2207;-0.3807;0.0019;-0.0393;-0.0361
0000976525;5.0757;-16.0890;-0.4501;0.0009;-0.0525;-0.0353
0000976534;5.1547;-16.0507;-0.4453;-0.0191;-0.0552;-0.0238
0000976543;5.0733;-16.1872;-0.2921;-0.0360;-0.0530;-0.0236
0000976612;5.3678;-16.1704;-0.2753;0.0416;-0.0325;0.0092
0000976621;5.3726;-16.0316;-0.4908;0.0151;-0.0242;0.0087
0000976633;5.3582;-16.0771;-0.2897;-0.0109;-0.0241;0.0013
0000976642;5.3750;-16.0244;-0.2227;-0.0344;-0.0211;0.0012
0000976655;5.3965;-16.1920;-0.2107;-0.0478;-0.0092;-0.0073
0000976664;5.4372;-16.2686;-0.0527;-0.0444;-0.0077;-0.0222
0000976676;5.2313;-16.2758;-0.0862;-0.0292;-0.0009;-0.0305
0000976685;5.2888;-16.2830;-0.1748;-0.0261;0.0079;-0.0322
0000976698;5.2098;-16.3404;-0.1628;-0.0141;0.0169;-0.0297
0000976707;5.0039;-16.4314;-0.1245;0.0008;0.0155;-0.0324
0000976719;5.0925;-16.3428;-0.3041;0.0139;0.0195;-0.0265
0000976728;5.2026;-16.3811;-0.2346;0.0216;0.0133;-0.0296
0000976737;5.1068;-16.3859;-0.2777;0.0253;0.0191;-0.0221
0000976750;5.1715;-16.2806;-0.3448;0.0257;0.0226;-0.0228
0000976759;5.0206;-16.2566;-0.4046;0.0212;0.0128;-0.0345
0000976771;4.9584;-16.2949;-0.3424;0.0187;0.0040;-0.0449
0000976780;5.1020;-16.0388;-0.1867;0.0076;0.0043;-0.0452
0000976793;5.0254;-16.0364;-0.2322;-0.0068;-0.0187;-0.0746
0000976802;4.9847;-16.2159;-0.2466;-0.0254;-0.0237;-0.0851
0000976814;5.0422;-15.9717;-0.0790;-0.0437;-0.0364;-0.0939
0000976823;4.7238;-16.1178;-0.2203;-0.0540;-0.0544;-0.1075
0000976892;5.1308;-16.2159;-0.2203;-0.0035;-0.1645;-0.0998
0000976901;4.9105;-16.1992;-0.1915;0.0065;-0.1763;-0.0991
0000976910;5.0398;-16.0866;-0.1796;0.0039;-0.1739;-0.0986
0000976922;5.0446;-15.9190;-0.1939;-0.0244;-0.1784;-0.1021
0000976931;5.1140;-15.8712;-0.2131;-0.0472;-0.1877;-0.1083
0000976944;5.2840;-16.0100;-0.3448;-0.0782;-0.1895;-0.1053
0000976953;5.4899;-15.9262;-0.2753;-0.0974;-0.1848;-0.0971
0000976965;5.4875;-16.3404;-0.2753;-0.1022;-0.1648;-0.0842
0000976974;5.6838;-16.2231;-0.1915;-0.1021;-0.1428;-0.0645
0000976987;5.8778;-16.2159;-0.1053;-0.0834;-0.1160;-0.0621
0000976996;5.5689;-16.4625;-0.1149;-0.0714;-0.1063;-0.0594
0000977008;5.7557;-16.3237;-0.0048;-0.0586;-0.0933;-0.0715
0000977017;5.7868;-16.3189;-0.0862;-0.0510;-0.0886;-0.0823
0000977030;5.7365;-16.1369;-0.1772;-0.0524;-0.0703;-0.0986
0000977039;5.6336;-16.1513;-0.1939;-0.0640;-0.0564;-0.1031
0000977051;5.9089;-15.9837;-0.2322;-0.0699;-0.0405;-0.1176
0000977060;5.6790;-16.1489;-0.2298;-0.0741;-0.0215;-0.1148
0000977073;5.6336;-16.1226;-0.2394;-0.0655;-0.0163;-0.1182
0000977082;5.5809;-16.1321;-0.2298;-0.0714;-0.0052;-0.1136
0000977091;5.7317;-16.1968;-0.2490;-0.0827;-0.0012;-0.1122
0000977103;5.6264;-16.2542;-0.2370;-0.0977;-0.0065;-0.1050
0000977112;5.7006;-16.2566;-0.2801;-0.1099;0.0031;-0.1003
0000977181;5.4181;-16.1800;-0.3352;-0.1041;0.0494;-0.0358
0000977190;5.3415;-16.1130;-0.4597;-0.1183;0.0429;-0.0406
0000977202;5.4660;-15.9382;-0.3472;-0.1296;0.0282;-0.0500
0000977211;5.3726;-16.1585;-0.4166;-0.1254;0.0016;-0.0572
0000977224;5.1451;-16.3165;-0.3280;-0.1108;-0.0240;-0.0637
0000977233;5.3439;-16.3979;-0.4022;-0.1010;-0.0486;-0.0629
0000977245;5.3798;-16.3907;-0.4262;-0.0810;-0.0593;-0.0558
0000977254;5.3798;-16.3548;-0.4357;-0.0576;-0.0771;-0.0440
0000977267;5.6192;-16.1609;-0.5674;-0.0529;-0.0807;-0.0265
0000977276;5.5115;-16.2973;-0.6273;-0.0524;-0.0802;-0.0103
0000977288;5.3199;-16.4577;-0.6273;-0.0428;-0.0838;0.0021
0000977297;5.5306;-16.3620;-0.8164;-0.0493;-0.0709;0.0108
0000977306;5.5569;-16.2231;-0.6536;-0.0378;-0.0689;0.0112
0000977319;5.3870;-16.4146;-0.6153;-0.0532;-0.0613;0.0065
0000977326;5.4468;-16.2638;-0.7614;-0.0546;-0.0648;0.0076
0000977337;5.4277;-16.2949;-0.7111;-0.0597;-0.0733;-0.0007
0000977345;5.6048;-16.1082;-0.6680;-0.0717;-0.0827;-0.0051
0000977358;5.5929;-16.1728;-0.6273;-0.0806;-0.0905;-0.0131
0000977366;5.3726;-16.2758;-0.6943;-0.0807;-0.0957;-0.0117
0000977378;5.3846;-16.2494;-0.6560;-0.0943;-0.1038;-0.0111
0000977386;5.2936;-16.2566;-0.5459;-0.0977;-0.1160;-0.0141
0000977454;5.6288;-16.2471;-0.4836;-0.0845;-0.1392;-0.0265
0000977462;5.7221;-16.0819;-0.5411;-0.0823;-0.1288;-0.0180
0000977474;5.6336;-16.0986;-0.5507;-0.0957;-0.1178;-0.0159
0000977482;5.6551;-16.1872;-0.5866;-0.1031;-0.1061;-0.0083
0000977493;5.7509;-16.2614;-0.5076;-0.1142;-0.0886;0.0009
0000977501;5.5689;-16.2806;-0.6249;-0.1087;-0.0779;-0.0005
0000977509;5.5881;-16.4099;-0.5195;-0.1085;-0.0622;0.0097
0000977521;5.5306;-16.6038;-0.4477;-0.0909;-0.0580;0.0069
0000977529;5.5809;-16.4410;-0.4812;-0.0762;-0.0592;0.0032
0000977540;5.4540;-16.3045;-0.4669;-0.0565;-0.0626;0.0008
0000977548;5.5545;-16.2782;-0.4669;-0.0508;-0.0625;0.0092
