time;acc_x;acc_y;acc_z;gyro_x;gyro_y;gyro_z
0000057246;6.8067;1.4317;5.1547;-0.2206;-0.1767;-0.0179
0000057255;7.1156;1.5850;5.1882;-0.1883;-0.1928;0.0152
0000057262;7.0437;1.5921;5.0374;-0.1641;-0.1984;0.0453
0000057270;7.2065;1.6640;4.8530;-0.1548;-0.1955;0.0742
0000057278;7.4268;1.8196;4.6878;-0.1459;-0.1853;0.0813
0000057286;7.4316;1.8124;4.7357;-0.1319;-0.1680;0.0778
0000057294;7.4699;1.8004;4.8435;-0.1107;-0.1518;0.0753
0000057302;7.3717;1.7861;4.8842;-0.0967;-0.1275;0.0781
0000057310;7.3765;1.8699;5.1188;-0.0859;-0.1167;0.0818
0000057318;7.0078;1.8100;4.9847;-0.0755;-0.1042;0.0946
0000057326;7.0701;1.9561;4.8698;-0.0754;-0.0874;0.1108
0000057334;7.0653;1.9321;4.7453;-0.0827;-0.0715;0.1206
0000057342;7.1539;1.9632;4.6376;-0.0881;-0.0557;0.1224
0000057350;7.1922;1.7430;4.6567;-0.1098;-0.0297;0.1071
0000057358;7.3047;1.8627;4.5729;-0.1284;0.0036;0.0885
0000057366;7.2425;1.5610;4.6567;-0.1536;0.0389;0.0626
0000057374;7.2042;1.3743;4.5011;-0.1603;0.0646;0.0336
0000057382;7.2616;1.2785;4.5825;-0.1340;0.0838;0.0161
0000057390;6.9935;0.8452;4.5610;-0.1038;0.1134;0.0124
0000057398;6.9671;0.8787;4.4029;-0.0576;0.1359;0.0025
0000057406;7.0174;0.8428;4.5418;-0.0052;0.1511;-0.0007
0000057414;6.8307;0.7254;4.5921;0.0445;0.1709;0.0047
0000057422;6.6583;0.9242;4.7118;0.0890;0.1985;0.0087
0000057430;6.4524;0.9816;4.8914;0.1328;0.2088;0.0067
0000057438;6.0525;1.2115;5.1140;0.1601;0.2117;0.0148
0000057446;5.9999;1.5610;5.3391;0.1840;0.2076;0.0218
0000057454;5.7652;1.9848;5.1092;0.1844;0.1962;0.0452
0000057462;5.5306;1.9585;4.9584;0.1591;0.1913;0.0727
0000057470;5.5569;2.0782;4.8626;0.1336;0.1808;0.1094
0000057478;5.9137;2.0470;4.8698;0.1206;0.1557;0.1247
0000057486;6.0286;1.8148;4.8291;0.0893;0.1395;0.1226
0000057494;6.0908;1.6759;4.9871;0.0460;0.1374;0.1154
0000057502;6.2465;1.6328;5.1954;0.0197;0.1286;0.0846
0000057510;6.3494;1.3264;5.2816;-0.0020;0.1280;0.0506
0000057518;6.3039;1.1516;5.1930;-0.0140;0.1326;0.0225
0000057526;6.4500;1.1851;5.3056;-0.0344;0.1432;-0.0108
0000057534;6.3327;1.2163;5.3032;-0.0401;0.1470;-0.0429
0000057542;6.2369;1.0989;5.1882;-0.0556;0.1444;-0.0569
0000057550;6.1268;0.9864;5.2050;-0.0738;0.1446;-0.0532
0000057558;6.2537;1.2354;5.0877;-0.0819;0.1411;-0.0430
0000057566;6.2896;1.3695;4.9033;-0.0791;0.1404;-0.0389
0000057574;6.0645;1.4509;4.8842;-0.0903;0.1394;-0.0159
0000057582;5.9855;1.3479;4.8914;-0.1066;0.1324;0.0087
0000057590;5.8538;1.3910;4.8028;-0.1194;0.1210;0.0240
0000057598;6.0334;1.4605;4.7716;-0.1091;0.1077;0.0317
0000057606;6.0166;1.5443;4.9943;-0.1063;0.1108;0.0368
0000057614;6.0334;1.6400;5.0925;-0.1014;0.1236;0.0357
0000057622;6.1483;1.7262;5.1475;-0.0933;0.1274;0.0293
0000057630;6.1316;1.6352;5.1715;-0.0717;0.1180;0.0253
0000057638;6.0908;1.4796;5.0709;-0.0582;0.1210;0.0276
0000057646;6.0238;1.5682;4.9225;-0.0614;0.1154;0.0297
0000057654;6.0190;1.3575;4.8219;-0.0452;0.1031;0.0265
0000057662;5.8778;1.1971;4.8123;-0.0492;0.1047;0.0322
0000057670;6.0262;1.3024;4.7262;-0.0420;0.1026;0.0314
0000057678;5.7892;1.1995;4.9321;-0.0273;0.1079;0.0352
0000057686;5.9807;1.1851;4.9249;-0.0205;0.1239;0.0512
0000057694;6.1004;1.2091;5.0015;-0.0266;0.1315;0.0621
0000057702;6.1531;1.2163;5.1308;-0.0193;0.1372;0.0695
0000057710;6.2776;1.1995;4.9129;-0.0191;0.1434;0.0826
0000057718;6.1986;1.3072;5.0422;-0.0104;0.1494;0.0785
0000057726;6.0310;1.3479;5.0182;0.0017;0.1595;0.0813
0000057734;6.0262;1.5945;4.9680;-0.0017;0.1704;0.0779
0000057742;5.8179;1.7430;5.1619;-0.0097;0.1740;0.0707
0000057750;5.6336;2.0423;5.0685;-0.0330;0.1836;0.0809
0000057758;5.4779;2.1284;4.9249;-0.0628;0.1923;0.0874
0000057766;5.5330;2.2075;4.9105;-0.0893;0.1921;0.0989
0000057774;5.3558;1.9369;4.5466;-0.1179;0.1825;0.1223
0000057782;5.4253;1.8579;4.9680;-0.1307;0.1776;0.1491
0000057790;5.3750;1.8076;4.9344;-0.1096;0.1716;0.1580
0000057798;5.4827;1.6496;4.8914;-0.1073;0.1667;0.1665
0000057806;5.7557;1.5586;4.8674;-0.1214;0.1628;0.1645
0000057814;5.8155;1.3384;4.8937;-0.1188;0.1609;0.1601
0000057822;6.1363;1.3384;4.9632;-0.1029;0.1689;0.1549
0000057830;6.1076;1.2258;4.8578;-0.0741;0.1764;0.1458
0000057857;5.7748;1.6568;4.6711;-0.0630;0.1832;0.1336
0000057865;5.5043;1.6328;4.6926;-0.0610;0.1851;0.1348
0000057873;5.5043;1.8747;4.8123;-0.0799;0.1853;0.1412
0000057881;5.5378;1.8411;4.8291;-0.0686;0.1861;0.1460
0000057889;5.3893;1.7262;4.9560;-0.0731;0.1935;0.1459
0000057897;5.6000;1.6951;4.9871;-0.0833;0.1924;0.1382
0000057905;5.7126;1.5897;4.9512;-0.1003;0.2072;0.1436
0000057913;5.9472;1.5514;5.0374;-0.1057;0.2206;0.1518
0000057921;5.9711;1.2833;4.9632;-0.0910;0.2226;0.1553
0000057929;6.0478;1.2522;4.8890;-0.0775;0.2366;0.1660
0000057937;5.9400;0.9888;4.8387;-0.0685;0.2451;0.1777
0000057945;6.1651;1.1349;4.8626;-0.0620;0.2491;0.1821
0000057953;6.0214;1.2139;4.7764;-0.0445;0.2550;0.1797
0000057961;5.8945;1.4054;4.7884;-0.0394;0.2653;0.1785
0000057969;6.0094;1.5826;4.7357;-0.0406;0.2621;0.1757
0000057977;5.7461;1.4461;4.9081;-0.0548;0.2726;0.1871
0000057985;5.7437;1.4605;4.9464;-0.0630;0.2777;0.1888
0000057993;5.6455;1.5969;4.8363;-0.0638;0.2803;0.1937
0000058001;5.6838;1.4892;4.8123;-0.0561;0.2731;0.1872
0000058009;5.4827;1.3982;4.8076;-0.0582;0.2729;0.1920
0000058017;5.4803;1.2929;4.8052;-0.0514;0.2649;0.1924
0000058025;5.5330;1.3024;4.7932;-0.0369;0.2530;0.1927
0000058033;5.5809;1.3695;4.7525;-0.0160;0.2418;0.2013
0000058041;5.4971;1.2450;4.7764;-0.0063;0.2290;0.2098
0000058049;5.5737;1.4437;4.7525;0.0029;0.2102;0.2088
0000058057;5.6048;1.3431;4.8914;0.0108;0.1905;0.2010
0000058065;5.8778;1.7549;4.9177;0.0144;0.1777;0.1789
0000058073;5.6886;1.7214;4.9871;0.0163;0.1691;0.1553
0000058081;5.9544;1.9872;5.1260;0.0095;0.1625;0.1294
0000058089;5.7245;1.9609;5.1523;-0.0012;0.1624;0.1082
0000058097;5.7150;1.9800;5.0398;-0.0189;0.1519;0.0830
0000058105;5.7461;2.0231;4.9488;-0.0461;0.1500;0.0699
0000058113;5.6024;1.7957;4.8842;-0.0682;0.1475;0.0572
0000058121;5.3151;1.5275;4.7669;-0.0699;0.1287;0.0509
0000058129;5.4253;1.4724;4.6831;-0.0608;0.1029;0.0468
0000058137;5.1475;1.2163;4.7692;-0.0397;0.0777;0.0462
0000058145;5.2194;1.2953;4.7238;-0.0163;0.0492;0.0482
0000058153;5.2888;1.3815;4.7932;-0.0029;0.0260;0.0416
0000058161;5.4827;1.7119;4.8291;0.0129;0.0079;0.0433
0000058169;5.7604;1.8244;4.8890;0.0115;-0.0036;0.0322
0000058177;5.7724;1.7741;5.0350;0.0047;-0.0068;0.0248
0000058185;5.7174;1.6927;5.0566;-0.0067;-0.0061;0.0216
0000058193;5.9496;1.5395;5.1356;-0.0181;-0.0020;0.0205
0000058201;5.8012;1.5227;5.1499;-0.0269;0.0015;0.0181
0000058209;5.7700;1.1899;5.0781;-0.0213;-0.0004;0.0160
0000058217;6.0765;1.2019;5.0159;-0.0085;-0.0056;0.0077
0000058225;5.7748;1.0343;4.8243;0.0136;-0.0236;0.0013
0000058233;5.6934;1.0870;4.8530;0.0204;-0.0346;-0.0020
0000058241;5.6982;1.1684;4.8794;0.0289;-0.0458;-0.0076
0000058249;5.4731;1.1253;4.8842;0.0334;-0.0658;-0.0196
0000058257;5.6024;1.1803;4.8363;0.0211;-0.0741;-0.0232
0000058265;5.5713;0.9864;4.8483;0.0089;-0.0802;-0.0242
0000058273;5.5210;0.9625;4.9177;0.0060;-0.0970;-0.0428
0000058281;5.7341;1.0319;4.8866;0.0240;-0.1112;-0.0564
0000058289;5.6719;1.0343;4.9081;0.0442;-0.1216;-0.0667
0000058297;5.8778;1.2641;4.8387;0.0637;-0.1314;-0.0679
0000058305;5.9616;1.4629;4.8698;0.0689;-0.1452;-0.0754
0000058313;6.1076;1.7549;4.9632;0.0769;-0.1515;-0.0826
0000058321;5.9855;1.6975;4.9752;0.0590;-0.1460;-0.0821
0000058329;6.2034;1.8172;4.9440;0.0497;-0.1491;-0.0874
0000058337;6.1986;1.8172;4.9392;0.0396;-0.1419;-0.0901
0000058345;5.8490;1.4724;5.0302;0.0382;-0.1314;-0.0931
0000058353;5.9161;1.5323;5.0685;0.0405;-0.1310;-0.0950
0000058361;5.7820;1.4054;5.0111;0.0560;-0.1323;-0.1003
0000058369;5.8466;1.5538;4.9632;0.0614;-0.1336;-0.0942
0000058377;5.8945;1.5730;4.9680;0.0730;-0.1483;-0.0965
0000058385;5.8538;1.6759;4.8698;0.0747;-0.1516;-0.0850
0000058393;5.7892;1.5251;4.8291;0.0577;-0.1567;-0.0759
0000058401;5.9137;1.5419;4.8818;0.0421;-0.1633;-0.0622
0000058409;5.6240;1.3982;4.8770;0.0273;-0.1724;-0.0598
0000058417;5.9711;1.5850;4.9297;0.0140;-0.1873;-0.0540
0000058425;6.0693;1.5299;4.9057;0.0073;-0.1955;-0.0477
0000058433;6.0430;1.4796;4.9081;0.0103;-0.1944;-0.0482
0000058441;6.0501;1.4581;4.8914;0.0192;-0.2004;-0.0534
0000058527;6.3973;1.2833;5.1116;0.0144;-0.1843;-0.1079
0000058535;6.2584;0.9792;5.0949;0.0104;-0.1744;-0.1053
0000058543;6.1986;0.9002;5.1571;0.0297;-0.1704;-0.1098
0000058551;6.1483;0.8475;5.3056;0.0505;-0.1631;-0.1061
0000058559;6.0430;0.7422;5.2050;0.0605;-0.1573;-0.1007
0000058567;6.1124;1.0415;5.1547;0.0648;-0.1560;-0.0983
0000058575;6.1411;1.4269;5.2122;0.0528;-0.1516;-0.0911
0000058583;5.9855;1.5586;5.0829;0.0333;-0.1415;-0.0858
0000058591;6.0597;1.8866;5.0661;0.0250;-0.1435;-0.0945
0000058599;5.8826;1.8842;4.8890;0.0144;-0.1343;-0.0847
0000058607;6.0047;1.7526;4.9081;0.0117;-0.1218;-0.0786
0000058615;6.0645;1.6664;4.9344;0.0136;-0.1238;-0.0838
0000058623;6.0932;1.3671;4.9153;0.0091;-0.1123;-0.0735
0000058631;6.1268;1.3072;5.0709;0.0175;-0.1122;-0.0742
0000058639;6.1268;1.3240;5.1092;0.0353;-0.1154;-0.0765
0000058647;6.0789;1.2737;5.2816;0.0572;-0.1118;-0.0745
0000058655;6.0454;1.4485;5.1595;0.0640;-0.1027;-0.0691
0000058663;5.9640;1.5969;5.0494;0.0701;-0.0962;-0.0718
0000058671;6.1220;1.7478;4.9464;0.0534;-0.0845;-0.0671
0000058679;6.0430;1.7526;4.8076;0.0301;-0.0683;-0.0659
0000058687;6.3087;1.5467;4.7740;0.0163;-0.0604;-0.0685
0000058695;6.1411;1.3934;4.7094;0.0056;-0.0432;-0.0622
0000058703;6.1603;1.3264;4.6112;0.0093;-0.0401;-0.0562
0000058711;6.2058;1.1013;4.6974;0.0314;-0.0370;-0.0444
0000058719;6.0478;1.0989;4.7692;0.0468;-0.0201;-0.0188
0000058727;6.0573;1.1923;4.8315;0.0665;-0.0129;-0.0044
0000058735;6.0334;1.3910;4.7932;0.0773;-0.0119;0.0191
0000058743;5.8682;1.6688;4.8219;0.0662;-0.0080;0.0368
0000058751;5.8059;1.7142;4.7764;0.0401;-0.0137;0.0532
0000058759;5.9664;1.7119;4.6615;0.0131;-0.0157;0.0616
0000058767;5.9927;1.6712;4.6376;-0.0059;-0.0145;0.0630
0000058775;6.1387;1.6688;4.5777;-0.0192;-0.0152;0.0649
0000058783;6.3686;1.5993;4.6304;-0.0250;-0.0083;0.0738
0000058791;6.1794;1.3862;4.6543;-0.0156;-0.0040;0.0766
0000058799;5.9951;1.1037;4.6687;0.0055;-0.0043;0.0786
0000058807;5.9735;1.1325;4.5921;0.0278;-0.0077;0.0891
0000058815;6.0310;1.3384;4.4580;0.0417;-0.0029;0.1002
0000058823;5.7700;1.3743;4.4173;0.0514;-0.0121;0.1065
0000058831;5.6455;1.5275;4.3144;0.0649;-0.0242;0.1017
0000058839;5.4708;1.6855;4.2617;0.0822;-0.0466;0.0903
0000058847;5.3774;1.7214;4.2114;0.0983;-0.0670;0.0826
0000058855;5.3558;1.8771;4.2329;0.0994;-0.0854;0.0791
0000058863;5.3941;1.8986;4.3215;0.0954;-0.1061;0.0777
0000058871;5.4923;1.9609;4.4365;0.0954;-0.1266;0.0673
0000058879;5.3941;1.8866;4.6256;0.0990;-0.1419;0.0493
0000058887;5.8562;2.0327;4.7046;0.0975;-0.1335;0.0389
0000058895;5.8897;2.0375;4.8076;0.1107;-0.1200;0.0250
0000058903;6.3973;2.2649;4.9823;0.1159;-0.1131;0.0120
0000058911;6.4069;2.1093;4.8411;0.1238;-0.1005;0.0015
0000058919;6.7732;2.5331;4.8937;0.1079;-0.0873;0.0024
0000058927;6.8043;2.5738;4.8483;0.0781;-0.0777;0.0015
0000058935;6.3829;2.2290;4.7381;0.0485;-0.0718;-0.0055
0000058943;6.5745;2.2434;4.7764;0.0336;-0.0622;-0.0139
0000058951;6.1794;1.8507;4.8507;0.0465;-0.0454;-0.0260
0000058959;5.8395;1.7142;4.9464;0.0602;-0.0312;-0.0234
0000058967;5.7485;1.5802;4.8937;0.0771;-0.0228;-0.0240
0000058975;5.7365;1.4509;4.9225;0.0897;-0.0193;-0.0304
0000058983;5.8538;1.3384;4.9344;0.0865;-0.0260;-0.0269
0000058991;5.7700;1.3144;4.6926;0.0709;-0.0333;-0.0137
0000058999;5.7030;1.2737;4.7166;0.0516;-0.0578;-0.0151
0000059007;5.7700;1.2234;4.7046;0.0485;-0.0863;-0.0163
0000059015;5.6767;1.1349;4.7932;0.0352;-0.1033;-0.0220
0000059023;5.7437;1.1013;4.9823;0.0229;-0.1194;-0.0218
0000059031;5.6743;1.0415;4.8770;0.0043;-0.1236;-0.0310
0000059039;5.9831;1.2234;4.9632;0.0011;-0.1215;-0.0416
0000059047;5.8251;1.0343;4.9153;-0.0023;-0.1132;-0.0522
0000059055;6.0597;0.9768;4.7214;0.0107;-0.1038;-0.0649
0000059063;6.3782;1.1588;4.7262;0.0292;-0.0965;-0.0681
0000059071;6.3135;0.9146;4.7740;0.0472;-0.0857;-0.0652
0000059079;6.3686;0.9194;4.8147;0.0632;-0.0707;-0.0596
0000059087;6.6343;1.0918;4.8435;0.0861;-0.0617;-0.0520
0000059095;6.4476;1.3192;4.8674;0.1005;-0.0521;-0.0518
0000059103;6.4428;1.6376;4.8171;0.1030;-0.0385;-0.0386
0000059189;5.7892;2.1668;4.7573;-0.0514;-0.0400;-0.0993
0000059197;6.3470;2.2218;4.7908;-0.0576;-0.0456;-0.0893
0000059205;6.3925;1.9345;4.8243;-0.0645;-0.0382;-0.0865
0000059213;6.5194;1.6759;4.8363;-0.0658;-0.0381;-0.0889
0000059221;6.4260;1.2641;4.8578;-0.0494;-0.0321;-0.0910
0000059229;6.4955;1.1181;4.7597;-0.0438;-0.0262;-0.0877
0000059237;6.5194;1.0271;4.7214;-0.0300;-0.0152;-0.0762
0000059245;6.3111;0.9553;4.8100;-0.0212;-0.0076;-0.0678
0000059253;6.2273;1.1420;4.6256;-0.0169;-0.0095;-0.0622
0000059261;5.9783;1.0104;4.6711;-0.0175;-0.0099;-0.0521
0000059269;6.1555;1.1516;4.6184;-0.0188;-0.0211;-0.0488
0000059277;6.2058;1.2043;4.6711;-0.0135;-0.0322;-0.0377
0000059285;6.0837;1.2234;4.6471;-0.0137;-0.0300;-0.0200
0000059293;6.3853;1.4700;4.7022;-0.0107;-0.0410;-0.0105
0000059301;6.2584;1.4174;4.9105;-0.0104;-0.0445;0.0064
0000059309;6.3542;1.5419;5.0278;-0.0128;-0.0421;0.0125
0000059317;6.5218;1.7693;5.1140;-0.0135;-0.0360;0.0304
0000059325;6.2752;1.7430;5.3702;-0.0127;-0.0264;0.0509
0000059333;6.1411;1.6544;5.4372;0.0016;-0.0278;0.0681
0000059341;6.2177;1.5921;5.3056;0.0201;-0.0285;0.0915
0000059349;6.1196;1.3384;5.0757;0.0512;-0.0348;0.1077
0000059357;6.0837;1.1301;4.9584;0.0899;-0.0460;0.1252
0000059365;5.9999;0.6871;5.0302;0.1423;-0.0426;0.1495
0000059373;5.6814;0.2274;5.1475;0.2176;-0.0458;0.1812
0000059381;5.5354;-0.3376;5.3127;0.3263;-0.0512;0.2332
0000059389;5.2936;-1.0008;5.5593;0.4401;-0.0592;0.2983
0000059397;5.3079;-1.2617;5.5450;0.5436;-0.0652;0.3675
0000059405;6.0310;-1.1803;5.3343;0.6181;-0.0597;0.4181
0000059413;6.6128;-0.8045;5.0206;0.6511;-0.0372;0.4391
0000059421;7.0557;-0.4286;4.9225;0.6559;-0.0111;0.4386
0000059429;7.3933;-0.0766;4.9512;0.6358;0.0313;0.4142
0000059437;7.3239;0.5219;5.1260;0.6038;0.0632;0.3778
0000059445;7.0701;0.7901;5.3486;0.5757;0.0941;0.3198
0000059453;6.9336;1.3048;5.5091;0.5424;0.1355;0.2606
0000059461;6.6176;1.8124;5.5905;0.5112;0.1763;0.1953
0000059469;6.6248;2.0877;5.7748;0.4795;0.2109;0.1172
0000059477;6.3997;1.9201;5.8419;0.4491;0.2364;0.0381
0000059485;6.3111;1.6472;6.0621;0.4143;0.2521;-0.0382
0000059493;6.2273;1.2689;6.2225;0.3969;0.2639;-0.0991
0000059501;5.9927;0.5818;6.4620;0.4182;0.2721;-0.1472
0000059509;5.7772;0.0359;6.6655;0.4535;0.2918;-0.1728
0000059517;5.8610;-0.0335;6.3734;0.4858;0.3198;-0.1857
0000059525;5.9520;0.1556;5.2505;0.4173;0.3336;-0.1851
0000059533;6.3375;0.1748;4.8387;0.3116;0.3451;-0.1927
0000059541;6.3111;-0.1030;4.5298;0.2104;0.3499;-0.1907
0000059549;6.4955;-0.2921;4.0749;0.1007;0.3409;-0.1748
0000059557;6.1507;-0.6776;4.1515;0.0033;0.3360;-0.1148
0000059565;5.9496;-1.0199;3.9049;-0.0630;0.3150;-0.0322
0000059573;6.0956;-1.5945;3.3591;-0.1572;0.2994;0.0691
0000059581;5.6527;-1.6975;3.3232;-0.2282;0.2944;0.1548
0000059589;5.3463;-1.7406;2.1117;-0.2867;0.2842;0.1961
0000059597;5.3989;-0.8212;1.3408;-0.3900;0.2465;0.1925
0000059605;5.1882;-0.3304;0.3615;-0.5509;0.1896;0.1857
0000059613;4.8028;-0.1389;-0.3352;-0.7508;0.1078;0.1924
0000059621;4.6280;-0.4094;-0.6656;-0.9974;0.0113;0.2128
0000059629;4.4700;-0.5938;-0.6608;-1.2432;-0.0898;0.2394
0000059637;3.7158;-1.0702;-0.4836;-1.4687;-0.1532;0.2757
0000059645;3.5195;-1.6735;0.0024;-1.6470;-0.2264;0.3019
0000059653;3.4285;-2.3774;1.0080;-1.7288;-0.2870;0.3242
0000059661;3.8523;-2.7007;1.5275;-1.6914;-0.3232;0.2992
0000059669;4.8578;-2.6121;0.9984;-1.6407;-0.3063;0.2819
0000059677;6.0310;-2.4948;0.6776;-1.5629;-0.2770;0.2822
0000059685;7.0605;-3.0143;0.5578;-1.5064;-0.3108;0.2718
0000059693;7.9176;-3.1101;0.1580;-1.4579;-0.3812;0.2402
0000059701;7.6279;-3.2513;-0.4884;-1.5084;-0.4959;0.2414
0000059709;7.4340;-3.0694;-0.8882;-1.6342;-0.5983;0.2763
0000059717;6.7708;-3.4524;-1.5227;-1.8357;-0.6612;0.2963
0000059725;6.4165;-4.0390;-1.0463;-2.0411;-0.7133;0.3465
0000059733;6.2465;-5.5067;0.3089;-2.1627;-0.6748;0.4026
0000059741;6.5817;-6.7708;1.9321;-2.1152;-0.5628;0.4326
0000059749;6.5170;-7.3454;1.8483;-1.9450;-0.4010;0.4179
0000059757;5.9376;-7.5513;1.7286;-1.7544;-0.2022;0.4025
0000059765;5.7102;-7.1012;1.6017;-1.5130;0.0273;0.3479
0000059851;-2.0016;-4.7788;7.0773;0.0211;-0.6614;0.3351
0000059859;-2.5546;-6.4021;7.0749;0.0967;-0.7950;0.3034
0000059867;-0.9098;-8.1499;7.8937;0.2455;-0.8126;0.2273
0000059875;1.9034;-9.2129;8.5976;0.5351;-0.7284;0.1747
0000059883;6.0166;-8.2696;7.0174;0.9264;-0.5473;0.0999
0000059891;9.6774;-6.4572;5.5857;1.3075;-0.4151;0.0350
0000059899;13.4458;-4.3934;5.8012;1.7741;-0.2994;0.0115
0000059907;16.0531;-1.8052;6.3063;2.1368;-0.2274;0.0028
0000059915;16.9893;1.8268;7.0222;2.3287;-0.1419;-0.0729
0000059923;14.3341;4.0414;8.3749;2.2607;-0.1159;-0.1871
0000059931;9.1722;4.7573;8.6766;1.9220;-0.2234;-0.1956
0000059939;4.2401;4.2449;7.7213;1.5160;-0.3536;-0.0628
0000059947;0.2107;2.4804;6.5434;1.2060;-0.4341;0.1737
0000059955;-1.8292;0.6057;6.5457;1.1267;-0.4966;0.4142
0000059963;-1.4054;-1.8483;6.4955;1.1686;-0.7815;0.6227
0000059971;1.6209;-1.9752;3.1484;1.2898;-1.1522;0.7895
0000059979;6.0478;-2.2146;2.8419;1.4654;-1.4336;0.8978
0000059987;8.7173;-4.0103;3.4046;1.8291;-1.7196;0.8515
0000059995;9.9695;-3.5075;3.8954;2.3066;-1.8989;0.6632
0000060003;9.8306;-3.0837;3.9911;2.6412;-1.8883;0.3845
0000060011;8.3246;-3.0526;5.1930;2.8450;-1.8782;0.0480
0000060019;6.8881;-3.2609;5.6599;2.9103;-1.8890;-0.2523
0000060027;5.5737;-3.3040;6.1363;3.0329;-1.8508;-0.4598
0000060035;5.8203;-3.5434;9.0094;3.4889;-1.7591;-0.6185
0000060043;11.0564;-1.2689;17.6548;4.3656;-1.7279;-0.7474
0000060051;21.8662;9.6702;22.5941;4.3656;-1.5552;-0.9863
0000060059;39.2865;42.9113;14.2096;4.3656;-0.3837;-1.6214
0000060067;45.9256;78.4508;19.6923;4.3656;0.7115;-2.9508
0000060075;-0.3831;78.4508;11.2719;4.2763;0.7882;-2.5511
0000060083;-4.4197;54.3603;-4.8914;1.3626;-0.2591;-0.6929
0000060091;10.3046;17.2909;-2.9497;0.0921;-0.4794;0.3060
0000060099;10.3621;0.9313;-2.0016;0.2851;-0.4311;1.0565
0000060107;10.2400;-2.1237;-6.9815;0.2896;-0.4858;1.3498
0000060115;13.3932;0.1173;-6.6798;0.4858;-0.5357;1.1319
0000060123;16.8265;3.2202;-5.6623;0.0581;-0.6343;0.3010
0000060131;18.8160;14.4706;-1.6400;0.4080;-0.3648;-0.8306
0000060139;11.9950;14.3485;-7.0174;-1.1708;0.3621;-1.3271
0000060147;12.6510;5.0422;-7.8290;-2.1921;0.9742;-1.5691
0000060155;14.0899;-1.5060;-6.3494;-2.4856;1.5112;-1.6782
0000060163;14.5974;-6.3039;-2.8563;-2.4970;1.8273;-1.4686
0000060171;14.0947;-9.9000;-2.6169;-2.3946;1.8948;-1.0688
0000060179;13.6398;-12.5384;-3.7397;-1.9740;1.7914;-0.5645
0000060187;9.9383;-13.0221;-4.4628;-1.5449;1.6542;-0.1395
0000060195;4.7166;-12.8425;-4.2976;-1.2085;1.4394;0.2132
0000060203;-0.1293;-12.5289;-4.4005;-0.8767;1.2184;0.3973
0000060211;-3.1580;-11.7507;-4.9177;-0.4919;0.9578;0.3981
0000060219;-3.7254;-9.4547;-4.6424;-0.0613;0.6618;0.2168
0000060227;-1.9441;-5.2050;-4.3598;0.3208;0.3821;-0.0640
0000060235;1.4581;0.2179;-2.5666;0.5200;0.1940;-0.2912
0000060243;4.0486;6.5745;-1.1827;0.7192;0.1031;-0.5041
0000060251;5.9089;11.2312;0.1796;0.8430;0.1035;-0.6658
0000060259;7.1563;14.2024;1.0104;0.7882;0.2465;-0.7317
0000060267;7.1180;14.1306;0.6416;0.6630;0.4089;-0.6682
0000060275;5.5905;13.0053;0.4190;0.5236;0.5470;-0.5144
0000060283;5.4468;10.5536;0.3735;0.4631;0.6386;-0.3297
0000060291;4.8459;7.4388;1.1396;0.5959;0.6436;-0.1868
0000060299;5.7581;4.9368;0.6153;0.6855;0.5433;-0.1533
0000060307;5.9161;4.8219;-0.7973;0.6464;0.4209;-0.1985
0000060315;5.1978;4.1013;-0.3998;0.5581;0.3082;-0.2771
0000060323;4.4149;3.7302;-0.4836;0.4600;0.2018;-0.3487
0000060331;3.8571;3.9911;-0.6560;0.3351;0.0529;-0.3869
0000060339;4.0462;3.8116;-0.8092;0.2100;-0.0665;-0.3901
0000060347;4.5993;3.7541;-0.6081;0.1447;-0.1486;-0.4010
0000060355;4.9273;3.3351;-0.0527;0.1198;-0.2330;-0.4049
0000060363;5.2553;2.8228;0.4956;0.0875;-0.2944;-0.3744
0000060371;5.8802;2.3224;1.3934;0.0819;-0.3573;-0.3299
0000060379;6.3518;2.2505;1.3024;0.0877;-0.4138;-0.2785
0000060387;6.6032;2.1500;1.7166;0.0870;-0.4314;-0.2467
0000060395;7.2880;2.1165;2.1955;0.0970;-0.4166;-0.2164
0000060403;7.4460;1.7957;2.3128;0.0819;-0.3613;-0.1712
0000060411;7.3598;1.7095;2.1213;0.0400;-0.3192;-0.1326
0000060419;7.1587;1.9297;2.0039;0.0041;-0.2782;-0.1182
0000060505;6.1507;3.1244;1.1061;0.1419;0.0901;-0.2037
0000060513;5.7868;2.7988;1.1157;0.1424;0.0893;-0.1904
0000060521;5.4899;2.8012;0.7614;0.1126;0.0759;-0.1587
0000060529;4.9704;2.8180;0.6057;0.0935;0.0205;-0.1358
0000060537;4.7597;2.7294;1.3216;0.0725;-0.0524;-0.1127
0000060545;5.0446;2.5474;1.3719;0.0691;-0.1088;-0.0758
0000060553;4.8650;2.1093;1.4964;0.0727;-0.1524;-0.0468
0000060561;5.1739;1.9800;1.5131;0.0930;-0.1994;-0.0284
0000060569;5.0494;2.0111;1.2091;0.1061;-0.2268;-0.0097
0000060577;5.1332;2.0159;1.1995;0.0934;-0.2402;0.0079
0000060585;5.1451;2.0566;1.0319;0.0841;-0.2526;0.0192
0000060593;5.6264;2.4565;1.1253;0.0830;-0.2614;0.0245
0000060601;6.0334;2.9281;1.4246;0.1041;-0.2449;0.0216
0000060609;6.6487;3.1388;1.3168;0.0810;-0.2084;0.0005
0000060617;6.4428;3.3184;1.1564;0.0897;-0.1813;-0.0240
0000060625;6.7421;3.8906;1.0391;0.0572;-0.1426;-0.0488
0000060633;6.9168;3.9672;0.6632;-0.0057;-0.1112;-0.0893
0000060641;6.9192;3.8259;1.1899;-0.0369;-0.1018;-0.1262
0000060649;6.7445;3.4668;1.8364;-0.0120;-0.0858;-0.1503
0000060657;6.4883;3.3160;1.7813;-0.0037;-0.0662;-0.1410
0000060665;6.3925;3.1603;1.9058;0.0273;-0.0805;-0.1444
0000060673;6.3662;3.0358;2.0925;0.0715;-0.0970;-0.1374
0000060681;6.2273;3.1388;1.6688;0.0830;-0.0899;-0.1136
0000060689;6.1914;3.4405;0.8308;0.0534;-0.0782;-0.0826
0000060697;6.2584;3.6919;0.2682;0.0005;-0.0666;-0.0566
0000060705;6.0071;3.3878;0.1101;-0.0759;-0.0919;-0.0538
0000060713;6.3758;3.1771;0.6776;-0.1439;-0.1431;-0.0634
0000060721;6.6487;2.9592;0.8116;-0.1931;-0.1788;-0.0811
0000060729;6.6607;3.2848;0.5411;-0.2458;-0.2126;-0.1081
0000060737;6.4883;3.7182;0.1101;-0.2988;-0.2376;-0.1379
0000060745;6.6080;4.1946;-0.1389;-0.3616;-0.2381;-0.1653
0000060753;6.6295;4.4412;-0.1460;-0.4010;-0.2366;-0.2094
0000060761;6.5434;4.6112;-0.2610;-0.4433;-0.2300;-0.2483
0000060769;6.2608;4.3191;-0.3448;-0.4780;-0.2152;-0.2803
0000060777;6.2369;4.2258;-0.1652;-0.4954;-0.2021;-0.3062
0000060785;6.1244;4.2186;0.2011;-0.4808;-0.1905;-0.3268
0000060793;6.2177;3.7302;0.4621;-0.4728;-0.1692;-0.3508
0000060801;6.1483;3.2968;0.7470;-0.4683;-0.1386;-0.3604
0000060809;5.8610;2.6432;0.9098;-0.4674;-0.1112;-0.3629
0000060817;5.8969;1.8316;0.8835;-0.4513;-0.0851;-0.3495
0000060825;5.6599;1.3599;0.8954;-0.4367;-0.0702;-0.3361
0000060833;5.8347;1.3671;1.1899;-0.4501;-0.0450;-0.3091
0000060841;5.9089;1.6041;1.2139;-0.4978;-0.0305;-0.2852
0000060849;5.7174;1.6161;1.2378;-0.5465;-0.0253;-0.2666
0000060857;5.4779;1.6927;1.1851;-0.5903;-0.0406;-0.2581
0000060865;5.2864;1.7166;1.4126;-0.6219;-0.0376;-0.2393
0000060873;4.8866;1.9010;1.5443;-0.6430;-0.0570;-0.2164
0000060881;4.8602;2.0111;2.0039;-0.6524;-0.0637;-0.1817
0000060889;4.5107;1.9082;2.3343;-0.6402;-0.0638;-0.1446
0000060897;4.5945;2.1763;2.3655;-0.6223;-0.0701;-0.1071
0000060905;4.5442;2.1787;2.8204;-0.6023;-0.0750;-0.0766
0000060913;4.7262;2.5211;2.8180;-0.5586;-0.0909;-0.0420
0000060921;4.7022;2.3104;3.2298;-0.5203;-0.1077;-0.0144
0000060929;4.8339;2.5355;3.3447;-0.4684;-0.1092;0.0161
0000060937;4.8650;2.5498;3.3591;-0.3977;-0.1180;0.0288
0000060945;4.7645;2.5714;3.7709;-0.3296;-0.1402;0.0418
0000060953;4.9991;2.7461;3.6990;-0.2639;-0.1599;0.0392
0000060961;4.9488;2.6839;3.8379;-0.1970;-0.1744;0.0301
0000060969;5.1332;2.8395;3.8810;-0.1418;-0.1835;0.0294
0000060977;5.1834;2.7701;3.8403;-0.1058;-0.1875;0.0196
0000060985;5.3798;2.6480;3.6871;-0.0851;-0.1848;0.0161
0000060993;5.6192;2.4708;3.9025;-0.0749;-0.1724;0.0181
0000061001;5.7030;2.2386;3.8259;-0.0682;-0.1387;0.0354
0000061009;6.0861;1.9321;3.7996;-0.0572;-0.1292;0.0480
0000061017;6.1746;1.6520;3.6512;-0.0462;-0.1135;0.0821
0000061025;6.4643;1.4796;3.6559;-0.0234;-0.0979;0.1148
0000061033;6.6798;1.5874;3.4812;0.0147;-0.0715;0.1380
0000061041;6.4811;1.8507;3.3232;0.0613;-0.0468;0.1407
0000061049;6.2800;1.9513;3.2753;0.1081;-0.0308;0.1244
0000061057;6.1651;2.3056;3.0406;0.1420;-0.0159;0.1090
0000061065;6.0023;2.5522;2.9449;0.1711;0.0032;0.0843
0000061073;5.9568;2.5402;2.6767;0.2017;0.0109;0.0613
0000061081;5.9065;2.6528;2.5642;0.2138;0.0232;0.0420
0000061167;5.5737;2.7725;2.3463;0.1432;-0.0044;-0.0730
0000061175;5.6527;2.7725;2.3367;0.1572;-0.0140;-0.0729
0000061183;5.6072;2.6911;2.4205;0.1704;-0.0228;-0.0769
0000061191;5.8227;2.7126;2.3152;0.1771;-0.0308;-0.0773
0000061199;5.7461;2.4565;2.2386;0.1820;-0.0406;-0.0843
0000061207;5.7604;2.4876;2.2314;0.1891;-0.0428;-0.0822
0000061215;5.8395;2.3870;2.0662;0.1797;-0.0366;-0.0839
0000061223;5.8730;2.6456;1.8818;0.1757;-0.0344;-0.0974
0000061231;5.7317;2.6815;2.0782;0.1821;-0.0388;-0.1021
0000061239;5.7964;2.8012;2.1404;0.1857;-0.0318;-0.1077
0000061247;5.6790;2.7294;2.0111;0.1939;-0.0234;-0.1118
0000061255;5.6958;2.7246;2.1428;0.2030;-0.0137;-0.1103
0000061263;5.7317;2.8922;2.0830;0.2180;-0.0167;-0.1155
0000061271;5.8442;2.8108;2.1093;0.2226;-0.0085;-0.1182
0000061279;5.8251;2.6001;2.1213;0.2258;0.0007;-0.1250
0000061287;5.7245;2.6384;1.9082;0.2282;0.0049;-0.1395
0000061295;5.8012;2.5809;1.8938;0.2244;0.0100;-0.1423
0000061303;5.8299;2.6049;1.7885;0.2154;0.0155;-0.1427
0000061311;5.5402;2.3870;1.8364;0.2173;0.0164;-0.1536
0000061319;5.7557;2.6504;1.7549;0.2014;0.0124;-0.1484
0000061327;5.5282;2.4565;1.7142;0.1945;0.0032;-0.1565
0000061335;5.2313;2.2505;1.7813;0.1928;-0.0240;-0.1691
0000061343;5.5833;2.6671;1.6999;0.1844;-0.0433;-0.1709
0000061351;5.4324;2.6073;1.6041;0.1747;-0.0518;-0.1785
0000061359;5.3151;2.5235;1.8100;0.1809;-0.0711;-0.1944
0000061367;5.3510;2.6600;1.7885;0.1916;-0.0806;-0.2002
0000061375;5.5019;2.7007;1.8148;0.1936;-0.0881;-0.2072
0000061383;5.4827;2.8252;1.6831;0.2077;-0.0953;-0.2240
0000061391;5.4229;2.8323;1.7957;0.2113;-0.0917;-0.2364
0000061399;5.5545;2.7916;1.6831;0.2200;-0.0925;-0.2362
0000061407;5.4851;2.8012;1.6041;0.2280;-0.0907;-0.2377
0000061415;5.4157;2.7892;1.5634;0.2164;-0.0861;-0.2288
0000061423;5.3989;2.9233;1.5634;0.2097;-0.0839;-0.2282
0000061431;5.4229;2.7461;1.5802;0.2021;-0.0779;-0.2240
0000061439;5.5210;2.8683;1.5371;0.1958;-0.0645;-0.2018
0000061447;5.3367;2.8515;1.5490;0.1841;-0.0566;-0.1993
0000061455;5.5186;2.8683;1.4796;0.1841;-0.0521;-0.1980
0000061463;5.2409;2.7461;1.4916;0.1869;-0.0569;-0.2062
0000061471;5.3343;2.8587;1.3815;0.1805;-0.0536;-0.2004
0000061479;5.4061;2.7485;1.4461;0.1629;-0.0486;-0.1972
0000061487;5.5689;2.9305;1.4916;0.1599;-0.0385;-0.1962
0000061495;5.3319;2.6097;1.5514;0.1688;-0.0304;-0.1992
0000061503;5.4588;2.8467;1.6448;0.1615;-0.0153;-0.1933
0000061511;5.4229;2.9784;1.5155;0.1563;0.0053;-0.1966
0000061519;5.3750;2.8659;1.7980;0.1539;0.0318;-0.1833
0000061527;5.2768;2.6432;1.9369;0.1697;0.0496;-0.1620
0000061535;5.1380;2.5786;2.0303;0.1700;0.0874;-0.1234
0000061543;5.0733;2.7198;1.7933;0.1668;0.1055;-0.0791
0000061551;4.7956;2.6791;1.5060;0.1531;0.1120;-0.0292
0000061559;4.4149;2.6240;1.1133;0.1231;0.1007;0.0201
0000061567;4.3527;2.5977;0.9098;0.0989;0.0806;0.0632
0000061575;4.2473;2.8826;0.7997;0.0694;0.0557;0.1014
0000061583;4.1899;2.7605;0.7494;0.0458;0.0218;0.1199
0000061591;4.3311;2.9592;0.6704;0.0244;-0.0107;0.1255
0000061599;4.3359;2.9329;0.5028;0.0075;-0.0469;0.1287
0000061607;4.5155;3.1699;0.5626;-0.0172;-0.0642;0.1396
0000061615;4.6376;3.0789;0.6297;-0.0377;-0.0725;0.1470
0000061623;4.9584;3.2034;0.6440;-0.0504;-0.0799;0.1503
0000061631;4.7357;2.9281;0.8859;-0.0727;-0.0803;0.1580
0000061639;4.7621;2.7988;1.0630;-0.0863;-0.0799;0.1745
0000061647;4.7549;2.6863;1.2546;-0.0867;-0.0842;0.1791
0000061655;4.9057;2.8276;1.5371;-0.0739;-0.0831;0.1920
0000061663;4.9584;2.6408;1.5562;-0.0670;-0.0762;0.2085
0000061671;4.9895;2.5355;1.8124;-0.0489;-0.0592;0.2300
0000061679;5.2122;2.5402;1.9704;-0.0248;-0.0474;0.2357
0000061687;5.0661;2.3463;2.0207;0.0004;-0.0306;0.2537
0000061695;5.1954;2.3894;2.0518;0.0237;-0.0143;0.2671
0000061703;5.3870;2.3104;2.1620;0.0501;0.0077;0.2844
0000061711;5.5593;2.3248;2.1548;0.0735;0.0325;0.2914
0000061719;5.5330;2.3966;2.0638;0.0925;0.0520;0.2934
0000061727;5.7293;2.4541;1.9106;0.1103;0.0670;0.2956
0000061735;5.7844;2.4804;1.8507;0.1278;0.0795;0.2938
0000061743;5.6599;2.2649;1.8794;0.1394;0.0942;0.2963
0000061751;5.7221;2.2553;2.0111;0.1612;0.1014;0.2932
0000061842;5.7293;2.4157;1.2929;0.4847;0.4044;0.1740
0000061850;5.5809;2.4972;1.1372;0.4935;0.4150;0.1792
0000061858;6.2321;2.0853;1.6927;0.4892;0.4166;0.1707
0000061866;6.1268;2.5522;0.8978;0.4951;0.4186;0.1772
0000061874;5.9807;2.5402;0.5746;0.4952;0.4282;0.1725
0000061882;6.0813;2.9568;0.7278;0.5035;0.4153;0.1640
0000061890;6.7684;2.7174;1.1995;0.5052;0.4044;0.1348
0000061898;6.4356;3.3567;1.1109;0.5399;0.3966;0.0969
0000061906;6.1603;2.9209;0.5650;0.5145;0.4001;0.1015
0000061914;5.4851;3.4740;0.6201;0.5684;0.4137;0.1057
0000061922;6.1363;2.2529;0.3160;0.4927;0.3671;0.0750
0000061930;6.4141;3.0933;-0.0024;0.5003;0.3557;0.0568
0000061938;5.7030;3.2489;0.3759;0.5080;0.3481;0.0606
0000061946;6.0501;3.0119;0.0551;0.5040;0.3159;0.0047
0000061954;6.2513;2.8659;-0.1987;0.4846;0.3110;0.0140
0000061962;5.4731;3.5913;0.0958;0.5159;0.2930;-0.0208
0000061970;6.2752;3.4716;0.3400;0.5201;0.2630;-0.0504
0000061978;6.1746;3.3064;-0.1030;0.5097;0.2498;-0.0657
0000061986;6.1292;3.4668;-0.3400;0.5333;0.2317;-0.1049
0000061994;5.6168;3.6679;0.2227;0.5269;0.2104;-0.1038
0000062002;6.5793;3.4955;-1.3384;0.5288;0.2053;-0.1398
0000062010;5.8107;3.3399;-0.1772;0.4948;0.1953;-0.1390
0000062018;5.3870;3.9385;-0.4238;0.5131;0.1724;-0.1280
0000062026;5.3941;3.5195;-0.6608;0.4850;0.1464;-0.1136
0000062034;5.3367;3.5937;-0.1652;0.4818;0.1287;-0.1025
0000062042;5.1882;2.8611;-0.5890;0.4334;0.0998;-0.0885
0000062050;4.9871;3.1125;-0.8475;0.4135;0.0699;-0.0392
0000062058;4.8171;2.8683;-0.9649;0.3805;0.0250;0.0080
0000062066;4.8530;3.1699;0.0192;0.3601;-0.0456;0.0300
0000062074;5.6168;2.7701;-0.1317;0.3277;-0.0870;0.0320
0000062082;5.6096;2.5833;0.1748;0.3180;-0.1128;0.0421
0000062090;5.7174;2.4660;-0.1891;0.3216;-0.1085;0.0365
0000062098;5.5426;2.1835;0.3926;0.3210;-0.0989;0.0328
0000062106;5.5091;2.8371;0.3567;0.3485;-0.0745;0.0322
0000062114;5.1858;2.4852;0.2155;0.3267;-0.0618;0.0677
0000062122;5.2553;2.6839;0.3831;0.3246;-0.0630;0.1054
0000062130;5.1523;3.0191;0.1580;0.3271;-0.0613;0.1298
0000062138;5.2672;3.0263;0.0120;0.3323;-0.0865;0.1515
0000062146;5.3846;2.8850;-0.2442;0.3368;-0.1183;0.1556
0000062154;5.4324;2.9616;-0.3448;0.3293;-0.1331;0.1593
0000062162;5.2313;3.0287;-0.8763;0.2978;-0.1448;0.1619
0000062170;5.6096;3.2226;-1.1827;0.2609;-0.1689;0.1523
0000062178;6.1076;3.4285;-1.3096;0.2258;-0.1897;0.1370
0000062186;6.1627;3.5578;-1.6520;0.1673;-0.2061;0.1224
0000062194;6.2130;3.5386;-1.6209;0.0998;-0.2234;0.1013
0000062202;5.9879;3.3088;-1.7310;0.0497;-0.2531;0.0903
0000062210;5.9879;3.4788;-1.7478;-0.0121;-0.2650;0.0825
0000062218;6.1866;3.6607;-1.7262;-0.0568;-0.2781;0.0723
0000062226;5.8514;3.2801;-1.5131;-0.1095;-0.2882;0.0709
0000062234;6.0837;3.3998;-1.5395;-0.1420;-0.3043;0.0654
0000062242;6.3087;3.4500;-1.4437;-0.1737;-0.3032;0.0544
0000062250;6.4572;3.4117;-1.4629;-0.2117;-0.2954;0.0484
0000062260;6.5721;3.5003;-1.1756;-0.2457;-0.2907;0.0302
0000062268;6.6870;3.5123;-1.1277;-0.2774;-0.2701;0.0113
0000062277;6.6128;3.4285;-1.2522;-0.3151;-0.2615;-0.0179
0000062286;6.4189;3.6129;-1.0223;-0.3445;-0.2527;-0.0441
0000062295;6.2489;3.4692;-0.8978;-0.3629;-0.2510;-0.0671
0000062304;6.3518;3.4788;-0.8021;-0.3822;-0.2525;-0.0795
0000062313;6.4931;3.4860;-0.6800;-0.3877;-0.2677;-0.1045
0000062322;6.1124;3.0167;-0.4214;-0.3912;-0.2717;-0.1144
0000062331;6.2991;3.0311;-0.3974;-0.3974;-0.2722;-0.1359
0000062340;6.3925;3.1053;-0.4310;-0.4006;-0.2791;-0.1527
0000062349;6.2297;3.1053;-0.5004;-0.4167;-0.2734;-0.1700
0000062358;6.1459;3.1053;-0.3663;-0.4325;-0.2729;-0.1897
0000062367;6.2249;3.1077;-0.3280;-0.4349;-0.2749;-0.2129
0000062376;6.1028;3.0718;-0.2634;-0.4415;-0.2675;-0.2165
0000062385;6.0310;3.1053;-0.1915;-0.4391;-0.2657;-0.2308
0000062394;5.9256;3.0837;-0.0287;-0.4338;-0.2591;-0.2322
0000062403;5.9256;2.8826;0.0790;-0.4277;-0.2645;-0.2384
0000062412;5.9664;2.9353;0.2251;-0.4088;-0.2747;-0.2462
0000062421;6.0190;2.9880;0.0287;-0.4074;-0.2753;-0.2450
0000062430;5.8730;3.0502;-0.0407;-0.4151;-0.2878;-0.2562
0000062439;5.8347;2.9185;0.0527;-0.4275;-0.2939;-0.2615
0000062526;5.2888;2.5618;0.6943;-0.3756;-0.1339;-0.1788
0000062535;5.2241;2.6935;0.7207;-0.3710;-0.1286;-0.1613
0000062544;5.0398;2.6600;0.8140;-0.3740;-0.1202;-0.1286
0000062553;4.7956;2.5379;0.9744;-0.3577;-0.1371;-0.1123
0000062562;4.7621;2.4924;1.0319;-0.3480;-0.1455;-0.0839
0000062571;5.0278;2.6480;1.0199;-0.3289;-0.1657;-0.0698
0000062580;4.9967;2.5546;1.1732;-0.3067;-0.1683;-0.0473
0000062589;5.1380;2.6049;1.1851;-0.2852;-0.1739;-0.0282
0000062598;5.1643;2.6073;1.2139;-0.2581;-0.1821;-0.0163
0000062607;5.2265;2.7509;1.4102;-0.2254;-0.1832;-0.0016
0000062616;5.2840;2.6863;1.4605;-0.1997;-0.1789;0.0113
0000062625;5.3558;2.6552;1.5060;-0.1592;-0.1741;0.0197
0000062634;5.5043;2.7773;1.4317;-0.1312;-0.1532;0.0372
0000062643;5.4588;2.5857;1.5802;-0.1010;-0.1416;0.0332
0000062652;5.6671;2.6791;1.5586;-0.0632;-0.1239;0.0385
0000062661;5.6431;2.5809;1.4533;-0.0384;-0.0917;0.0485
0000062670;5.7676;2.7629;1.3910;-0.0135;-0.0625;0.0548
0000062679;5.6862;2.6121;1.3431;0.0171;-0.0486;0.0577
0000062688;5.5857;2.5809;1.1899;0.0294;-0.0278;0.0714
0000062697;5.4348;2.5426;1.1085;0.0418;-0.0236;0.0667
0000062706;5.5450;2.6480;0.9505;0.0498;-0.0203;0.0711
0000062715;5.4372;2.6025;1.0056;0.0604;-0.0168;0.0677
0000062724;5.3965;2.6552;1.0798;0.0663;-0.0108;0.0759
0000062733;5.5761;2.8204;0.9936;0.0715;-0.0023;0.0653
0000062742;5.7221;2.8563;0.9649;0.0846;-0.0027;0.0690
0000062751;5.5234;2.7294;1.0367;0.0994;-0.0139;0.0613
0000062760;5.5689;2.8323;0.9673;0.1065;-0.0085;0.0715
0000062769;5.4205;2.6193;0.8811;0.1111;-0.0171;0.0698
0000062778;5.4300;2.7461;0.9385;0.1154;-0.0222;0.0718
0000062787;5.6814;2.9449;0.7709;0.1131;-0.0297;0.0681
0000062796;5.6647;3.0143;0.7685;0.1218;-0.0405;0.0628
0000062805;5.8155;3.0646;0.7422;0.1202;-0.0402;0.0597
0000062814;5.8299;3.1412;0.6153;0.1190;-0.0412;0.0529
0000062823;5.5091;2.9592;0.6321;0.1208;-0.0468;0.0477
0000062832;5.7868;3.1819;0.5076;0.1144;-0.0385;0.0484
0000062841;5.7413;3.0742;0.5148;0.1120;-0.0366;0.0350
0000062850;5.8347;3.1292;0.3926;0.1011;-0.0344;0.0325
0000062859;5.8754;2.9904;0.3759;0.0869;-0.0232;0.0232
0000062868;5.7652;2.9784;0.2322;0.0624;-0.0147;0.0185
0000062877;5.9687;2.9856;0.3160;0.0454;-0.0151;0.0077
0000062886;5.8395;2.9449;0.3136;0.0238;-0.0140;0.0012
0000062895;5.6072;2.7773;0.3903;0.0005;-0.0184;-0.0061
0000062904;5.8802;2.9951;0.4764;-0.0141;-0.0254;-0.0151
0000062913;5.7174;2.8276;0.4764;-0.0312;-0.0215;-0.0152
0000062922;5.7628;2.8611;0.5148;-0.0449;-0.0265;-0.0218
0000062931;5.7700;2.9616;0.5650;-0.0553;-0.0322;-0.0260
0000062940;5.7269;2.9760;0.5986;-0.0540;-0.0361;-0.0298
0000062949;5.6790;2.9281;0.7470;-0.0521;-0.0410;-0.0298
0000062958;5.7509;2.9640;0.7111;-0.0440;-0.0446;-0.0285
0000062967;5.4660;2.9209;0.7949;-0.0405;-0.0397;-0.0261
0000062976;5.6144;2.8922;0.8954;-0.0262;-0.0453;-0.0306
0000062985;5.7437;2.8347;1.1013;-0.0013;-0.0490;-0.0281
0000062994;5.7796;2.8922;0.9936;0.0160;-0.0397;-0.0230
0000063003;5.7485;2.8659;0.9553;0.0394;-0.0428;-0.0250
0000063012;5.5330;2.6600;0.7973;0.0457;-0.0294;-0.0204
0000063021;5.6048;2.7270;0.8835;0.0557;-0.0324;-0.0139
0000063030;5.5186;2.6911;0.8021;0.0552;-0.0302;-0.0017
0000063039;5.6072;2.9760;0.7374;0.0568;-0.0352;-0.0020
0000063048;5.5881;2.9784;0.7278;0.0691;-0.0354;0.0057
0000063057;5.5617;3.0502;0.7111;0.0679;-0.0269;0.0059
0000063066;5.5713;3.0119;0.6393;0.0709;-0.0230;0.0092
0000063075;5.7988;3.0071;0.6656;0.0751;-0.0280;-0.0020
0000063084;5.6647;3.0957;0.6512;0.0683;-0.0238;0.0003
0000063093;5.5905;3.0239;0.3591;0.0636;-0.0285;-0.0039
0000063102;5.5354;2.7677;0.2969;0.0422;-0.0232;-0.0037
0000063111;5.6695;3.1077;0.2897;0.0254;-0.0265;0.0008
0000063120;5.6934;2.9951;0.3256;0.0039;-0.0268;0.0036
0000063129;5.6838;3.0550;0.1963;-0.0125;-0.0388;0.0003
0000063138;5.7820;3.0574;0.3376;-0.0293;-0.0422;-0.0023
0000063147;5.9424;3.1484;0.3089;-0.0344;-0.0417;-0.0124
0000063156;5.6264;2.9113;0.4956;-0.0454;-0.0397;-0.0084
0000063165;5.3534;2.8874;0.4549;-0.0501;-0.0360;-0.0039
0000063174;5.7030;3.0598;0.5052;-0.0641;-0.0348;-0.0037
0000063317;5.6024;2.7845;0.8021;-0.0272;-0.0253;-0.0441
0000063326;5.5426;2.8706;0.8164;-0.0152;-0.0296;-0.0394
0000063335;5.6407;2.8347;0.7207;-0.0203;-0.0273;-0.0281
0000063344;5.7150;2.9880;0.7590;-0.0136;-0.0378;-0.0321
0000063353;5.4516;2.8419;0.7901;-0.0108;-0.0433;-0.0253
0000063362;5.5210;2.8635;0.8236;-0.0060;-0.0509;-0.0211
0000063371;5.5737;2.9975;0.7111;-0.0061;-0.0458;-0.0156
0000063380;5.3989;2.8515;0.7135;-0.0024;-0.0432;-0.0165
0000063389;5.4588;2.7821;0.6512;0.0047;-0.0450;-0.0145
0000063398;5.7102;3.0311;0.6201;-0.0011;-0.0373;-0.0083
0000063407;5.6790;2.8874;0.6536;0.0011;-0.0422;-0.0129
0000063416;5.6264;2.8180;0.6584;0.0081;-0.0401;-0.0103
0000063425;5.5857;2.9544;0.7661;0.0005;-0.0309;0.0028
0000063434;5.7581;3.0143;0.6297;-0.0007;-0.0305;0.0051
0000063443;5.6216;2.8754;0.6321;0.0029;-0.0298;0.0040
0000063452;5.4827;2.7797;0.6776;-0.0044;-0.0232;0.0181
0000063461;5.6934;2.8946;0.7159;0.0001;-0.0296;0.0087
0000063470;5.6527;2.9497;0.6728;0.0013;-0.0250;0.0125
0000063479;5.5881;2.8539;0.7087;0.0057;-0.0205;0.0084
0000063488;5.6527;2.9521;0.6847;0.0101;-0.0281;0.0043
0000063497;5.8107;2.9329;0.6536;0.0119;-0.0284;0.0037
0000063506;5.6144;2.8946;0.6297;0.0149;-0.0292;0.0025
0000063515;5.5952;2.9113;0.7302;0.0180;-0.0365;-0.0016
0000063524;5.6671;2.9090;0.6369;0.0200;-0.0386;-0.0035
0000063533;5.7485;2.9784;0.6871;0.0156;-0.0360;-0.0012
0000063542;5.6719;2.9401;0.6560;0.0215;-0.0413;-0.0047
0000063551;5.7748;3.0598;0.6345;0.0152;-0.0336;-0.0036
0000063558;5.6264;2.8850;0.5650;0.0211;-0.0416;-0.0081
0000063566;5.7437;2.9209;0.6153;0.0133;-0.0372;-0.0073
0000063574;5.6048;2.8683;0.5291;0.0139;-0.0374;-0.0065
0000063582;5.7652;2.9999;0.5507;0.0027;-0.0374;-0.0096
0000063590;5.7509;2.9999;0.5818;0.0076;-0.0414;-0.0163
0000063598;5.5929;2.9305;0.6488;-0.0023;-0.0393;-0.0188
0000063606;5.7485;3.0550;0.6321;0.0071;-0.0417;-0.0237
0000063614;5.7006;2.8970;0.5986;0.0083;-0.0396;-0.0250
0000063622;5.7221;2.8611;0.7278;0.0115;-0.0392;-0.0226
0000063630;5.6096;2.8371;0.7590;0.0167;-0.0412;-0.0288
0000063638;5.7892;2.8874;0.7614;0.0175;-0.0333;-0.0232
0000063646;5.7221;2.8443;0.7805;0.0224;-0.0365;-0.0215
0000063654;5.7269;2.9233;0.7733;0.0224;-0.0352;-0.0204
0000063662;5.5498;2.9042;0.5578;0.0296;-0.0393;-0.0249
0000063670;5.5402;2.7605;0.6632;0.0358;-0.0389;-0.0212
0000063678;5.5210;2.8371;0.6081;0.0310;-0.0358;-0.0199
0000063686;5.5976;2.8419;0.5794;0.0313;-0.0453;-0.0248
0000063694;5.7102;2.8898;0.6225;0.0296;-0.0402;-0.0200
0000063702;5.7102;3.0095;0.5770;0.0262;-0.0358;-0.0169
0000063710;5.6312;3.0574;0.5171;0.0261;-0.0344;-0.0157
0000063718;5.8993;3.2154;0.4573;0.0289;-0.0370;-0.0236
0000063726;5.7389;2.9664;0.5076;0.0224;-0.0301;-0.0179
0000063734;5.6934;3.0239;0.4501;0.0216;-0.0362;-0.0215
0000063742;5.6455;3.0191;0.5195;0.0108;-0.0256;-0.0157
0000063750;5.7365;3.0143;0.3831;0.0015;-0.0284;-0.0115
0000063758;5.6743;2.9808;0.5076;-0.0060;-0.0338;-0.0165
0000063766;5.6455;2.8754;0.4357;-0.0132;-0.0310;-0.0167
0000063774;5.8466;3.0239;0.4956;-0.0173;-0.0385;-0.0224
0000063782;5.5593;2.8156;0.4741;-0.0199;-0.0401;-0.0196
