time;acc_x;acc_y;acc_z;gyro_x;gyro_y;gyro_z
0000146912;5.5665;1.8196;4.0318;-0.0706;0.0140;-0.1439
0000146920;5.8131;1.8364;4.0869;-0.0849;-0.0097;-0.1568
0000146927;6.0621;1.7885;4.0534;-0.0930;-0.0197;-0.1677
0000146935;6.6176;2.0949;4.1539;-0.0959;-0.0369;-0.1783
0000146943;6.7205;2.1548;4.2066;-0.1140;-0.0442;-0.1785
0000146951;6.9743;2.2338;4.2856;-0.1336;-0.0536;-0.1729
0000146959;7.4244;2.3607;4.2928;-0.1569;-0.0397;-0.1613
0000146967;7.1850;2.2841;4.2377;-0.1847;-0.0340;-0.1551
0000146975;7.3310;2.0303;4.1707;-0.2026;-0.0241;-0.1503
0000146983;7.3095;1.9609;4.2569;-0.2238;-0.0115;-0.1440
0000146991;7.2042;1.5562;4.2880;-0.2040;-0.0063;-0.1222
0000146999;6.9743;1.2665;4.2928;-0.1787;-0.0059;-0.1078
0000147007;6.6583;0.7997;4.3120;-0.1408;-0.0037;-0.0881
0000147015;6.6846;0.8859;4.3167;-0.1103;0.0009;-0.0654
0000147023;6.5577;1.1013;4.3096;-0.0914;0.0025;-0.0412
0000147031;6.7109;1.3647;4.3048;-0.0785;-0.0088;-0.0302
0000147039;6.5386;1.5155;4.3670;-0.0759;-0.0021;-0.0173
0000147047;6.6008;1.6568;4.3503;-0.0873;-0.0039;-0.0244
0000147055;6.5721;1.7933;4.4365;-0.1062;0.0035;-0.0308
0000147063;6.4284;1.7310;4.4412;-0.1282;0.0100;-0.0400
0000147071;6.4356;1.6664;4.5969;-0.1446;0.0175;-0.0529
0000147079;6.1339;1.5371;4.5753;-0.1532;0.0264;-0.0545
0000147087;6.1531;1.5610;4.6519;-0.1639;0.0197;-0.0533
0000147095;6.0501;1.3910;4.6807;-0.1541;0.0067;-0.0517
0000147103;6.0789;1.5107;4.7980;-0.1440;-0.0103;-0.0384
0000147111;6.1411;1.5347;4.6639;-0.1287;-0.0361;-0.0286
0000147119;5.9735;1.4892;4.5035;-0.1206;-0.0505;-0.0025
0000147127;6.3566;1.6281;4.4125;-0.1271;-0.0702;0.0103
0000147135;6.4931;1.6376;4.3024;-0.1271;-0.0859;0.0161
0000147143;6.6535;1.6352;4.3455;-0.1228;-0.0859;0.0213
0000147151;6.7852;1.6161;4.3694;-0.1147;-0.0873;0.0132
0000147159;6.8474;1.7214;4.4269;-0.1019;-0.0781;0.0064
0000147167;6.6008;1.5562;4.5849;-0.0930;-0.0713;-0.0064
0000147175;6.5027;1.5826;4.4987;-0.0850;-0.0637;-0.0181
0000147183;6.2656;1.4772;4.5226;-0.0795;-0.0624;-0.0352
0000147191;6.3590;1.5275;4.4556;-0.0861;-0.0573;-0.0314
0000147199;6.1579;1.5874;4.4077;-0.0879;-0.0558;-0.0312
0000147207;5.9735;1.7238;4.3766;-0.0858;-0.0646;-0.0329
0000147215;5.9113;1.6759;4.3598;-0.0717;-0.0791;-0.0268
0000147223;5.9256;1.6089;4.3407;-0.0743;-0.0845;-0.0165
0000147231;5.9544;1.6592;4.2401;-0.0695;-0.1019;-0.0143
0000147239;6.1339;1.6137;4.2880;-0.0750;-0.1062;0.0019
0000147247;6.1890;1.6161;4.2713;-0.0765;-0.1175;0.0044
0000147255;6.2680;1.6664;4.3431;-0.0882;-0.1220;0.0028
0000147263;6.2944;1.8747;4.4628;-0.1039;-0.1231;0.0036
0000147271;6.5146;2.0518;4.4508;-0.1088;-0.1208;0.0025
0000147279;6.6367;2.0901;4.2880;-0.1098;-0.1244;-0.0129
0000147287;6.6080;2.0925;4.3287;-0.1111;-0.1077;-0.0116
0000147295;6.5122;2.0375;4.3479;-0.1092;-0.1007;-0.0155
0000147303;6.5314;1.9776;4.2497;-0.1075;-0.0867;-0.0188
0000147311;6.4284;1.9728;4.3024;-0.1091;-0.0707;-0.0119
0000147319;6.2273;1.8387;4.2569;-0.1091;-0.0618;-0.0077
0000147327;6.2130;1.8411;4.2018;-0.1025;-0.0652;0.0009
0000147335;6.0956;1.8603;4.2210;-0.0975;-0.0654;0.0113
0000147343;6.1459;1.8292;4.3263;-0.0799;-0.0849;0.0100
0000147351;6.0238;1.8100;4.3287;-0.0743;-0.0897;0.0115
0000147359;5.9664;1.8244;4.3024;-0.0769;-0.0907;0.0075
0000147367;6.2465;1.8004;4.3048;-0.0786;-0.0935;-0.0045
0000147375;5.8993;1.4461;4.2593;-0.0755;-0.1015;-0.0103
0000147383;6.0741;1.5826;4.3311;-0.0657;-0.1067;-0.0207
0000147391;6.2417;1.6065;4.2689;-0.0655;-0.1069;-0.0256
0000147399;5.8107;1.5036;4.3646;-0.0561;-0.1212;-0.0326
0000147407;6.1004;1.6281;4.4508;-0.0484;-0.1276;-0.0446
0000147415;6.0669;1.4964;4.4604;-0.0449;-0.1320;-0.0445
0000147423;6.0454;1.7142;4.4963;-0.0449;-0.1347;-0.0418
0000147431;5.9256;1.5275;4.4580;-0.0550;-0.1356;-0.0360
0000147439;6.0190;1.6544;4.4484;-0.0600;-0.1391;-0.0334
0000147447;6.0693;1.6688;4.4891;-0.0541;-0.1454;-0.0312
0000147455;6.2920;1.6855;4.3072;-0.0538;-0.1466;-0.0183
0000147463;6.3398;1.6927;4.4628;-0.0412;-0.1503;-0.0173
0000147471;6.3063;1.5419;4.4125;-0.0253;-0.1573;-0.0241
0000147479;6.1651;1.5610;4.4652;-0.0175;-0.1508;-0.0292
0000147506;6.1818;1.5131;4.3598;-0.0049;-0.1363;-0.0233
0000147514;6.2201;1.6424;4.3622;-0.0088;-0.1414;-0.0252
0000147522;6.2082;1.7693;4.5322;-0.0079;-0.1504;-0.0345
0000147530;6.0932;1.8459;4.6160;-0.0113;-0.1593;-0.0377
0000147538;6.0693;1.9680;4.5801;-0.0225;-0.1636;-0.0381
0000147546;5.9520;1.9896;4.5849;-0.0160;-0.1769;-0.0465
0000147554;6.0238;1.8387;4.6208;-0.0305;-0.1811;-0.0461
0000147562;5.9448;1.7526;4.5370;-0.0648;-0.1812;-0.0628
0000147570;6.0382;1.8292;4.7788;-0.0542;-0.1990;-0.0697
0000147578;6.2393;1.6712;4.4005;-0.0536;-0.2013;-0.0723
0000147586;6.0310;1.5730;4.5993;-0.0553;-0.2077;-0.0798
0000147594;6.0765;1.6951;4.5705;-0.0160;-0.2226;-0.0861
0000147602;6.1603;1.6807;4.5298;-0.0119;-0.2326;-0.0857
0000147610;6.2584;1.7861;4.6543;-0.0113;-0.2358;-0.0909
0000147618;6.3063;1.7358;4.7453;-0.0176;-0.2445;-0.0899
0000147626;6.1292;1.8220;4.7357;-0.0304;-0.2378;-0.0925
0000147634;6.1866;1.7119;4.8674;-0.0530;-0.2348;-0.0975
0000147642;6.1986;1.7190;4.8770;-0.0392;-0.2318;-0.1006
0000147650;6.4212;1.8507;4.7860;-0.0466;-0.2225;-0.0946
0000147658;6.2321;1.4844;4.6974;-0.0396;-0.2233;-0.0942
0000147666;6.2800;1.3264;4.7932;-0.0288;-0.2286;-0.0910
0000147674;6.1818;1.2522;4.7166;-0.0228;-0.2304;-0.0817
0000147682;6.2991;1.2163;4.6328;-0.0039;-0.2378;-0.0793
0000147690;6.3135;1.2258;4.6591;0.0077;-0.2429;-0.0811
0000147698;6.2968;1.3503;4.7956;0.0204;-0.2471;-0.0825
0000147706;6.3351;1.4772;4.8507;0.0179;-0.2410;-0.0719
0000147714;6.3183;1.3288;4.9105;0.0262;-0.2421;-0.0746
0000147722;6.2465;1.2091;5.0973;0.0191;-0.2345;-0.0636
0000147730;6.0406;1.1109;4.9560;0.0181;-0.2302;-0.0512
0000147738;6.2345;1.1492;4.9680;0.0192;-0.2320;-0.0490
0000147746;6.2800;1.1037;5.0111;0.0325;-0.2360;-0.0524
0000147754;6.0525;0.9864;4.9416;0.0414;-0.2332;-0.0462
0000147762;6.0478;0.9553;4.9368;0.0550;-0.2426;-0.0500
0000147770;6.2058;1.0678;4.9512;0.0845;-0.2650;-0.0524
0000147778;6.2896;1.1085;4.8914;0.1070;-0.2678;-0.0534
0000147786;6.3063;1.0127;4.7405;0.1286;-0.2553;-0.0518
0000147794;6.2968;1.1875;4.3335;0.1434;-0.2514;-0.0594
0000147802;6.5146;1.3743;4.2425;0.1600;-0.2507;-0.0721
0000147810;6.5817;1.5323;3.9361;0.1516;-0.2415;-0.0861
0000147818;6.6846;1.8244;3.8666;0.1471;-0.2377;-0.0973
0000147826;6.7588;2.2984;3.9265;0.1370;-0.2393;-0.1139
0000147834;6.5146;2.4469;4.0462;0.1194;-0.2401;-0.1266
0000147842;6.4380;2.6456;4.2689;0.0926;-0.2409;-0.1300
0000147850;6.0358;2.5570;4.4460;0.0596;-0.2320;-0.1166
0000147858;5.8873;2.4852;4.7118;0.0388;-0.2417;-0.1088
0000147866;5.9783;2.3822;4.7022;0.0386;-0.2537;-0.0985
0000147874;5.9879;2.1955;4.5993;0.0486;-0.2603;-0.0865
0000147882;5.7964;1.8292;4.6902;0.0753;-0.2701;-0.0922
0000147890;5.9687;1.9154;4.5897;0.1007;-0.2855;-0.0959
0000147898;6.0382;1.7741;4.6352;0.1045;-0.2895;-0.0978
0000147906;6.0669;2.0087;4.6136;0.0995;-0.3000;-0.1047
0000147914;6.2513;2.0686;4.6615;0.0846;-0.3054;-0.1142
0000147922;6.4308;2.1237;4.5466;0.0606;-0.3075;-0.1188
0000147930;6.5888;2.1117;4.5346;0.0348;-0.2974;-0.1179
0000147938;6.5362;1.9154;4.4580;0.0203;-0.2919;-0.1290
0000147946;6.5146;1.8411;4.4460;0.0237;-0.2806;-0.1368
0000147954;6.4859;1.7597;4.4388;0.0208;-0.2587;-0.1382
0000147962;6.7229;1.6137;4.3239;0.0309;-0.2485;-0.1482
0000147970;6.6032;1.5467;4.3431;0.0352;-0.2296;-0.1466
0000147978;6.7253;1.5395;4.3766;0.0416;-0.2141;-0.1412
0000147986;6.4907;1.3527;4.4197;0.0413;-0.2045;-0.1412
0000147994;6.2584;1.2617;4.3694;0.0508;-0.1961;-0.1343
0000148002;6.4811;1.5251;4.3622;0.0441;-0.1819;-0.1162
0000148010;6.2991;1.4988;4.3455;0.0457;-0.1773;-0.0950
0000148018;6.4236;1.6305;4.4365;0.0456;-0.1792;-0.0782
0000148026;6.2560;1.6041;4.4748;0.0489;-0.1784;-0.0608
0000148034;6.4332;1.7813;4.5562;0.0396;-0.1701;-0.0454
0000148042;6.5769;1.7957;4.5250;0.0364;-0.1547;-0.0324
0000148050;6.6822;1.7262;4.4556;0.0398;-0.1411;-0.0368
0000148058;6.8738;1.7358;4.4245;0.0532;-0.1264;-0.0417
0000148066;6.7516;1.5706;4.3694;0.0578;-0.1092;-0.0354
0000148074;6.7564;1.5203;4.3000;0.0679;-0.0923;-0.0260
0000148082;6.6272;1.2809;4.2473;0.0722;-0.0741;-0.0200
0000148165;6.0214;1.8651;4.2593;0.0778;-0.0560;-0.0544
0000148173;6.1316;1.8292;4.2808;0.0763;-0.0582;-0.0711
0000148181;6.2153;1.7765;4.3790;0.0841;-0.0562;-0.0777
0000148189;6.3015;1.9178;4.3407;0.0785;-0.0526;-0.0671
0000148197;6.2345;1.9465;4.3215;0.0675;-0.0438;-0.0622
0000148205;6.3949;1.9704;4.1659;0.0638;-0.0457;-0.0609
0000148213;6.4380;2.1668;3.9696;0.0348;-0.0370;-0.0422
0000148221;6.5505;2.2625;3.9169;0.0147;-0.0305;-0.0212
0000148229;6.2273;2.1476;3.8882;0.0043;-0.0370;-0.0037
0000148237;6.1339;2.1093;3.9744;-0.0015;-0.0398;0.0205
0000148245;6.0310;2.0063;3.9456;-0.0043;-0.0358;0.0356
0000148253;5.8826;1.8100;4.0821;0.0059;-0.0422;0.0473
0000148261;5.9137;1.8124;3.9337;0.0234;-0.0569;0.0432
0000148269;5.9975;1.7454;4.1108;0.0401;-0.0638;0.0345
0000148277;6.2920;1.9154;4.1156;0.0412;-0.0665;0.0252
0000148285;6.4596;1.9489;4.0318;0.0550;-0.0755;0.0020
0000148293;6.6726;2.0470;3.9840;0.0561;-0.0779;-0.0099
0000148301;6.4524;1.7430;4.0007;0.0481;-0.0655;-0.0292
0000148309;6.4643;1.7813;4.0893;0.0438;-0.0609;-0.0441
0000148317;6.7014;1.8747;4.0677;0.0372;-0.0557;-0.0642
0000148325;6.6511;1.8890;4.1180;0.0425;-0.0530;-0.0782
0000148333;6.6367;1.8842;4.0175;0.0353;-0.0441;-0.0851
0000148341;6.4811;1.8890;4.0151;0.0418;-0.0345;-0.0751
0000148349;6.3734;1.9465;3.8379;0.0528;-0.0382;-0.0778
0000148357;6.2297;1.9154;3.8714;0.0653;-0.0436;-0.0614
0000148365;6.2010;2.0183;3.8714;0.0706;-0.0397;-0.0436
0000148373;6.2848;2.0351;3.8283;0.0755;-0.0381;-0.0337
0000148381;6.3398;2.1715;3.9241;0.0834;-0.0421;-0.0185
0000148389;6.4069;2.0901;3.9193;0.0798;-0.0342;-0.0032
0000148397;6.5888;2.2482;4.0151;0.0803;-0.0305;-0.0015
0000148405;6.6248;2.3559;4.0270;0.0675;-0.0196;0.0203
0000148413;6.8354;2.3990;3.9337;0.0632;-0.0113;0.0266
0000148421;6.9480;2.2338;3.8690;0.0533;-0.0057;0.0274
0000148429;6.9959;2.1931;3.7158;0.0458;0.0029;0.0212
0000148437;6.7828;1.9824;3.8355;0.0389;0.0199;0.0209
0000148445;6.6918;1.5155;3.8930;0.0390;0.0313;0.0124
0000148453;6.6798;1.3886;4.0773;0.0566;0.0309;-0.0037
0000148461;6.7325;1.3408;4.0917;0.0742;0.0404;-0.0091
0000148469;6.5817;1.2857;4.0989;0.0889;0.0521;-0.0040
0000148477;6.5003;1.4796;4.2306;0.1128;0.0497;0.0017
0000148485;6.5697;1.7693;4.2665;0.1230;0.0597;0.0133
0000148493;6.6032;1.9920;4.2401;0.1260;0.0702;0.0318
0000148501;6.5817;2.1883;4.3215;0.1167;0.0742;0.0440
0000148509;6.7660;2.3703;4.0438;0.0934;0.0806;0.0522
0000148517;6.8714;2.1308;3.9193;0.0657;0.0937;0.0674
0000148525;6.7086;1.7765;3.9145;0.0372;0.1171;0.0802
0000148533;6.7708;1.5131;4.0199;0.0342;0.1247;0.0775
0000148541;6.9264;1.4150;3.9887;0.0432;0.1407;0.0930
0000148549;6.8761;1.1277;4.1851;0.0690;0.1491;0.1065
0000148557;6.6822;0.9505;4.2329;0.1047;0.1480;0.1126
0000148565;6.4069;0.9122;4.2090;0.1507;0.1407;0.1111
0000148573;6.2920;1.2378;4.1970;0.1796;0.1286;0.1100
0000148581;6.2991;1.4006;4.0366;0.2004;0.1263;0.1057
0000148589;6.3470;1.6328;4.0558;0.1989;0.1354;0.0974
0000148597;6.6056;1.8818;3.8355;0.1871;0.1379;0.0739
0000148605;6.7325;1.9178;3.8571;0.1760;0.1498;0.0528
0000148613;6.8043;1.8818;3.7613;0.1584;0.1564;0.0432
0000148621;6.9049;1.7478;3.8475;0.1592;0.1576;0.0262
0000148629;6.7947;1.4581;3.9672;0.1705;0.1540;0.0100
0000148637;6.5841;1.3671;4.1611;0.1966;0.1540;-0.0035
0000148645;6.4643;1.2617;4.2018;0.2105;0.1673;-0.0103
0000148653;6.4572;1.2689;4.3167;0.2258;0.1644;-0.0103
0000148661;6.2417;1.2665;4.5657;0.2245;0.1660;0.0101
0000148669;6.3231;1.5754;4.6112;0.2213;0.1567;0.0220
0000148677;6.3638;1.6448;4.5705;0.1960;0.1573;0.0497
0000148685;6.4212;1.9034;4.4484;0.1791;0.1548;0.0790
0000148693;6.3758;1.6209;4.2066;0.1784;0.1657;0.1115
0000148701;6.6008;1.1923;3.8882;0.1989;0.1801;0.1531
0000148709;6.9001;0.8188;3.8714;0.2435;0.1829;0.1908
0000148717;7.1635;0.4597;3.9456;0.3016;0.2025;0.2429
0000148725;7.2257;0.2035;3.9600;0.3667;0.2062;0.2946
0000148733;7.3957;0.1987;3.9337;0.4369;0.2072;0.3465
0000148741;7.3095;0.5459;4.1180;0.4883;0.2185;0.3889
0000148749;7.3287;1.0654;4.2856;0.4982;0.2308;0.4270
0000148832;6.3446;0.0239;3.2417;0.1966;-0.0706;0.2695
0000148840;7.3957;0.3663;3.1819;0.1815;-0.0506;0.1057
0000148848;8.0469;0.9840;3.4189;0.1138;-0.0077;-0.0745
0000148856;8.4994;1.6927;3.7134;0.0550;0.0442;-0.2369
0000148864;8.6407;2.2505;3.7445;-0.0769;0.1283;-0.3344
0000148872;8.3127;2.5187;3.9289;-0.2374;0.1985;-0.3500
0000148880;7.9320;2.5450;4.0510;-0.4207;0.2491;-0.2814
0000148888;7.0390;2.3774;3.9409;-0.5800;0.2690;-0.1148
0000148896;6.2297;1.7023;3.7206;-0.7298;0.2613;0.1382
0000148904;5.4947;0.9888;3.7086;-0.8294;0.2205;0.4399
0000148912;4.8459;0.1508;3.9121;-0.8596;0.1777;0.7296
0000148920;4.5801;-0.6656;3.8403;-0.8383;0.1332;0.9661
0000148928;4.9105;-1.1253;3.6703;-0.7921;0.0829;1.1457
0000148936;4.8028;-1.9561;3.4716;-0.7216;0.0581;1.2333
0000148944;4.9105;-2.5426;3.4285;-0.6332;0.0766;1.2485
0000148952;5.3678;-2.5881;3.0406;-0.5396;0.1272;1.2141
0000148960;5.4348;-2.9904;2.4636;-0.4815;0.1984;1.1635
0000148968;5.7652;-3.1436;2.3224;-0.4810;0.2539;1.1001
0000148976;5.8945;-3.3926;2.4948;-0.5317;0.2786;1.0521
0000148984;5.8227;-3.7613;2.7557;-0.5798;0.2778;1.0257
0000148992;5.6431;-3.8666;2.6911;-0.6145;0.2687;1.0140
0000149000;4.9847;-3.6105;2.1644;-0.6177;0.2770;1.0004
0000149008;4.3670;-2.5929;1.5921;-0.6142;0.2960;0.9707
0000149016;3.9959;-1.8699;1.3527;-0.5931;0.2935;0.8731
0000149024;4.0031;-1.0989;1.3024;-0.5776;0.3301;0.7242
0000149032;4.2449;-0.1556;0.7853;-0.5910;0.3661;0.5275
0000149040;4.1779;0.1413;0.2969;-0.6999;0.4048;0.3092
0000149048;4.3024;0.5315;-0.0215;-0.9194;0.4173;0.0847
0000149056;3.7565;0.4980;0.7207;-1.1679;0.3604;-0.1199
0000149064;3.4309;0.3160;1.1133;-1.3984;0.2246;-0.2876
0000149072;2.7653;-0.0287;1.5874;-1.5791;0.0215;-0.4406
0000149080;2.4541;-0.5578;1.6376;-1.6828;-0.2022;-0.5845
0000149088;2.2362;-1.3216;1.5682;-1.7277;-0.4106;-0.7630
0000149096;2.9233;-2.2458;1.2977;-1.7547;-0.4940;-0.9681
0000149104;3.4477;-3.2801;1.0295;-1.7536;-0.5023;-1.2308
0000149112;4.0558;-3.7972;0.7470;-1.6922;-0.4325;-1.4396
0000149120;4.5753;-4.5179;0.9936;-1.5636;-0.3435;-1.6046
0000149128;5.7652;-5.3032;1.3384;-1.3780;-0.2547;-1.6799
0000149136;6.8929;-6.4955;2.2410;-1.1497;-0.1336;-1.6042
0000149144;8.2552;-7.4029;2.7461;-0.9341;-0.0201;-1.4894
0000149152;9.7109;-7.5705;2.7964;-0.7354;0.0312;-1.3105
0000149160;10.5034;-6.6702;3.5338;-0.4664;0.0129;-1.0800
0000149168;10.6686;-4.9368;4.4173;-0.0942;0.0124;-0.7389
0000149176;10.2352;-3.3974;6.0669;0.2200;0.0416;-0.3809
0000149184;9.3925;-1.3216;7.5824;0.3878;0.0757;-0.1025
0000149192;8.4396;0.9313;8.1547;0.3601;0.1599;0.0819
0000149200;8.5473;2.9305;7.6351;0.0961;0.3212;0.0859
0000149208;8.7053;3.9744;5.3678;-0.3304;0.5352;-0.0538
0000149216;8.8131;2.3966;3.4477;-0.8228;0.7336;-0.2004
0000149224;8.5186;-0.5770;4.1228;-1.1359;0.8001;-0.2206
0000149232;7.3574;-3.4285;4.7381;-1.1887;0.7116;-0.1340
0000149240;5.6910;-6.1555;6.2393;-0.9093;0.4799;0.0125
0000149248;3.9097;-8.2361;7.9895;-0.3159;0.0773;0.2342
0000149256;0.0144;-9.3853;10.4028;0.5505;-0.4483;0.5844
0000149264;-3.5410;-8.0086;9.3446;1.3979;-0.9595;0.9313
0000149272;-5.4851;-5.2648;8.2528;1.7636;-1.3179;1.1433
0000149280;-3.2992;-1.4940;9.6127;1.8988;-1.6080;1.1142
0000149288;2.2242;2.6863;10.3430;1.9049;-1.7191;0.9292
0000149296;8.1666;5.5785;9.8809;1.6944;-1.5367;0.6825
0000149304;13.5655;5.6072;8.4874;1.1931;-1.2513;0.3762
0000149312;15.8568;3.5195;8.6407;0.6993;-0.9462;0.1499
0000149320;15.2319;0.3184;8.8107;0.4096;-0.7096;0.0300
0000149328;13.3501;-2.4636;8.0972;0.3399;-0.5914;-0.0191
0000149336;10.0963;-4.9153;7.1323;0.5088;-0.5982;-0.0791
0000149344;6.4356;-6.3279;6.7516;0.9097;-0.7266;-0.0540
0000149352;2.5163;-6.5170;6.3853;1.4715;-0.8855;0.0797
0000149360;-2.0686;-5.2122;7.6327;2.1639;-1.1385;0.4279
0000149368;-2.6264;-2.8587;7.7428;2.6588;-1.4603;0.8059
0000149376;1.1181;1.4174;7.2425;2.8056;-1.6338;0.8823
0000149384;9.0788;10.6542;4.3790;2.2465;-1.6673;0.6422
0000149392;11.0564;9.1459;5.0637;1.2629;-1.5398;0.4132
0000149400;13.0676;5.9664;9.9383;1.2301;-1.5663;0.2398
0000149408;16.7379;5.5881;24.6100;2.1685;-1.3311;0.0008
0000149492;17.6477;8.1762;-5.4324;2.6092;-0.3543;0.2385
0000149500;14.6022;9.5672;-4.3096;1.9339;-0.3268;-0.2116
0000149508;11.6143;7.5489;-2.9449;1.5540;-0.3628;-0.4614
0000149516;8.7412;5.3798;-1.9896;1.2502;-0.3453;-0.6579
0000149524;6.0118;2.2075;-0.9792;1.0204;-0.3135;-0.8416
0000149532;4.8578;-1.1085;-0.3759;0.8739;-0.2811;-0.9526
0000149540;4.5298;-3.4141;0.0072;0.8588;-0.2531;-0.9946
0000149548;4.1228;-3.6009;0.4262;0.8436;-0.2072;-0.9397
0000149556;4.2808;-3.2561;1.0558;0.6452;-0.2454;-0.8407
0000149564;3.8523;-1.5682;0.9266;0.5203;-0.3476;-0.7825
0000149572;5.5354;1.2163;0.1173;0.4135;-0.3873;-0.7017
0000149580;7.2520;2.4445;-1.2809;0.1785;-0.2936;-0.6376
0000149588;8.0182;2.0853;-1.7765;-0.1146;-0.1731;-0.6123
0000149596;8.2624;0.7733;-2.3487;-0.4098;-0.0727;-0.6259
0000149604;9.4044;-0.0958;-2.4469;-0.6406;-0.0147;-0.6839
0000149612;10.1107;-0.6895;-2.8539;-0.8188;0.0546;-0.7895
0000149620;10.5010;-0.5076;-3.7876;-0.9719;0.1507;-0.8720
0000149628;9.8186;0.0982;-4.8650;-1.0866;0.2057;-0.8912
0000149636;9.1051;0.7997;-5.1715;-1.0750;0.2112;-0.8803
0000149644;7.3406;2.5283;-5.2122;-0.8993;0.1592;-0.8299
0000149652;6.4763;2.3679;-6.1363;-0.7157;0.1073;-0.6941
0000149660;5.8466;2.8898;-4.2617;-0.4840;0.0163;-0.5368
0000149668;6.2680;4.6040;-4.5059;-0.1264;-0.0277;-0.3405
0000149676;6.8426;5.5138;-5.7054;0.1057;-0.0766;-0.1747
0000149684;7.5106;5.7916;-6.5745;0.3118;-0.1102;-0.0773
0000149692;8.2839;6.3710;-8.2911;0.4018;-0.1085;-0.0536
0000149700;8.5186;8.2504;-6.5194;0.3728;-0.1074;-0.0789
0000149708;8.4587;8.3270;-4.5825;0.2855;-0.0585;-0.2117
0000149716;8.1211;6.7828;-4.6639;0.1784;0.0284;-0.3417
0000149724;7.5417;4.8243;-3.1867;0.0970;0.1451;-0.3932
0000149732;6.5888;4.6591;-2.0063;0.0482;0.3098;-0.3818
0000149740;6.3829;4.2617;-1.9728;0.0113;0.4908;-0.3584
0000149748;7.1898;3.3255;-1.6783;-0.0659;0.6243;-0.2899
0000149756;7.9033;3.9217;-1.6879;-0.0544;0.7612;-0.3164
0000149764;7.3981;2.7174;-0.4310;-0.0441;0.8463;-0.3096
0000149772;7.6399;2.5809;-1.0774;-0.0526;0.8953;-0.3509
0000149780;6.2896;2.4660;0.0622;-0.0565;0.8480;-0.3397
0000149788;5.2720;2.8850;0.5938;-0.0421;0.7390;-0.3016
0000149796;3.8331;2.0279;0.0694;-0.0783;0.5875;-0.2550
0000149804;3.1699;1.6520;1.9321;-0.1300;0.3726;-0.2265
0000149812;2.8323;1.5538;2.6528;-0.1366;0.1863;-0.1631
0000149820;3.6655;1.5778;2.1979;-0.1280;0.0468;-0.1098
0000149828;4.3862;2.1069;2.7438;-0.0821;-0.0548;-0.0674
0000149836;4.9368;2.1045;2.7605;-0.0211;-0.1054;-0.0390
0000149844;5.6982;1.7406;2.2553;0.0560;-0.1116;-0.0011
0000149852;6.1483;2.4804;2.0614;0.1847;-0.1147;0.0215
0000149860;6.8618;2.2601;2.1548;0.2693;-0.1107;0.0309
0000149868;7.6662;2.4972;1.1971;0.3601;-0.1033;0.0261
0000149876;8.4204;2.9736;0.7470;0.4261;-0.0998;0.0085
0000149884;8.4443;2.6217;0.5076;0.4442;-0.0797;-0.0211
0000149892;8.2456;2.9856;0.2993;0.4659;-0.0630;-0.0478
0000149900;7.9990;3.4477;-0.1652;0.4626;-0.0600;-0.0529
0000149908;8.1906;3.7709;-0.5770;0.4359;-0.0589;-0.0589
0000149916;8.0349;3.5865;-0.8140;0.3917;-0.0541;-0.0737
0000149924;7.6686;3.5937;-1.0918;0.3369;-0.0584;-0.0991
0000149932;7.3095;3.4692;-1.2857;0.2843;-0.0636;-0.1202
0000149940;6.9839;3.4812;-1.5347;0.2182;-0.0654;-0.1326
0000149948;6.7253;3.3878;-1.6592;0.1572;-0.0742;-0.1350
0000149956;6.4667;3.2178;-1.6185;0.0913;-0.0777;-0.1206
0000149964;6.1483;3.1460;-1.6831;0.0131;-0.0911;-0.1054
0000149972;6.0765;3.1963;-1.5036;-0.0506;-0.1252;-0.0889
0000149980;6.3805;3.0167;-1.4078;-0.1142;-0.1443;-0.0758
0000149988;6.6463;3.2178;-1.1803;-0.1747;-0.1684;-0.0739
0000149996;6.7852;3.2441;-1.1109;-0.2173;-0.2020;-0.0859
0000150004;6.6008;2.9832;-0.9697;-0.2667;-0.2188;-0.0866
0000150012;6.6080;3.2250;-0.5746;-0.2958;-0.2470;-0.1035
0000150020;7.4220;4.0103;-1.2857;-0.2578;-0.2793;-0.1506
0000150028;6.4021;2.6480;-0.6393;-0.2770;-0.2959;-0.1875
0000150036;6.3111;2.3511;-0.6752;-0.3072;-0.3206;-0.1912
0000150044;6.3494;2.6791;-0.2035;-0.3143;-0.3379;-0.2124
0000150052;6.3039;2.4397;-0.1748;-0.3116;-0.3320;-0.2270
0000150060;6.4715;2.8467;0.1748;-0.2713;-0.3285;-0.2546
0000150143;7.3789;3.4165;-0.3615;-0.2010;-0.3837;-0.4635
0000150151;7.2927;3.5267;-0.2466;-0.2120;-0.3778;-0.4842
0000150159;7.2329;3.5075;-0.2394;-0.2261;-0.3734;-0.5083
0000150167;6.8929;3.4477;-0.2849;-0.2426;-0.3713;-0.5247
0000150175;6.7325;3.4213;-0.3376;-0.2541;-0.3693;-0.5453
0000150183;6.7062;3.3686;-0.3567;-0.2634;-0.3551;-0.5486
0000150191;6.5074;3.2777;-0.3519;-0.2866;-0.3265;-0.5472
0000150199;6.3446;3.2322;-0.3065;-0.3012;-0.2964;-0.5468
0000150207;6.1220;3.1053;-0.3352;-0.3126;-0.2719;-0.5561
0000150215;6.2201;3.0526;-0.1867;-0.3240;-0.2471;-0.5561
0000150223;5.9783;2.9377;-0.0335;-0.3347;-0.2164;-0.5521
0000150231;6.0382;2.8659;0.0934;-0.3404;-0.1884;-0.5546
0000150239;5.9855;2.7773;0.1125;-0.3404;-0.1663;-0.5604
0000150247;5.8012;2.7270;0.1939;-0.3493;-0.1467;-0.5550
0000150255;5.4516;2.6169;0.2155;-0.3595;-0.1476;-0.5581
0000150263;5.5115;2.6863;0.3304;-0.3632;-0.1515;-0.5488
0000150271;5.2720;2.7677;0.3089;-0.3679;-0.1576;-0.5355
0000150279;5.0805;2.5570;0.4214;-0.3712;-0.1640;-0.5131
0000150287;4.9728;2.6504;0.3974;-0.3744;-0.1784;-0.4883
0000150295;5.0159;2.9281;0.3783;-0.3894;-0.1763;-0.4572
0000150303;5.1356;2.8970;0.4764;-0.4090;-0.1743;-0.4309
0000150311;5.1212;2.8754;0.5578;-0.4174;-0.1713;-0.4105
0000150319;5.2050;2.9521;0.3831;-0.4242;-0.1768;-0.3916
0000150327;5.1236;3.0502;0.1556;-0.4503;-0.1685;-0.3738
0000150335;4.9057;3.0813;0.1006;-0.4768;-0.1695;-0.3564
0000150343;4.6759;3.1747;0.3496;-0.5002;-0.1724;-0.3202
0000150351;4.5801;3.2226;0.3136;-0.5084;-0.1985;-0.2966
0000150359;4.6711;3.3830;0.2298;-0.5232;-0.2257;-0.2669
0000150367;4.6256;3.3686;0.1508;-0.5552;-0.2443;-0.2402
0000150375;4.7381;3.3112;0.2825;-0.5753;-0.2581;-0.2202
0000150383;4.7094;3.1340;0.3807;-0.5945;-0.2558;-0.1844
0000150391;4.7309;3.1436;0.4764;-0.6139;-0.2523;-0.1504
0000150399;4.8291;3.1268;0.4238;-0.6319;-0.2566;-0.1188
0000150407;4.8794;3.0813;0.3065;-0.6563;-0.2446;-0.0997
0000150415;4.9799;3.1196;0.3831;-0.6863;-0.2288;-0.0717
0000150423;4.7812;3.0358;0.6967;-0.7045;-0.2213;-0.0562
0000150431;4.8052;2.9880;0.6991;-0.7041;-0.2233;-0.0362
0000150439;4.6280;2.9712;0.6656;-0.7218;-0.2025;-0.0096
0000150447;4.8291;2.8611;0.7494;-0.7404;-0.1919;0.0107
0000150455;4.7740;2.7222;0.9170;-0.7560;-0.1820;0.0270
0000150463;4.9129;2.8371;1.0534;-0.7634;-0.1633;0.0448
0000150471;4.9273;2.5857;1.1013;-0.7866;-0.1416;0.0513
0000150479;5.2768;2.8706;1.1779;-0.8078;-0.1107;0.0629
0000150487;5.2361;2.7007;1.3072;-0.8308;-0.0735;0.0718
0000150495;5.2840;2.4876;1.3096;-0.8531;-0.0488;0.0759
0000150503;5.5354;2.6217;1.3479;-0.8761;-0.0080;0.0805
0000150511;5.3774;2.6528;1.4150;-0.9029;0.0242;0.0835
0000150519;5.3439;2.6384;1.3862;-0.9208;0.0592;0.0869
0000150527;5.0350;2.6193;1.7047;-0.9288;0.0584;0.0871
0000150535;4.9728;2.6911;1.8316;-0.9112;0.0472;0.0942
0000150543;5.0015;2.6240;1.8914;-0.8907;0.0362;0.1030
0000150551;5.1571;2.7485;2.1261;-0.8723;0.0258;0.1135
0000150559;5.1499;2.6288;2.2889;-0.8512;0.0232;0.1266
0000150567;5.2577;2.5546;2.3774;-0.8279;0.0249;0.1360
0000150575;5.1619;2.4780;2.3631;-0.8128;0.0344;0.1431
0000150583;5.2361;2.4565;2.6240;-0.7949;0.0358;0.1474
0000150591;5.2481;2.2410;2.5738;-0.7666;0.0446;0.1615
0000150599;5.2026;2.0782;2.6097;-0.7516;0.0502;0.1763
0000150607;5.4253;2.1308;2.4565;-0.7384;0.0654;0.1935
0000150615;5.2816;2.0806;2.8276;-0.7190;0.0722;0.2081
0000150623;5.2457;1.8004;2.8587;-0.6999;0.0793;0.2134
0000150631;5.4013;1.9201;3.1077;-0.6732;0.0869;0.2214
0000150639;5.6336;1.9776;3.2465;-0.6418;0.0886;0.2262
0000150647;5.4899;1.9465;3.3782;-0.6227;0.0955;0.2372
0000150655;5.3223;1.7597;3.3710;-0.6029;0.1005;0.2478
0000150663;5.5545;1.9130;3.4884;-0.5620;0.0817;0.2439
0000150671;5.4540;1.8124;3.7254;-0.5295;0.0709;0.2513
0000150679;5.3846;1.8411;3.6847;-0.4911;0.0481;0.2485
0000150687;5.7054;1.8268;3.4429;-0.4299;0.0317;0.2397
0000150695;5.3223;1.6376;3.7637;-0.3921;-0.0023;0.2336
0000150703;5.5043;1.9656;3.8116;-0.3600;-0.0167;0.2278
0000150711;5.6336;1.7765;3.6679;-0.3289;-0.0221;0.2202
0000150719;5.6599;1.8364;3.7924;-0.2948;-0.0329;0.2134
0000150804;6.0430;2.1380;3.4907;-0.0245;-0.0318;0.0893
0000150812;6.0166;2.0231;3.5027;0.0033;-0.0234;0.0890
0000150820;6.0094;1.9968;3.5027;0.0111;-0.0165;0.0901
0000150828;6.0047;1.8627;3.4022;0.0260;-0.0164;0.0917
0000150836;6.0885;1.8675;3.3040;0.0373;-0.0209;0.0973
0000150844;6.3470;2.0542;3.2681;0.0350;-0.0205;0.1035
0000150852;6.1387;1.9656;3.2465;0.0457;-0.0270;0.0958
0000150860;6.0142;2.0399;3.1915;0.0449;-0.0185;0.0834
0000150868;5.9903;1.9537;3.1987;0.0444;-0.0096;0.0762
0000150876;5.9520;2.0470;3.1101;0.0437;-0.0012;0.0628
0000150884;6.0573;2.1668;3.1388;0.0488;-0.0072;0.0542
0000150892;5.8706;2.2122;3.2561;0.0510;-0.0095;0.0514
0000150900;5.9065;2.2410;3.1603;0.0553;-0.0045;0.0545
0000150908;5.8155;2.2075;3.1771;0.0570;-0.0092;0.0536
0000150916;5.7628;2.1380;3.1364;0.0698;-0.0144;0.0525
0000150924;5.7988;2.3343;3.1029;0.0669;-0.0200;0.0614
0000150932;5.8849;2.3463;3.1963;0.0650;-0.0325;0.0626
0000150940;5.8802;2.4469;3.0813;0.0675;-0.0426;0.0577
0000150948;6.0094;2.4588;3.0526;0.0709;-0.0560;0.0464
0000150956;5.8131;2.4924;2.9257;0.0683;-0.0618;0.0393
0000150964;5.9304;2.5833;2.8850;0.0566;-0.0625;0.0277
0000150972;5.8012;2.5091;2.9233;0.0484;-0.0735;0.0226
0000150980;5.9711;2.4732;2.9209;0.0524;-0.0791;0.0057
0000150988;6.1699;2.7150;2.8587;0.0522;-0.0879;-0.0091
0000150996;6.1603;2.6528;2.8587;0.0557;-0.0902;-0.0215
0000151004;5.9256;2.5881;2.8395;0.0416;-0.0870;-0.0196
0000151012;5.8586;2.3679;2.9281;0.0330;-0.0861;-0.0246
0000151020;5.9664;2.4110;2.9305;0.0282;-0.0903;-0.0266
0000151028;6.0023;2.4421;2.8587;0.0216;-0.0907;-0.0274
0000151036;5.9065;2.3655;2.8347;0.0163;-0.0951;-0.0312
0000151044;5.9711;2.4660;2.8012;0.0076;-0.0958;-0.0349
0000151052;5.9161;2.3679;2.7581;-0.0111;-0.0950;-0.0294
0000151060;5.7317;2.3679;2.8132;-0.0261;-0.0998;-0.0218
0000151068;5.6671;2.5019;2.8252;-0.0474;-0.0983;-0.0140
0000151076;5.5881;2.4828;2.9353;-0.0564;-0.1042;-0.0045
0000151084;5.5282;2.4373;3.0813;-0.0542;-0.1131;0.0147
0000151092;5.4971;2.4038;2.9401;-0.0524;-0.1302;0.0325
0000151100;5.5282;2.6312;3.1125;-0.0586;-0.1323;0.0576
0000151108;5.5354;2.5546;2.9951;-0.0601;-0.1322;0.0743
0000151116;5.7557;2.6600;2.9904;-0.0628;-0.1271;0.0889
0000151124;5.8682;2.6600;2.8443;-0.0701;-0.1038;0.1033
0000151132;5.8419;2.5786;2.6049;-0.0877;-0.0803;0.1158
0000151140;5.7916;2.7078;2.5738;-0.1082;-0.0653;0.1324
0000151148;5.6168;2.5426;2.6647;-0.1296;-0.0541;0.1478
0000151156;5.5952;2.6743;2.6983;-0.1585;-0.0614;0.1600
0000151164;5.8466;2.7294;2.7198;-0.1695;-0.0823;0.1684
0000151172;5.7581;2.5402;2.8108;-0.1825;-0.0991;0.1777
0000151180;5.8610;2.7797;2.8970;-0.1911;-0.1142;0.1864
0000151188;5.9041;2.7438;2.8515;-0.1966;-0.1183;0.1860
0000151196;5.9185;2.5857;2.8922;-0.2001;-0.1160;0.1828
0000151204;5.9975;2.5283;2.8778;-0.2106;-0.1078;0.1771
0000151212;6.0837;2.3918;2.9832;-0.2101;-0.1029;0.1664
0000151220;6.0549;2.3990;3.0861;-0.2186;-0.0838;0.1575
0000151228;6.0861;2.3104;3.0358;-0.2261;-0.0693;0.1454
0000151236;6.3566;2.4086;3.0023;-0.2228;-0.0594;0.1335
0000151244;6.0334;2.3343;3.1029;-0.2277;-0.0486;0.1239
0000151252;6.2201;2.3463;3.1987;-0.2216;-0.0433;0.1246
0000151260;6.1627;2.3056;3.2825;-0.2181;-0.0333;0.1307
0000151268;6.3398;2.1739;3.2825;-0.2120;-0.0370;0.1314
0000151276;6.2728;2.3559;3.3327;-0.2081;-0.0318;0.1388
0000151284;6.3542;2.3679;3.2968;-0.2053;-0.0222;0.1478
0000151292;6.3063;2.2075;3.3615;-0.1957;-0.0302;0.1498
0000151300;6.3805;2.3056;3.3926;-0.1964;-0.0169;0.1556
0000151308;6.3782;2.2889;3.4069;-0.2026;-0.0101;0.1677
0000151316;6.2560;2.0758;3.5291;-0.1936;0.0015;0.1741
0000151324;6.3877;2.0231;3.6727;-0.1920;0.0003;0.1797
0000151332;6.4763;2.2817;3.6009;-0.1868;0.0024;0.1845
0000151340;6.5625;2.2793;3.6368;-0.1767;0.0012;0.1741
0000151348;6.4691;2.2098;3.5338;-0.1721;0.0111;0.1797
0000151356;6.4236;2.0853;3.6368;-0.1675;0.0085;0.1796
0000151364;6.2656;2.0087;3.6943;-0.1584;0.0168;0.1759
0000151372;6.3063;1.9704;3.6559;-0.1427;0.0136;0.1699
0000151380;6.4452;1.9920;3.6536;-0.1283;0.0125;0.1569
0000151471;6.6631;2.0758;3.4333;-0.0942;-0.0538;0.0933
0000151479;6.7181;2.0159;3.5338;-0.1018;-0.0410;0.0890
0000151487;6.7157;2.0016;3.4860;-0.1055;-0.0369;0.0797
0000151495;6.8642;2.1668;3.3950;-0.1031;-0.0329;0.0771
0000151503;6.6726;1.9201;3.5267;-0.1085;-0.0218;0.0754
0000151511;6.6535;1.9369;3.5889;-0.1118;-0.0076;0.0810
0000151519;6.7181;2.2170;3.5698;-0.1061;0.0017;0.0765
0000151527;6.5745;2.2482;3.5721;-0.1001;-0.0083;0.0698
0000151535;6.5936;2.2122;3.6559;-0.0931;-0.0149;0.0725
0000151543;6.5338;2.2673;3.5578;-0.0977;-0.0116;0.0770
0000151551;6.6415;2.1356;3.6224;-0.0911;-0.0131;0.0763
0000151559;6.6607;2.2242;3.6583;-0.0857;-0.0171;0.0746
0000151567;6.4548;2.0231;3.5937;-0.0781;-0.0232;0.0659
0000151575;6.5864;2.1308;3.5626;-0.0754;-0.0209;0.0654
0000151583;6.6200;2.1189;3.6009;-0.0723;-0.0175;0.0659
0000151591;6.4931;2.1117;3.6224;-0.0657;-0.0180;0.0602
0000151599;6.5793;2.0111;3.7517;-0.0588;-0.0258;0.0537
0000151607;6.6056;2.0997;3.6871;-0.0537;-0.0268;0.0508
0000151615;6.6104;2.0039;3.6727;-0.0566;-0.0220;0.0468
0000151623;6.5673;1.9609;3.7397;-0.0541;-0.0270;0.0384
0000151631;6.6631;1.9728;3.6847;-0.0448;-0.0309;0.0316
0000151639;6.7205;2.0901;3.7014;-0.0478;-0.0241;0.0329
0000151647;6.5912;2.0423;3.6583;-0.0474;-0.0208;0.0237
0000151655;6.6128;2.1069;3.5027;-0.0496;-0.0165;0.0226
0000151663;6.5529;1.9537;3.6440;-0.0526;-0.0157;0.0187
0000151671;6.6008;2.0087;3.6105;-0.0485;-0.0161;0.0141
0000151679;6.4979;2.1428;3.5937;-0.0490;-0.0148;0.0237
0000151687;6.4643;2.2146;3.5506;-0.0512;-0.0250;0.0244
0000151695;6.3087;2.0255;3.6559;-0.0528;-0.0384;0.0193
0000151703;6.6343;2.1213;3.7038;-0.0512;-0.0406;0.0294
0000151711;6.6319;1.9992;3.7158;-0.0494;-0.0405;0.0320
0000151719;6.6918;1.9345;3.6440;-0.0506;-0.0425;0.0230
0000151727;6.7086;1.9680;3.7613;-0.0470;-0.0416;0.0065
0000151735;6.7133;1.9896;3.6344;-0.0406;-0.0362;-0.0040
0000151743;6.7181;2.0135;3.7397;-0.0461;-0.0265;-0.0072
0000151751;6.7445;2.1284;3.5721;-0.0414;-0.0249;-0.0155
0000151759;6.6918;2.3032;3.5099;-0.0516;-0.0196;-0.0089
0000151767;6.6032;2.1356;3.6392;-0.0616;-0.0189;-0.0044
0000151775;6.6056;2.3176;3.6248;-0.0532;-0.0320;-0.0051
0000151783;6.6631;2.3559;3.7350;-0.0564;-0.0373;0.0040
0000151791;6.6463;2.1715;3.6583;-0.0541;-0.0392;0.0159
0000151799;6.5793;2.1548;3.6775;-0.0496;-0.0441;0.0201
0000151807;6.7014;2.1763;3.6488;-0.0480;-0.0433;0.0163
0000151815;6.8809;2.0279;3.6392;-0.0485;-0.0384;0.0079
0000151823;6.7612;2.0662;3.5913;-0.0492;-0.0300;0.0024
0000151831;6.9121;2.1596;3.5841;-0.0537;-0.0157;-0.0044
0000151839;6.9623;2.2410;3.6129;-0.0545;-0.0141;-0.0113
0000151847;6.7445;2.3056;3.6559;-0.0679;-0.0051;-0.0084
0000151855;6.5817;2.1811;3.6129;-0.0750;-0.0048;-0.0005
0000151863;6.4356;2.3343;3.6416;-0.0791;-0.0095;0.0025
0000151871;6.7804;2.5187;3.6248;-0.0902;-0.0107;0.0113
0000151879;6.6463;2.4517;3.6272;-0.0917;-0.0084;0.0250
0000151887;6.7109;2.3918;3.5985;-0.0955;-0.0097;0.0337
0000151895;6.7469;2.3727;3.6057;-0.0977;-0.0112;0.0361
0000151903;6.7828;2.3367;3.5793;-0.0889;-0.0087;0.0354
0000151911;6.7995;2.2769;3.5554;-0.0882;0.0079;0.0353
0000151919;6.6870;2.0734;3.5386;-0.0897;0.0215;0.0334
0000151928;6.6367;2.1620;3.5434;-0.0939;0.0324;0.0413
0000151937;6.4835;2.0614;3.5745;-0.0993;0.0357;0.0477
0000151946;6.4236;2.1691;3.5698;-0.1053;0.0406;0.0669
0000151955;6.3303;2.1787;3.6536;-0.1140;0.0346;0.0851
0000151964;6.2034;2.0016;3.7589;-0.1078;0.0105;0.0941
0000151973;6.4404;2.1308;3.8044;-0.1123;-0.0044;0.1074
0000151982;6.2704;1.8483;3.9409;-0.1033;-0.0280;0.1144
0000151991;6.5290;1.8962;3.9217;-0.1033;-0.0341;0.1143
0000152000;6.8331;1.8100;3.9816;-0.0939;-0.0512;0.1026
0000152009;6.9216;1.7286;4.0438;-0.0687;-0.0584;0.0850
0000152018;6.9049;1.6759;4.1468;-0.0633;-0.0504;0.0701
0000152027;6.9983;1.7478;4.1180;-0.0494;-0.0516;0.0473
0000152036;6.8546;1.7837;4.2234;-0.0417;-0.0345;0.0436
0000152045;6.8929;1.7909;4.3191;-0.0242;-0.0380;0.0314
0000152054;6.9168;1.6807;4.1420;-0.0133;-0.0332;0.0272
0000152063;6.7516;1.5514;4.0797;0.0064;-0.0248;0.0129
0000152206;6.2369;1.4437;3.7565;-0.0703;0.0169;0.1111
0000152215;6.3207;1.8771;3.8379;-0.0601;-0.0143;0.0807
0000152224;6.5338;2.0782;4.0342;-0.0679;-0.0310;0.0743
0000152233;6.3039;2.0375;3.9073;-0.0673;-0.0540;0.0754
0000152242;6.6080;2.2027;3.9456;-0.0699;-0.0705;0.0898
0000152251;6.5721;1.9465;4.0223;-0.0735;-0.0859;0.1039
0000152260;6.6583;1.9513;4.0845;-0.0633;-0.0922;0.1085
0000152269;6.8283;1.8890;4.1492;-0.0465;-0.0905;0.1112
0000152278;6.9647;1.8938;4.0414;-0.0193;-0.0843;0.0995
0000152287;7.3837;2.0614;4.0773;0.0024;-0.0529;0.0890
0000152296;7.4101;1.9872;3.9911;0.0250;-0.0252;0.0606
0000152305;7.3789;1.9872;3.9696;0.0288;-0.0013;0.0242
0000152314;7.4531;1.9968;3.7733;0.0377;0.0203;-0.0172
0000152323;7.3981;2.1213;3.6966;0.0376;0.0302;-0.0548
0000152332;7.1228;2.0662;3.7613;0.0296;0.0498;-0.0733
0000152341;6.8690;2.1332;3.7972;0.0338;0.0334;-0.0917
0000152350;6.5841;2.1955;3.8259;0.0392;0.0288;-0.0962
0000152359;6.5505;2.4253;3.7613;0.0292;0.0075;-0.0965
0000152368;6.7157;2.3822;3.8427;0.0215;-0.0308;-0.1030
0000152377;6.8235;2.2745;4.0103;0.0179;-0.0416;-0.0935
0000152386;6.7660;1.9249;4.2162;0.0312;-0.0393;-0.1123
0000152395;7.3023;2.1763;4.0654;0.0486;-0.0056;-0.1300
0000152404;7.6974;2.0973;4.0055;0.0384;0.0517;-0.1446
0000152413;7.9799;2.1284;3.7948;0.0139;0.1214;-0.1656
0000152422;8.3414;2.2649;3.8140;-0.0250;0.1828;-0.1764
0000152431;8.2193;2.2362;3.7541;-0.1194;0.2358;-0.1611
0000152440;8.1882;2.3559;3.6895;-0.2222;0.2623;-0.1264
0000152449;7.5202;2.1045;3.5745;-0.2703;0.2459;-0.0887
0000152458;7.0054;2.1213;3.4285;-0.2771;0.2122;-0.0478
0000152467;6.3758;1.8771;3.3710;-0.2441;0.1629;-0.0133
0000152476;5.8993;1.6688;3.3423;-0.1743;0.1013;0.0055
0000152485;5.7078;1.5945;3.4500;-0.0987;0.0604;0.0139
0000152494;5.5689;1.6759;3.4285;-0.0292;0.0187;0.0055
0000152503;5.7221;1.9130;3.4381;0.0180;-0.0107;-0.0168
0000152512;6.0047;2.3008;3.7589;0.0462;-0.0416;-0.0438
0000152521;6.1483;2.0303;3.9433;0.0464;-0.0460;-0.0584
0000152530;6.6894;2.0853;4.1180;0.0536;-0.0452;-0.0685
0000152539;6.8450;1.8675;4.0270;0.0450;-0.0249;-0.0584
0000152548;7.1347;1.7980;3.5578;0.0207;-0.0164;-0.0522
0000152557;7.4723;1.5419;3.8810;0.0119;0.0083;-0.0513
0000152566;7.4244;1.2761;4.1228;0.0402;0.0556;-0.0596
0000152575;7.4747;1.4102;4.0007;0.0787;0.1078;-0.0528
0000152584;7.4220;1.5251;3.9217;0.1147;0.1689;-0.0498
0000152593;7.4053;1.7669;3.9600;0.1579;0.2297;-0.0420
0000152602;7.2018;1.9752;3.9073;0.1853;0.2911;-0.0288
0000152611;6.8378;2.0686;4.1084;0.2016;0.3295;-0.0199
0000152620;6.8235;2.3942;4.0821;0.2086;0.3355;-0.0155
0000152629;6.6080;2.2697;4.3263;0.2170;0.3254;-0.0079
0000152636;6.1842;2.4828;4.4149;0.2017;0.3118;0.0133
0000152644;5.7964;2.3439;4.3479;0.1672;0.2825;0.0382
0000152652;5.5929;2.3128;4.5083;0.1448;0.2579;0.0737
0000152660;5.5545;2.0590;4.6783;0.1516;0.2374;0.1107
0000152668;5.3606;1.9034;4.5107;0.1591;0.2277;0.1729
0000152676;5.1858;1.8028;4.3814;0.1552;0.2201;0.2282
0000152684;5.5881;1.8962;4.3096;0.1555;0.2104;0.2595
0000152692;5.8778;1.5874;4.2449;0.1479;0.1924;0.2811
0000152700;6.0525;1.4437;4.2377;0.1342;0.1804;0.2844
0000152708;5.9903;1.5275;4.2425;0.1128;0.1743;0.2912
0000152716;6.0525;1.4748;4.0845;0.1013;0.1704;0.3027
0000152724;5.8490;1.4676;3.9648;0.0917;0.1816;0.3210
0000152732;5.7796;1.6137;3.8092;0.1180;0.1996;0.3256
0000152740;5.6000;1.8268;3.6847;0.1426;0.2148;0.3372
0000152748;5.5067;1.7861;3.7397;0.1856;0.2254;0.3575
0000152756;5.3486;1.8292;3.6775;0.2312;0.2218;0.3797
0000152764;5.4564;1.9273;3.8092;0.2675;0.2210;0.3989
0000152772;5.5905;2.0303;3.8116;0.2910;0.2194;0.4310
0000152780;5.8634;2.0662;3.7038;0.3128;0.2118;0.4541
0000152788;6.2920;2.1261;3.4812;0.3054;0.2064;0.4662
0000152796;6.5362;1.9824;3.3639;0.3162;0.2080;0.4684
0000152804;6.6918;1.7142;3.4261;0.3203;0.2250;0.4706
0000152812;6.8761;1.6807;3.4309;0.3303;0.2595;0.4770
0000152820;7.1060;1.8675;3.2417;0.3533;0.2947;0.4710
0000152828;7.2353;2.2721;3.1412;0.3643;0.3280;0.4682
0000152836;7.1108;2.3822;3.2274;0.3591;0.3595;0.4746
0000152844;7.3334;2.7366;3.3902;0.3624;0.3860;0.4891
