time;acc_x;acc_y;acc_z;gyro_x;gyro_y;gyro_z
0000066885;6.1004;1.6999;4.7453;-0.0659;0.2200;0.1034
0000066893;6.0238;1.7119;4.7812;-0.0891;0.1937;0.0795
0000066900;5.9903;1.4365;4.7309;-0.0846;0.1635;0.0637
0000066908;5.9951;1.5395;4.7309;-0.0806;0.1404;0.0518
0000066975;6.4572;1.2929;4.1635;0.0861;-0.0164;0.0073
0000066983;6.6822;1.4533;4.1084;0.1002;-0.0025;0.0056
0000066991;6.7181;1.4341;4.2473;0.1055;-0.0003;-0.0017
0000067003;6.7109;1.6376;4.2497;0.0855;0.0207;-0.0056
0000067011;6.6631;1.6712;4.5490;0.0707;0.0177;-0.0141
0000067022;6.6990;1.9321;4.6687;0.0278;0.0193;-0.0189
0000067030;6.5841;1.8555;4.8147;-0.0067;0.0057;-0.0272
0000067042;6.3470;1.7526;4.9488;-0.0433;-0.0185;-0.0458
0000067050;6.3470;1.7526;5.0326;-0.0502;-0.0337;-0.0624
0000067058;6.0549;1.5371;5.0637;-0.0520;-0.0520;-0.0810
0000067069;6.0813;1.3336;5.0973;-0.0398;-0.0886;-0.1079
0000067077;5.7269;1.2115;5.0996;-0.0326;-0.1054;-0.1163
0000067089;5.8826;1.4724;5.0829;0.0044;-0.1541;-0.1407
0000067097;5.9328;1.5227;5.0542;0.0123;-0.1801;-0.1547
0000067108;6.0047;1.5706;5.0781;0.0238;-0.2093;-0.1571
0000067116;5.9017;1.5802;5.0111;0.0309;-0.2198;-0.1504
0000067128;6.2728;1.5419;4.9584;0.0512;-0.2457;-0.1475
0000067136;6.4787;1.5730;4.8267;0.0710;-0.2559;-0.1390
0000067144;6.4811;1.4940;4.6543;0.0830;-0.2537;-0.1356
0000067155;6.8091;1.5347;4.6017;0.1051;-0.2497;-0.1255
0000067163;6.9001;1.6424;4.5633;0.1175;-0.2342;-0.1111
0000067175;6.8067;1.4964;4.3670;0.1347;-0.2173;-0.1039
0000067183;6.8067;1.5060;4.4149;0.1464;-0.2056;-0.1066
0000067250;6.6152;2.1715;4.3383;0.1259;-0.1074;-0.0606
0000067258;6.4931;2.1021;4.4077;0.0974;-0.1022;-0.0516
0000067270;6.2537;2.1955;4.5274;0.0669;-0.0966;-0.0420
0000067278;6.1938;2.1620;4.3958;0.0446;-0.0983;-0.0368
0000067286;6.1962;2.2362;4.4819;0.0306;-0.1062;-0.0310
0000067297;6.2010;2.1787;4.4317;-0.0011;-0.1092;-0.0216
0000067305;6.3877;2.3200;4.4388;-0.0145;-0.1146;-0.0191
0000067317;6.3542;2.1069;4.4604;-0.0304;-0.1190;-0.0221
0000067325;6.5841;2.2529;4.4197;-0.0353;-0.1263;-0.0321
0000067336;6.6439;2.2242;4.3167;-0.0536;-0.1146;-0.0300
0000067344;6.5793;2.1069;4.3311;-0.0699;-0.1156;-0.0397
0000067352;6.6655;2.2075;4.4125;-0.0875;-0.1124;-0.0378
0000067364;6.4931;2.0758;4.4077;-0.1053;-0.1147;-0.0476
0000067372;6.5745;2.1835;4.3814;-0.1226;-0.1126;-0.0469
0000067383;6.5457;2.0423;4.4005;-0.1380;-0.1206;-0.0598
0000067391;6.4117;2.0423;4.5226;-0.1547;-0.1194;-0.0648
0000067403;6.6128;1.9968;4.4628;-0.1600;-0.1292;-0.0723
0000067411;6.4835;1.9297;4.4341;-0.1663;-0.1319;-0.0738
0000067422;6.3542;1.7047;4.3718;-0.1655;-0.1387;-0.0810
0000067430;6.4117;1.8387;4.3024;-0.1660;-0.1320;-0.0759
0000067442;6.4548;1.5706;4.4077;-0.1615;-0.1255;-0.0734
0000067450;6.4452;1.6328;4.3718;-0.1535;-0.1271;-0.0685
0000067458;6.4069;1.3671;4.2760;-0.1390;-0.1215;-0.0610
0000067525;6.3877;1.3862;4.3455;0.0882;-0.1354;-0.0694
0000067533;6.2584;1.3288;4.3215;0.1227;-0.1363;-0.0742
0000067545;6.3949;1.4605;4.3455;0.1613;-0.1271;-0.0726
0000067553;6.4739;1.5347;4.2593;0.1820;-0.1260;-0.0737
0000067564;6.5218;1.7454;4.2952;0.1966;-0.1171;-0.0770
0000067572;6.6104;1.7430;4.3622;0.1943;-0.1079;-0.0762
0000067580;6.6008;1.8316;4.3191;0.2006;-0.1075;-0.0829
0000067592;6.5697;2.2505;4.3383;0.1708;-0.0874;-0.0831
0000067600;6.6008;2.2290;4.3646;0.1420;-0.0786;-0.0861
0000067611;6.4620;2.3080;4.4149;0.0937;-0.0710;-0.0819
0000067619;6.5481;2.2936;4.3503;0.0598;-0.0673;-0.0695
0000067631;6.3518;2.2194;4.3263;0.0314;-0.0710;-0.0628
0000067639;6.2608;2.0087;4.1228;0.0215;-0.0861;-0.0609
0000067650;6.3159;2.0662;4.1084;0.0123;-0.1039;-0.0510
0000067658;6.2393;2.2601;4.0941;0.0020;-0.1104;-0.0458
0000067666;6.1723;2.3463;4.1875;-0.0080;-0.1363;-0.0506
0000067678;6.1172;2.4373;4.0869;-0.0305;-0.1596;-0.0552
0000067686;6.2704;2.4636;4.1827;-0.0440;-0.1775;-0.0634
0000067697;6.0741;2.2242;4.1755;-0.0675;-0.1986;-0.0641
0000067705;6.2153;2.1332;4.2832;-0.0783;-0.2128;-0.0742
0000067717;6.2225;2.0686;4.1922;-0.0849;-0.2317;-0.0823
0000067725;6.1962;1.9968;4.2401;-0.0865;-0.2465;-0.0890
0000067793;6.4835;1.5658;4.3646;0.0120;-0.3215;-0.1745
0000067801;6.4763;1.5658;4.3622;0.0246;-0.3285;-0.1821
0000067809;6.5027;1.4724;4.3742;0.0430;-0.3276;-0.1899
0000067821;6.4260;1.3886;4.4484;0.0634;-0.3243;-0.1925
0000067829;6.4452;1.4126;4.3694;0.0857;-0.3265;-0.1970
0000067840;6.5290;1.5778;4.3670;0.1059;-0.3154;-0.1896
0000067848;6.6870;1.5060;4.3886;0.1282;-0.3106;-0.1896
0000067860;6.8163;1.5993;4.2808;0.1527;-0.2888;-0.1804
0000067868;6.7253;1.5347;4.3383;0.1707;-0.2858;-0.1764
0000067876;6.8043;1.5682;4.3934;0.1892;-0.2723;-0.1735
0000067887;6.7109;1.5778;4.2784;0.2128;-0.2599;-0.1636
0000067895;6.6966;1.6352;4.1922;0.2254;-0.2529;-0.1611
0000067907;6.9264;1.8938;4.1587;0.2442;-0.2457;-0.1569
0000067915;6.6750;1.6879;4.1563;0.2571;-0.2435;-0.1535
0000067926;6.6655;1.8340;4.1276;0.2626;-0.2390;-0.1507
0000067934;6.6391;1.8316;4.0773;0.2589;-0.2354;-0.1339
0000067946;6.7732;2.1572;4.0486;0.2522;-0.2386;-0.1291
0000067954;6.6008;2.1979;3.9983;0.2394;-0.2313;-0.1154
0000067962;6.5505;2.3990;4.0366;0.2205;-0.2418;-0.1106
0000067973;6.4763;2.6121;4.1851;0.1931;-0.2434;-0.1009
0000067981;6.4141;2.5953;4.0414;0.1629;-0.2470;-0.0894
0000067993;6.5505;2.9880;4.1324;0.1106;-0.2502;-0.0769
0000068001;6.5146;2.9449;4.1252;0.0698;-0.2563;-0.0650
0000068068;6.6726;1.4988;3.9935;0.0057;-0.2793;-0.0714
0000068076;6.6391;1.4126;3.9289;0.0274;-0.2703;-0.0739
0000068084;6.4787;1.4269;3.9145;0.0522;-0.2706;-0.0857
0000068096;6.7157;1.5323;3.9600;0.0790;-0.2551;-0.0877
0000068104;6.4141;1.5299;4.0127;0.1027;-0.2509;-0.0953
0000068115;6.5505;1.6759;3.9456;0.1186;-0.2390;-0.0955
0000068123;6.5410;1.7573;3.9385;0.1222;-0.2261;-0.0913
0000068135;6.4955;1.8340;4.0845;0.1212;-0.2209;-0.0909
0000068143;6.6942;2.1739;4.0175;0.1110;-0.2118;-0.0835
0000068154;6.4691;2.0542;4.0677;0.1100;-0.2133;-0.0853
0000068162;6.5457;1.9704;4.1348;0.1030;-0.2014;-0.0854
0000068170;6.5457;2.1213;4.0414;0.0983;-0.1990;-0.0899
0000068182;6.4979;2.3798;4.0127;0.0803;-0.1923;-0.0987
0000068190;6.6104;2.3415;4.0414;0.0739;-0.2000;-0.1077
0000068201;6.4476;2.4062;4.0270;0.0473;-0.1947;-0.1148
0000068209;6.3853;2.4349;4.0247;0.0326;-0.1965;-0.1116
0000068221;6.3375;2.3463;4.0294;0.0173;-0.2014;-0.1187
0000068229;6.3111;2.2817;4.0127;0.0052;-0.2041;-0.1231
0000068237;6.2920;2.3559;3.9792;-0.0083;-0.2002;-0.1272
0000068248;6.4189;2.3535;3.9385;-0.0250;-0.2004;-0.1306
0000068256;6.4667;2.2913;3.9025;-0.0396;-0.1974;-0.1290
0000068268;6.5769;2.2003;3.9433;-0.0437;-0.1920;-0.1311
0000068276;6.6056;2.1213;3.8690;-0.0464;-0.1875;-0.1336
0000068343;6.5481;2.0758;3.8259;-0.0368;-0.1186;-0.0829
0000068351;6.6966;2.1261;3.8642;-0.0452;-0.1136;-0.0794
0000068362;6.5553;2.1404;3.9624;-0.0550;-0.1083;-0.0791
0000068370;6.5936;2.1931;3.9863;-0.0697;-0.0961;-0.0719
0000068378;6.5050;2.1572;3.9816;-0.0783;-0.0921;-0.0794
0000068390;6.5386;2.1883;4.0845;-0.1009;-0.0810;-0.0729
0000068398;6.5434;2.3272;4.0749;-0.1216;-0.0730;-0.0775
0000068409;6.5625;2.3607;4.1803;-0.1371;-0.0608;-0.0766
0000068417;6.3231;2.2721;4.2042;-0.1536;-0.0529;-0.0754
0000068429;6.4859;2.3703;4.0510;-0.1739;-0.0484;-0.0785
0000068437;6.3590;2.3463;4.1492;-0.1933;-0.0432;-0.0746
0000068448;6.3470;2.2697;4.1611;-0.2026;-0.0482;-0.0762
0000068456;6.3662;2.1189;4.2042;-0.2045;-0.0473;-0.0774
0000068464;6.5194;2.0399;4.2401;-0.2117;-0.0438;-0.0645
0000068476;6.3710;2.1380;4.2784;-0.2172;-0.0425;-0.0550
0000068484;6.4380;2.1045;4.1827;-0.2266;-0.0414;-0.0518
0000068495;6.3734;1.9010;4.2521;-0.2266;-0.0384;-0.0505
0000068503;6.1579;1.8723;4.2401;-0.2248;-0.0377;-0.0424
0000068515;6.3470;1.8220;4.2784;-0.2189;-0.0400;-0.0414
0000068523;6.2537;1.6592;4.2329;-0.2052;-0.0454;-0.0417
0000068535;6.4500;1.8340;4.1827;-0.1994;-0.0426;-0.0292
0000068543;6.6272;1.9130;4.2569;-0.1948;-0.0526;-0.0316
0000068551;6.4284;1.8100;4.2234;-0.1853;-0.0581;-0.0336
0000068619;6.4572;1.6376;4.1851;-0.1514;-0.0409;-0.0195
0000068627;6.6056;1.8028;4.2521;-0.1470;-0.0369;-0.0104
0000068638;6.6152;1.6735;4.3024;-0.1203;-0.0442;-0.0053
0000068646;6.6056;1.8292;4.2569;-0.1088;-0.0429;0.0000
0000068658;6.5386;1.8148;4.3048;-0.0918;-0.0437;0.0033
0000068666;6.5960;1.8890;4.3527;-0.0806;-0.0454;0.0077
0000068677;6.4284;1.8651;4.2880;-0.0815;-0.0410;0.0120
0000068685;6.4476;2.0949;4.3000;-0.0785;-0.0388;0.0129
0000068693;6.4907;2.1691;4.3455;-0.0830;-0.0398;0.0144
0000068705;6.3686;2.1404;4.4604;-0.1096;-0.0444;0.0195
0000068713;6.4452;2.1069;4.5442;-0.1214;-0.0469;0.0258
0000068724;6.3183;1.9537;4.4963;-0.1224;-0.0613;0.0203
0000068732;6.4284;1.9297;4.3455;-0.1240;-0.0634;0.0201
0000068744;6.3758;1.7741;4.3934;-0.1230;-0.0715;0.0068
0000068752;6.4596;1.8364;4.2784;-0.1171;-0.0785;-0.0004
0000068763;6.2824;1.7071;4.3072;-0.1132;-0.0853;-0.0108
0000068771;6.2369;1.6328;4.3000;-0.1124;-0.0815;-0.0149
0000068779;6.1746;1.7406;4.3024;-0.1094;-0.0922;-0.0245
0000068791;6.1866;1.7526;4.3479;-0.1126;-0.0922;-0.0293
0000068799;6.2752;1.8459;4.3431;-0.1120;-0.0963;-0.0341
0000068811;6.2560;1.7861;4.3766;-0.1066;-0.1043;-0.0324
0000068819;6.2872;1.8124;4.4149;-0.1002;-0.1226;-0.0336
0000068887;6.2872;1.7454;4.4077;-0.1066;-0.2138;-0.0461
0000068895;6.2345;1.7765;4.4053;-0.1041;-0.2258;-0.0473
0000068906;6.2704;1.7454;4.4987;-0.0987;-0.2374;-0.0594
0000068914;6.2321;1.6352;4.5394;-0.0963;-0.2370;-0.0625
0000068922;6.5074;1.7119;4.4604;-0.0949;-0.2382;-0.0683
0000068934;6.6056;1.8244;4.5203;-0.0890;-0.2407;-0.0778
0000068942;6.4380;1.7597;4.4963;-0.0847;-0.2398;-0.0785
0000068953;6.4620;1.7071;4.5705;-0.0751;-0.2425;-0.0890
0000068961;6.6008;1.8627;4.4891;-0.0767;-0.2433;-0.0902
0000068973;6.5434;1.7837;4.5179;-0.0793;-0.2398;-0.0831
0000068981;6.5098;1.6712;4.5490;-0.0843;-0.2352;-0.0777
0000068992;6.4931;1.7071;4.4676;-0.0881;-0.2426;-0.0797
0000069000;6.7924;1.9537;4.4245;-0.0966;-0.2312;-0.0698
0000069008;6.6463;1.8004;4.4484;-0.0965;-0.2252;-0.0666
0000069020;6.7804;1.5921;4.4532;-0.0918;-0.2050;-0.0465
0000069028;6.7780;1.7382;4.4005;-0.0821;-0.2016;-0.0445
0000069039;6.7732;1.5275;4.4484;-0.0652;-0.1852;-0.0365
0000069047;6.8953;1.4964;4.4891;-0.0505;-0.1736;-0.0285
0000069059;6.8331;1.5203;4.4005;-0.0370;-0.1498;-0.0180
0000069067;6.8857;1.6281;4.3000;-0.0377;-0.1299;-0.0119
0000069079;6.9216;1.6855;4.4269;-0.0306;-0.1067;-0.0124
0000069087;6.7397;1.5730;4.4628;-0.0208;-0.0862;-0.0155
0000069095;6.7636;1.5467;4.5083;-0.0156;-0.0726;-0.0027
0000069163;6.4667;1.5586;4.6017;0.0241;-0.0290;0.0089
0000069171;6.5027;1.7693;4.4460;0.0148;-0.0324;0.0035
0000069182;6.4548;1.8340;4.5610;0.0072;-0.0397;-0.0027
0000069190;6.3877;1.7669;4.6160;0.0056;-0.0466;-0.0129
0000069202;6.4931;2.0782;4.5897;-0.0044;-0.0521;-0.0120
0000069210;6.3231;1.8723;4.6112;-0.0024;-0.0682;-0.0254
0000069221;6.4308;1.9776;4.5729;-0.0057;-0.0791;-0.0356
0000069229;6.4955;1.9441;4.5921;-0.0087;-0.0889;-0.0405
0000069237;6.3063;1.7717;4.6088;-0.0157;-0.0933;-0.0516
0000069249;6.5314;1.9273;4.6831;-0.0229;-0.1034;-0.0606
0000069257;6.4236;1.7957;4.5681;-0.0254;-0.1086;-0.0673
0000069268;6.4835;1.6999;4.6471;-0.0300;-0.1091;-0.0618
0000069276;6.4859;1.5897;4.5586;-0.0270;-0.1120;-0.0612
0000069288;6.5505;1.4820;4.5274;-0.0123;-0.1178;-0.0662
0000069296;6.6942;1.5658;4.6136;-0.0131;-0.1156;-0.0653
0000069307;6.7900;1.7645;4.6112;-0.0008;-0.1214;-0.0726
0000069315;6.5170;1.5802;4.6926;-0.0032;-0.1206;-0.0685
0000069323;6.8426;1.7980;4.5657;-0.0060;-0.1150;-0.0629
0000069335;6.7229;1.8675;4.7453;-0.0099;-0.1037;-0.0606
0000069343;6.8139;1.9249;4.6208;-0.0133;-0.0927;-0.0541
0000069355;7.0413;1.8794;4.6663;-0.0199;-0.0889;-0.0520
0000069363;6.8259;1.7789;4.6256;-0.0249;-0.0793;-0.0358
0000069431;6.8283;1.6688;4.6807;-0.0296;-0.0273;0.0241
0000069439;6.9216;1.6951;4.5466;-0.0191;-0.0232;0.0254
0000069450;6.7157;1.4748;4.6424;-0.0168;-0.0029;0.0329
0000069458;6.7086;1.5634;4.6208;-0.0123;0.0064;0.0390
0000069466;6.5864;1.5036;4.7070;-0.0072;0.0125;0.0365
0000069478;6.7876;1.5586;4.7190;0.0001;0.0274;0.0448
0000069486;6.7995;1.7980;4.7285;-0.0057;0.0297;0.0501
0000069497;6.6343;1.8866;4.8171;-0.0093;0.0234;0.0569
0000069505;6.5003;1.9178;4.9033;-0.0101;0.0184;0.0652
0000069517;6.4404;1.9609;4.9991;-0.0281;0.0153;0.0685
0000069525;6.3494;1.9537;5.1116;-0.0409;0.0105;0.0681
0000069533;6.2465;1.8579;5.0566;-0.0612;0.0103;0.0642
0000069544;6.0789;1.7933;5.0230;-0.0753;0.0071;0.0545
0000069552;6.3039;1.8986;5.1667;-0.0766;0.0000;0.0457
0000069564;6.1986;1.6137;5.0398;-0.0797;0.0044;0.0457
0000069572;6.1914;1.6592;5.0637;-0.0830;0.0012;0.0354
0000069583;6.2728;1.8004;5.1404;-0.0863;0.0020;0.0396
0000069591;6.2058;1.6568;5.2026;-0.0990;0.0016;0.0381
0000069599;6.3183;1.5993;5.3079;-0.1187;0.0007;0.0361
0000069611;6.1723;1.4892;5.1978;-0.1504;0.0041;0.0385
0000069619;6.0142;1.3527;5.2481;-0.1617;-0.0007;0.0336
0000069631;6.2584;1.5682;5.2385;-0.1861;0.0112;0.0397
0000069639;6.2417;1.4700;5.2672;-0.1885;0.0084;0.0422
0000069707;6.3734;0.9697;5.3415;-0.1692;-0.0420;0.1014
0000069715;6.4955;0.9625;5.4181;-0.1597;-0.0478;0.1062
0000069723;6.4835;1.0175;5.5234;-0.1699;-0.0469;0.1061
0000069735;6.5410;1.0965;5.5450;-0.1945;-0.0512;0.1143
0000069743;6.6535;1.0582;5.5091;-0.2118;-0.0468;0.1252
0000069754;6.5864;1.0223;5.5713;-0.2286;-0.0365;0.1242
0000069762;6.6439;1.0295;5.6024;-0.2465;-0.0305;0.1275
0000069774;6.5218;0.7733;5.7509;-0.2399;-0.0209;0.1420
0000069782;6.5625;0.7566;5.6719;-0.2338;-0.0101;0.1490
0000069790;6.8283;0.9313;5.6503;-0.2293;0.0028;0.1507
0000069801;6.8642;0.9792;5.4779;-0.2192;0.0277;0.1492
0000069809;6.5074;0.7111;5.6072;-0.2248;0.0396;0.1585
0000069821;6.8163;1.0846;5.6599;-0.2314;0.0662;0.1699
0000069829;6.5793;1.0032;5.7317;-0.2414;0.0823;0.1879
0000069840;6.4931;0.9912;5.8682;-0.2434;0.0902;0.2002
0000069848;6.5194;1.0223;6.0047;-0.2590;0.1002;0.2213
0000069856;6.7732;1.2306;6.1004;-0.2739;0.1059;0.2286
0000069868;6.6343;0.9697;6.0908;-0.3359;0.1075;0.2414
0000069876;6.5912;0.9960;6.1339;-0.3668;0.1095;0.2495
0000069887;6.4189;0.5962;5.8227;-0.3937;0.1051;0.2479
0000069895;6.2058;0.2562;5.6168;-0.3949;0.1029;0.2499
0000069907;6.0813;-0.1197;5.5162;-0.3713;0.0771;0.2402
0000069915;6.1914;-0.1413;5.4588;-0.3573;0.0496;0.2336
0000069983;6.0286;-0.4645;5.5689;-0.3348;-0.1553;0.2018
0000069991;6.2728;-0.6297;5.1643;-0.3601;-0.1581;0.1917
0000069999;6.6535;-0.7278;5.0661;-0.3765;-0.1447;0.1659
0000070011;6.8929;-1.0726;4.4652;-0.3782;-0.0811;0.1138
0000070019;7.0437;-1.4653;4.2425;-0.3672;-0.0449;0.0771
0000070030;7.4196;-1.7262;4.1563;-0.3635;0.0440;0.0486
0000070038;7.6974;-1.7549;4.3455;-0.3303;0.0953;0.0416
0000070050;7.8697;-1.6951;4.6424;-0.2601;0.1776;0.0703
0000070058;7.9464;-1.5490;4.9081;-0.2164;0.2189;0.1107
0000070066;8.1163;-1.1540;5.1691;-0.1727;0.2575;0.1633
0000070077;7.9368;-0.6464;5.3798;-0.1304;0.3116;0.2173
0000070085;7.5609;-0.2777;5.0805;-0.1346;0.3539;0.2658
0000070097;7.3358;0.3017;5.1308;-0.1681;0.4080;0.3146
0000070105;7.0868;0.5411;4.8770;-0.2286;0.4269;0.3493
0000070116;6.8809;0.7326;5.1284;-0.2855;0.4174;0.4222
0000070124;6.6295;0.8547;5.3439;-0.3108;0.3805;0.4974
0000070136;6.8402;1.1325;5.5474;-0.3279;0.3351;0.5965
0000070144;6.9719;1.2833;5.7437;-0.3259;0.2960;0.6562
0000070152;7.2065;1.1803;5.5522;-0.3427;0.2699;0.6985
0000070163;7.6016;0.9960;5.3893;-0.3315;0.2563;0.7103
0000070171;7.6902;0.6297;5.1667;-0.3379;0.2638;0.6984
0000070183;7.5968;-0.0239;4.7094;-0.3316;0.2967;0.6663
0000070191;7.4148;-0.6393;4.6280;-0.3111;0.3178;0.6319
0000070259;7.0390;0.2849;5.4708;-0.1159;0.0949;0.6792
0000070267;6.7397;-0.2322;5.4133;-0.1192;0.1045;0.6884
0000070275;6.6726;-0.7015;5.4157;-0.0797;0.1278;0.6749
0000070287;6.8235;-1.0558;5.1691;0.0069;0.1827;0.6371
0000070295;6.9097;-1.0511;5.2601;0.0604;0.2276;0.6363
0000070306;7.2760;-0.9170;4.7333;0.1202;0.2529;0.6347
0000070314;7.5082;-0.7230;4.7812;0.1639;0.2563;0.6747
0000070326;8.1235;-0.2346;4.5131;0.1556;0.2254;0.7445
0000070334;7.8482;-0.4597;4.7932;0.0935;0.2092;0.7750
0000070342;7.9559;-0.6297;4.7860;0.0494;0.2101;0.7877
0000070353;7.3191;-1.3144;5.0087;0.0300;0.2320;0.7566
0000070361;6.8522;-1.8818;5.3534;0.0529;0.2715;0.7108
0000070373;5.5737;-2.2721;5.1499;0.1038;0.3504;0.6050
0000070381;5.1834;-2.0351;5.0087;0.1339;0.3804;0.5119
0000070392;5.1523;-1.7573;4.8866;0.1443;0.3832;0.4129
0000070400;5.4348;-1.2881;4.5107;0.1306;0.3701;0.3738
0000070408;5.7341;-1.0894;4.1803;0.0818;0.3335;0.3519
0000070420;6.3494;-0.9050;3.6871;0.0029;0.2650;0.3468
0000070428;6.3494;-1.3767;3.6152;-0.0899;0.2386;0.3445
0000070439;6.1675;-2.5307;3.6966;-0.1945;0.2381;0.3242
0000070447;6.2034;-3.1532;3.8618;-0.2585;0.2805;0.2924
0000070459;5.4995;-4.3838;3.9863;-0.2759;0.4181;0.1833
0000070467;4.9871;-4.8722;4.1515;-0.2539;0.5184;0.0761
0000070475;4.7429;-5.3247;4.7405;-0.2020;0.5652;-0.0630
0000070542;7.1922;-6.8738;-1.8268;0.1162;0.0051;-0.4751
0000070550;6.8307;-7.6734;-1.8052;0.0985;-0.0104;-0.4950
0000070562;6.4093;-8.4396;-2.1548;0.1304;-0.0326;-0.4728
0000070570;5.9065;-9.0788;-2.2434;0.2245;-0.0464;-0.3853
0000070581;5.8083;-9.7252;-2.0231;0.5918;-0.0985;-0.2174
0000070589;5.7389;-9.7636;-1.8244;1.0476;-0.1515;-0.1069
0000070601;6.6008;-8.2959;-0.7111;2.0717;-0.2398;0.0532
0000070609;7.8530;-6.1890;0.6369;2.7848;-0.3613;0.1867
0000070620;8.8250;-2.8850;4.3503;3.4460;-0.5203;0.4171
0000070628;8.8945;0.6273;7.4891;3.4615;-0.6876;0.5865
0000070636;8.4611;4.7142;9.2464;3.0311;-0.7758;0.7691
0000070648;6.7205;9.7468;10.9032;1.8318;-0.8336;0.9418
0000070656;5.1404;11.2456;8.8155;1.0773;-0.7938;0.9794
0000070667;6.3829;8.5042;-2.8922;0.8394;-0.5024;1.0495
0000070675;10.5225;7.8075;-0.5100;0.4302;-0.3663;1.5444
0000070687;10.6111;2.3128;2.2936;1.1058;-0.2382;2.5687
0000070695;12.3469;-1.7885;0.8236;2.3005;-0.6459;3.3404
0000070703;14.7363;-5.7389;2.6240;3.0325;-1.5322;4.0083
0000070714;15.1242;-6.4859;2.9760;3.2351;-2.2569;4.3656
0000070722;15.3229;-5.6719;0.5794;3.3424;-2.3517;4.3656
0000070734;13.9031;-8.9591;11.8944;4.0238;-3.4422;4.3656
0000070742;19.3906;-7.4771;16.3979;4.3656;-4.3657;4.3656
0000070810;17.8105;1.8771;3.7996;-4.3577;-1.2790;4.3656
0000070818;15.5096;-4.8339;10.0126;-3.0378;-1.0211;4.3656
0000070830;17.3867;-8.2265;-0.8978;-1.4173;-0.4951;4.3656
0000070838;17.9900;-8.3797;-3.6966;-0.8889;-0.3820;4.3656
0000070849;15.6605;-7.2903;-4.0606;-0.2173;-0.2364;4.3656
0000070857;14.7626;-6.5625;-3.4979;0.0562;-0.1800;4.3656
0000070865;13.8098;-6.7828;-3.0119;-0.1612;-0.0644;4.0441
0000070877;8.0804;-9.3134;-2.4995;-1.6840;0.6957;2.2651
0000070885;1.5490;-9.6223;-3.8738;-2.4501;1.2040;1.2790
0000070896;-2.1811;-10.2448;-7.7357;-2.3048;0.9777;0.1529
0000070904;-2.0806;-10.8984;-7.9559;-1.7175;0.2876;-0.4179
0000070916;1.2737;-13.0005;-6.6200;-0.7310;-0.7875;-0.5432
0000070924;5.1020;-13.1992;-5.4324;-0.1360;-1.2501;-0.3146
0000070935;14.4610;-13.5368;-8.4372;0.8968;-1.7305;-0.0610
0000070943;20.2861;-13.2735;-10.0317;1.8787;-2.0085;0.2866
0000070955;27.8972;-11.4203;-11.0397;3.3155;-2.1089;0.5159
0000070963;31.5699;-8.3270;-10.7404;3.7571;-1.9581;0.4816
0000070974;33.8396;-2.7031;-10.0365;3.6485;-1.5323;0.2887
0000070982;30.9810;1.1037;-8.8394;3.0710;-1.1326;0.1955
0000070990;25.3666;2.9928;-6.0262;2.1472;-0.6849;0.2928
0000071002;18.5048;4.5370;-1.7669;0.9711;-0.2725;0.8439
0000071010;17.2430;3.9002;-0.8619;0.5893;-0.1474;1.2750
0000071078;15.0643;-8.8083;-4.5729;0.2530;0.7441;-0.0762
0000071086;15.2894;-8.0278;-3.2681;0.2174;0.8288;-0.4317
0000071098;14.9255;-6.9552;-2.0973;0.1510;0.9104;-0.7734
0000071106;14.6908;-6.2800;-2.1596;0.0833;0.9371;-0.8992
0000071118;14.5903;-5.4612;-2.2146;0.0782;0.8764;-0.9378
0000071126;14.0875;-5.1260;-1.7478;0.1082;0.8322;-0.9435
0000071134;13.9726;-4.7908;-0.6584;0.1136;0.7851;-0.9371
0000071145;14.0181;-4.4293;0.5171;0.0782;0.7280;-0.8775
0000071153;14.3341;-4.6519;1.2139;0.0445;0.7136;-0.8404
0000071165;15.1170;-4.4341;1.1756;0.0955;0.6346;-0.8631
0000071173;15.1912;-4.3431;0.3424;0.1272;0.5530;-0.9403
0000071185;15.0236;-3.9887;-0.8619;0.1399;0.4382;-1.0710
0000071193;14.6836;-3.9313;-1.3551;0.0985;0.3914;-1.1599
0000071205;14.5927;-3.5051;-1.2043;-0.0108;0.3425;-1.3311
0000071213;14.6118;-3.6703;-1.0942;-0.0624;0.3457;-1.4374
0000071225;14.9494;-3.3902;-0.9026;-0.1066;0.3601;-1.5242
0000071233;15.5958;-3.3184;-0.6225;-0.1003;0.3532;-1.5180
0000071241;16.0914;-3.2010;-0.2945;-0.0549;0.3250;-1.4869
0000071253;16.6756;-3.0574;-0.1365;0.0514;0.2611;-1.3695
0000071261;16.6660;-2.7270;-0.1197;0.1528;0.2210;-1.3013
0000071329;15.4594;-1.1636;-0.5507;0.3106;0.1583;-0.7458
0000071337;15.8376;-1.0367;-0.3304;0.3096;0.2309;-0.7388
0000071349;15.7060;-1.0606;-0.2993;0.3419;0.3320;-0.7356
0000071357;16.0627;-1.0750;0.0670;0.3873;0.3921;-0.7352
0000071369;15.6964;-0.7302;0.2011;0.5156;0.4966;-0.7276
0000071377;15.8352;-0.5339;0.0383;0.5757;0.5656;-0.7317
0000071389;15.5815;0.0287;-0.2753;0.5919;0.6972;-0.7276
0000071397;14.6310;0.3376;-0.1724;0.5830;0.7846;-0.7289
0000071405;13.9534;0.7374;-0.4477;0.5454;0.8354;-0.7145
0000071417;13.4961;0.4645;-0.7326;0.4924;0.8761;-0.7254
0000071425;13.0412;0.6033;-0.8164;0.4798;0.8804;-0.7113
0000071437;13.0723;0.5986;-1.0726;0.4702;0.8736;-0.7276
0000071445;12.7395;0.1628;-0.8116;0.4730;0.8723;-0.7390
0000071457;12.6558;-0.1053;-0.5770;0.4796;0.8311;-0.7468
0000071465;12.5911;-0.1772;-0.3998;0.4914;0.8050;-0.7641
0000071477;12.4451;-0.1844;-0.2610;0.4878;0.7456;-0.7790
0000071485;12.7611;0.1820;-0.0527;0.4752;0.7020;-0.8002
0000071493;12.5097;0.1413;0.3950;0.4374;0.6797;-0.7951
0000071505;12.3349;0.1077;0.5866;0.3371;0.6142;-0.7461
0000071513;11.9830;-0.3160;0.8284;0.1789;0.5720;-0.5885
0000071525;11.4012;0.2107;0.8308;0.3508;0.4239;-0.7129
0000071533;11.0564;0.0958;1.1468;0.4237;0.3601;-0.8017
0000071601;12.1793;1.1636;0.5028;0.1252;-0.4041;-0.8808
0000071609;12.7898;1.4246;0.3926;0.1168;-0.4243;-0.8579
0000071621;13.4530;1.6472;0.3663;0.0986;-0.4231;-0.8147
0000071629;13.8002;1.6185;0.4549;0.0721;-0.3970;-0.7799
0000071637;13.9989;1.6855;0.3831;0.0478;-0.3696;-0.7489
0000071649;13.9989;1.3024;0.2083;0.0035;-0.3048;-0.6981
0000071657;14.2168;1.3048;0.1652;-0.0144;-0.2519;-0.6623
0000071669;13.7260;1.0032;-0.1006;-0.0189;-0.1969;-0.6166
0000071677;13.2950;0.7877;-0.3543;-0.0141;-0.1664;-0.5805
0000071689;12.4953;0.5555;-0.3615;0.0195;-0.1294;-0.5249
0000071697;12.6246;0.6297;-0.4310;0.0417;-0.1290;-0.4948
0000071709;11.7914;0.3926;-0.3472;0.0949;-0.1311;-0.4506
0000071717;11.7292;0.7111;-0.3663;0.1219;-0.1439;-0.4195
0000071728;11.2934;0.9050;-0.5938;0.1327;-0.1467;-0.3956
0000071736;11.4227;1.1037;-0.6081;0.1406;-0.1661;-0.3938
0000071744;11.7364;1.1875;-0.6488;0.1466;-0.1705;-0.4122
0000071756;11.6430;1.4940;-0.7422;0.1512;-0.1859;-0.4163
0000071764;11.4060;1.4222;-0.8164;0.1588;-0.2053;-0.4221
0000071776;11.2408;1.3958;-0.8260;0.1687;-0.2301;-0.4146
0000071784;11.1977;1.5227;-0.8715;0.1703;-0.2470;-0.4009
0000071796;11.4610;1.6376;-0.9313;0.1665;-0.2717;-0.3667
0000071804;11.5951;1.5778;-0.9242;0.1703;-0.2879;-0.3387
0000071872;11.5616;2.2386;-1.2067;0.0598;-0.2798;-0.2013
0000071880;11.6454;2.1787;-1.1875;0.0364;-0.2846;-0.1960
0000071888;11.6071;2.0638;-1.2019;0.0051;-0.2721;-0.1831
0000071901;11.7316;1.8387;-1.2282;-0.0220;-0.2570;-0.1740
0000071910;11.8800;1.7980;-1.2833;-0.0308;-0.2546;-0.1675
0000071923;11.7196;1.5514;-1.3695;-0.0281;-0.2392;-0.1478
0000071932;11.8154;1.5419;-1.3455;-0.0124;-0.2321;-0.1342
0000071945;11.7244;1.4485;-1.0367;0.0193;-0.2399;-0.1075
0000071954;11.7938;1.7214;-1.1444;0.0322;-0.2264;-0.0799
0000071967;11.7627;2.0063;-1.0606;0.0589;-0.1925;-0.0381
0000071976;11.7436;2.1021;-0.9577;0.0731;-0.1619;-0.0025
0000071989;11.4826;2.2170;-0.9673;0.0703;-0.1164;0.0693
0000071998;11.6502;2.3559;-0.9529;0.0484;-0.1034;0.1204
0000072007;11.7148;2.2529;-1.0415;0.0324;-0.1138;0.1603
0000072020;11.6717;1.8411;-1.1540;0.0089;-0.1218;0.1904
0000072029;12.0692;1.6664;-1.2282;-0.0096;-0.1174;0.1889
0000072042;11.8561;1.2594;-1.2330;-0.0215;-0.0965;0.1462
0000072051;12.0500;1.3719;-1.2665;-0.0362;-0.0805;0.1090
0000072064;11.8250;1.0391;-1.0534;-0.0521;-0.0628;0.0490
0000072073;12.1506;0.9290;-0.9313;-0.0588;-0.0321;0.0220
0000072086;12.4139;0.9505;-0.8787;-0.0659;-0.0165;0.0120
0000072095;12.2128;0.7949;-0.8475;-0.0586;-0.0083;0.0181
0000072164;12.2439;1.0343;-0.5339;-0.0349;-0.0779;0.0215
0000072173;12.2655;0.9936;-0.7278;-0.0525;-0.0838;0.0013
0000072182;12.1242;0.9098;-0.7374;-0.0524;-0.0937;-0.0318
0000072195;12.0476;0.8691;-0.8906;-0.0450;-0.0987;-0.0798
0000072204;12.1218;0.8643;-0.9744;-0.0386;-0.0914;-0.0999
0000072217;12.0787;0.8882;-1.0654;-0.0346;-0.0927;-0.1194
0000072226;12.4139;1.0750;-1.1516;-0.0342;-0.0934;-0.1276
0000072239;12.3756;0.9361;-0.9002;-0.0380;-0.0813;-0.1139
0000072248;12.6198;1.0032;-0.9026;-0.0322;-0.0731;-0.0970
0000072261;12.5767;1.0822;-0.8739;-0.0211;-0.0438;-0.0813
0000072270;12.7372;1.1851;-0.9170;-0.0183;-0.0176;-0.0734
0000072283;12.5384;1.4269;-0.8739;-0.0112;0.0145;-0.0745
0000072292;12.3014;1.3743;-0.7853;-0.0205;0.0318;-0.0742
0000072305;12.3397;1.6113;-0.8021;-0.0397;0.0441;-0.0524
0000072314;12.2679;1.4437;-0.7518;-0.0695;0.0497;-0.0260
0000072323;11.9686;1.1181;-0.8978;-0.0861;0.0418;-0.0035
0000072336;11.8369;0.7901;-1.0606;-0.0882;0.0334;0.0246
0000072345;11.8106;0.8404;-1.1037;-0.0773;0.0373;0.0385
0000072358;11.9016;0.9026;-1.0822;-0.0510;0.0268;0.0360
0000072367;11.7843;1.0008;-1.0989;-0.0216;0.0019;0.0245
0000072380;11.5664;1.1684;-0.9098;0.0051;-0.0200;0.0077
0000072389;11.5712;1.2617;-0.8978;-0.0013;-0.0374;-0.0009
0000072458;12.2511;1.0942;-0.8763;-0.0061;-0.0632;-0.0257
0000072467;12.3134;1.1756;-0.8092;0.0020;-0.0496;-0.0254
0000072476;12.3206;1.1875;-0.7877;-0.0011;-0.0393;-0.0257
0000072489;12.1817;1.2139;-0.8188;0.0057;-0.0313;-0.0250
0000072498;12.0692;1.1947;-0.7661;0.0100;-0.0354;-0.0306
0000072514;12.0692;1.3168;-0.7230;0.0092;-0.0417;-0.0133
0000072523;12.0979;1.2857;-0.7111;0.0032;-0.0454;-0.0063
0000072536;12.1099;1.5897;-0.7422;-0.0019;-0.0489;-0.0009
0000072545;12.1889;1.4772;-0.6153;-0.0053;-0.0505;-0.0099
0000072557;12.1242;1.4676;-0.5674;-0.0254;-0.0402;-0.0020
0000072566;12.0859;1.3934;-0.7302;-0.0396;-0.0397;0.0012
0000072579;12.0380;1.2498;-0.6919;-0.0469;-0.0433;0.0000
0000072588;11.9997;1.1971;-0.7614;-0.0472;-0.0453;0.0133
0000072597;12.0620;1.2163;-0.8811;-0.0378;-0.0476;0.0147
0000072609;12.1985;1.0175;-0.8715;-0.0168;-0.0630;0.0155
0000072618;12.0692;1.0439;-0.8475;0.0027;-0.0673;0.0063
0000072631;12.2224;1.0104;-1.0104;0.0148;-0.0614;-0.0065
0000072640;12.0285;0.9385;-1.0343;0.0228;-0.0562;-0.0155
0000072652;12.3804;1.2641;-1.0223;0.0222;-0.0477;-0.0278
0000072661;12.2272;1.1205;-1.0151;0.0171;-0.0322;-0.0312
0000072730;12.1171;1.4629;-1.0965;0.0100;-0.0254;-0.0005
0000072739;12.1218;1.4413;-1.0726;0.0081;-0.0317;-0.0112
0000072751;12.1554;1.4078;-1.0127;-0.0064;-0.0229;-0.0044
0000072760;12.1314;1.3575;-1.0271;-0.0033;-0.0205;0.0033
0000072769;11.9902;1.2186;-0.9553;-0.0129;-0.0152;0.0104
0000072782;12.1386;1.3671;-0.9170;-0.0073;-0.0085;0.0143
0000072791;11.9519;1.3815;-0.8643;-0.0157;-0.0083;0.0257
0000072803;12.0380;1.2785;-0.7685;-0.0153;-0.0083;0.0273
0000072812;11.9231;1.2857;-0.7973;-0.0169;-0.0139;0.0293
0000072825;11.8848;1.0965;-0.8092;-0.0149;-0.0218;0.0200
0000072834;11.9902;1.1277;-0.8523;-0.0040;-0.0260;0.0191
0000072846;11.9830;1.1779;-0.8068;-0.0053;-0.0318;0.0100
0000072855;12.1027;1.1923;-0.8739;-0.0061;-0.0320;0.0031
0000072868;12.1793;1.2043;-0.7997;-0.0119;-0.0400;-0.0001
0000072877;12.2104;1.1660;-0.9290;-0.0209;-0.0356;0.0063
0000072886;11.9854;1.0798;-0.8428;-0.0189;-0.0472;0.0012
0000072898;11.9782;1.0295;-0.9146;-0.0224;-0.0510;-0.0047
0000072907;11.9734;1.2115;-0.9002;-0.0277;-0.0524;0.0015
0000072920;12.4091;1.3719;-0.9960;-0.0316;-0.0525;-0.0055
0000072929;12.2224;1.2905;-1.0056;-0.0426;-0.0416;0.0040
0000072941;12.5289;1.4054;-1.0199;-0.0460;-0.0398;0.0001
0000072950;12.4953;1.3958;-1.0942;-0.0557;-0.0189;0.0159
0000073018;12.1434;1.3072;-0.9290;-0.0043;0.0224;0.0733
0000073027;11.8130;1.1157;-0.9242;-0.0091;0.0215;0.0813
0000073039;11.9255;1.1277;-0.8164;-0.0040;0.0209;0.0814
0000073048;11.8130;1.1229;-0.8715;-0.0003;0.0133;0.0726
0000073057;11.8776;1.0534;-0.8619;0.0069;0.0008;0.0698
0000073070;11.8705;1.2354;-0.8045;0.0079;-0.0149;0.0681
0000073079;11.9495;1.3240;-0.8188;0.0045;-0.0289;0.0604
0000073091;12.0309;1.3360;-0.7757;-0.0072;-0.0461;0.0596
0000073100;12.1889;1.3408;-0.7877;-0.0228;-0.0564;0.0564
0000073113;11.9016;1.1301;-0.7805;-0.0318;-0.0665;0.0498
0000073122;12.1554;1.2665;-0.7757;-0.0354;-0.0801;0.0442
0000073134;12.3373;1.3096;-0.7111;-0.0414;-0.0785;0.0417
0000073143;12.4475;1.2689;-0.6560;-0.0516;-0.0685;0.0429
0000073152;12.2894;1.1181;-0.6680;-0.0488;-0.0755;0.0394
0000073165;12.3397;0.9050;-0.6440;-0.0489;-0.0765;0.0388
0000073174;12.3349;0.8260;-0.8475;-0.0521;-0.0695;0.0421
0000073186;12.3373;0.8260;-0.9864;-0.0393;-0.0767;0.0345
0000073195;12.2846;0.6632;-0.9697;-0.0336;-0.0753;0.0272
0000073208;12.3493;0.8188;-1.0056;-0.0121;-0.0682;0.0107
0000073217;12.3804;0.8715;-0.9146;0.0015;-0.0717;-0.0069
0000073229;12.4642;1.0942;-0.8452;-0.0037;-0.0577;-0.0068
0000073238;12.4906;1.1684;-0.8787;0.0013;-0.0601;-0.0132
0000073307;12.3134;1.2474;-0.9122;-0.0673;0.0164;0.0272
0000073316;12.6127;1.2713;-0.9792;-0.0703;0.0222;0.0352
0000073325;12.6797;1.2186;-0.9290;-0.0746;0.0280;0.0474
0000073337;12.5408;0.8906;-0.8930;-0.0606;0.0356;0.0528
0000073346;12.6797;0.7853;-0.8547;-0.0364;0.0290;0.0453
0000073359;12.4187;0.5986;-1.0104;0.0093;0.0238;0.0183
0000073368;12.1458;0.5842;-1.1349;0.0285;0.0232;0.0045
0000073380;12.2607;0.8212;-1.1420;0.0406;0.0201;-0.0160
0000073389;12.1362;0.8164;-0.9505;0.0349;0.0167;-0.0301
0000073402;12.3565;1.1325;-0.8475;0.0234;0.0301;-0.0189
0000073411;12.4187;1.1851;-0.6680;0.0199;0.0368;-0.0049
0000073420;12.5767;1.3192;-0.7063;0.0197;0.0429;0.0096
0000073432;12.3780;1.1636;-0.6919;0.0199;0.0564;0.0388
0000073441;12.3828;1.2713;-0.7901;0.0111;0.0573;0.0629
0000073454;11.9495;1.0391;-0.6895;0.0173;0.0461;0.0794
0000073463;11.9399;1.1133;-0.6895;0.0310;0.0216;0.0749
0000073475;11.9064;1.2450;-0.5219;0.0286;0.0095;0.0573
0000073484;11.9255;1.3455;-0.4549;0.0354;-0.0037;0.0337
0000073497;11.7771;1.2378;-0.3160;0.0273;-0.0209;0.0087
0000073506;11.8130;1.0511;-0.3089;0.0068;-0.0366;0.0077
0000073515;12.0596;1.1516;-0.4118;-0.0093;-0.0478;0.0128
0000073527;11.9950;0.8906;-0.5698;-0.0077;-0.0718;0.0124
0000073536;12.0716;0.8140;-0.6608;0.0041;-0.0818;0.0116
0000073605;12.4738;1.1444;-1.0295;-0.0105;-0.1472;-0.0628
0000073614;12.3661;1.2330;-1.0032;-0.0168;-0.1394;-0.0572
0000073626;12.3924;1.2378;-1.0439;-0.0317;-0.1310;-0.0426
0000073635;12.3972;1.3072;-1.0391;-0.0354;-0.1259;-0.0296
0000073648;12.3613;1.2713;-1.1851;-0.0586;-0.1085;-0.0077
0000073657;12.7372;1.2833;-1.1492;-0.0648;-0.0959;0.0024
0000073669;12.5887;1.1277;-1.1492;-0.0722;-0.0833;0.0047
0000073678;12.4594;1.0630;-1.0439;-0.0767;-0.0675;0.0073
0000073687;12.4044;0.9409;-1.0151;-0.0834;-0.0553;0.0001
0000073700;12.4211;0.8667;-0.9936;-0.0817;-0.0453;-0.0151
0000073709;12.5145;1.0439;-1.1277;-0.0791;-0.0470;-0.0293
0000073721;12.3589;0.7470;-1.0846;-0.0711;-0.0498;-0.0450
0000073730;12.3517;0.7015;-1.0439;-0.0630;-0.0508;-0.0606
0000073743;12.3469;0.7949;-1.0247;-0.0533;-0.0632;-0.0714
0000073752;12.3110;0.8236;-0.9074;-0.0414;-0.0766;-0.0797
0000073764;12.3134;0.9457;-0.8452;-0.0265;-0.0790;-0.0931
0000073773;12.3230;0.9936;-0.8811;-0.0224;-0.0638;-0.0927
0000073786;12.0021;0.9122;-0.8404;-0.0179;-0.0719;-0.1006
0000073795;12.0548;0.9050;-0.7661;-0.0147;-0.0899;-0.0955
0000073804;12.0428;0.6584;-0.6800;0.0116;-0.1009;-0.0805
0000073816;12.0524;0.7302;-0.6153;0.0755;-0.1184;-0.0384
0000073825;12.4235;0.8859;-0.5315;0.1304;-0.1115;-0.0067
0000073894;12.3517;0.3448;-1.0343;0.1306;0.0310;0.0007
0000073903;12.3325;0.6225;-1.1444;0.1672;0.0352;-0.0241
0000073915;12.3014;1.1612;-1.2258;0.1639;0.0466;-0.0488
0000073924;12.5983;1.4198;-1.1540;0.1346;0.0392;-0.0473
0000073937;12.2583;1.5993;-0.9577;0.0831;0.0241;-0.0426
0000073946;12.2463;1.6520;-1.0151;0.0405;0.0218;-0.0213
0000073957;12.2727;1.6209;-1.0487;0.0003;0.0028;-0.0048
0000073966;11.9447;1.5299;-1.1708;-0.0230;0.0048;0.0157
0000073975;12.3397;1.5562;-1.1923;-0.0478;-0.0061;0.0305
0000073989;12.2152;1.3982;-1.2258;-0.0617;-0.0047;0.0360
0000073998;12.3900;1.4988;-1.2330;-0.0662;-0.0137;0.0354
0000074011;12.4522;1.4030;-1.2091;-0.0875;-0.0185;0.0396
0000074020;12.5839;1.5419;-1.1301;-0.1039;-0.0333;0.0409
0000074032;12.3301;1.3838;-1.0558;-0.1362;-0.0368;0.0498
0000074041;12.1338;1.1923;-1.0104;-0.1589;-0.0369;0.0601
0000074054;12.3277;1.1420;-1.0223;-0.1688;-0.0433;0.0649
0000074063;12.2727;1.1396;-0.9577;-0.1633;-0.0458;0.0670
0000074072;12.1961;0.8428;-0.9625;-0.1585;-0.0390;0.0742
0000074082;12.2392;0.9050;-1.0415;-0.1380;-0.0265;0.0743
0000074090;12.4953;0.8906;-0.9194;-0.1352;-0.0124;0.0746
0000074158;12.4762;0.7901;-0.7230;-0.0420;0.0774;0.0000
0000074166;12.5815;0.8978;-0.6680;-0.0489;0.0887;-0.0035
0000074177;12.3301;0.8452;-0.7087;-0.0529;0.0915;-0.0001
0000074185;12.3637;0.9122;-0.7278;-0.0558;0.0898;-0.0055
0000074197;12.6031;1.0151;-0.6728;-0.0597;0.0782;-0.0043
0000074205;12.4187;0.9577;-0.6321;-0.0574;0.0759;-0.0003
