time;acc_x;acc_y;acc_z;gyro_x;gyro_y;gyro_z
0000675421;5.0589;2.2793;2.4134;-0.1106;0.0300;-0.0043
0000675429;4.9991;2.3152;2.4852;-0.0793;-0.0322;0.0298
0000675436;5.0996;2.4014;2.5211;-0.0497;-0.0909;0.0369
0000675444;5.1715;2.5905;2.5091;-0.0168;-0.1577;0.0156
0000675453;5.1739;2.5570;2.6169;0.0053;-0.2284;-0.0365
0000675461;5.4348;2.7342;2.5235;0.0047;-0.2646;-0.0654
0000675469;5.2409;2.7509;2.4229;-0.0032;-0.2864;-0.0893
0000675481;5.3726;2.7557;2.3176;-0.0149;-0.3607;-0.1095
0000675489;5.2984;2.7126;2.3607;-0.0246;-0.3706;-0.1011
0000675500;5.4253;2.5809;2.3343;-0.0321;-0.3854;-0.1023
0000675508;5.4253;2.4660;2.4421;-0.0394;-0.3806;-0.0818
0000675520;5.6240;2.1021;2.3822;-0.0314;-0.3936;-0.0381
0000675528;5.9496;2.1332;2.4325;-0.0075;-0.4104;0.0083
0000675539;6.1028;2.0207;2.3032;0.0334;-0.4672;0.0421
0000675547;6.3638;2.3487;2.2721;0.0506;-0.5047;0.0442
0000675555;6.6248;2.4995;2.3080;0.0536;-0.5196;0.0436
0000675567;7.2472;3.0167;2.3679;0.0606;-0.5373;0.0286
0000675575;7.0701;2.6624;2.3774;0.0498;-0.5379;0.0261
0000675643;7.4220;2.9856;3.0311;0.0104;-0.2117;-0.1426
0000675651;7.2257;3.2968;3.1987;-0.0261;-0.1412;-0.1772
0000675663;6.9791;3.0215;3.2346;-0.0584;-0.0456;-0.2118
0000675671;6.8019;3.0478;3.1412;-0.0673;0.0104;-0.2301
0000675682;6.4739;2.5881;3.0215;-0.0766;0.0662;-0.2298
0000675690;6.1339;2.3415;2.9521;-0.0978;0.0745;-0.2133
0000675698;6.2345;2.0686;2.8683;-0.1278;0.0793;-0.1647
0000675710;6.2824;1.5993;2.9305;-0.1502;0.0633;-0.1106
0000675718;6.1531;1.5419;2.9018;-0.1617;0.0352;-0.0674
0000675729;6.5290;1.6999;2.9999;-0.1311;-0.0240;-0.0738
0000675737;6.9887;2.0853;2.8587;-0.1079;-0.0617;-0.0886
0000675749;7.2353;2.2122;2.9042;-0.0891;-0.1074;-0.1350
0000675757;7.3143;2.3607;2.5953;-0.0810;-0.1244;-0.1688
0000675765;7.4292;2.5402;2.5762;-0.0851;-0.1262;-0.1784
0000675776;7.3861;2.6671;2.5786;-0.0950;-0.1186;-0.1893
0000675784;7.4340;2.7653;2.4995;-0.1186;-0.1003;-0.1711
0000675796;7.3837;2.4852;2.4972;-0.1478;-0.0838;-0.1338
0000675804;7.4795;2.3822;2.5307;-0.1756;-0.0614;-0.1014
0000675815;7.7021;2.2314;2.4636;-0.1828;-0.0438;-0.0711
0000675823;7.7979;2.2266;2.5426;-0.1700;-0.0258;-0.0649
0000675835;7.9559;2.2817;2.6073;-0.1324;0.0093;-0.0850
0000675843;7.7093;2.3559;2.6456;-0.0929;0.0288;-0.1049
0000675851;7.5106;2.5211;2.5331;-0.0486;0.0442;-0.1244
0000675919;7.6614;2.4205;1.9872;0.0925;-0.0911;0.0425
0000675927;7.9727;2.7845;1.8914;0.1029;-0.0950;0.0552
0000675940;8.2361;3.0047;1.7597;0.1202;-0.0923;0.0609
0000675947;8.2217;2.9329;1.6448;0.1362;-0.0853;0.0549
0000675958;8.5401;3.0335;1.5897;0.1158;-0.0604;0.0545
0000675966;8.3582;2.7964;1.6879;0.1046;-0.0441;0.0577
0000675974;8.2887;2.5331;1.7406;0.0950;-0.0316;0.0517
0000675986;8.5234;2.4541;1.9201;0.0673;-0.0020;0.0634
0000675994;8.5712;2.5211;1.9010;0.0598;0.0272;0.0677
0000676005;8.7460;2.4014;1.8651;0.0622;0.0754;0.0825
0000676013;8.8011;2.4373;1.8076;0.0659;0.1156;0.1029
0000676025;9.2919;2.4062;1.8555;0.0727;0.1707;0.1426
0000676033;9.3230;2.3703;1.8316;0.0877;0.2046;0.1559
0000676041;9.5074;2.5043;1.7573;0.1170;0.2539;0.1679
0000676052;9.0525;2.0638;1.6185;0.1438;0.3147;0.1647
0000676060;9.0237;2.1668;1.5251;0.1633;0.3588;0.1647
0000676072;8.6814;2.4421;1.4629;0.1836;0.4049;0.1424
0000676080;8.6622;2.5714;1.3958;0.2062;0.4266;0.1274
0000676091;8.4084;2.3559;1.2139;0.2049;0.4644;0.1150
0000676099;8.4467;2.6408;1.1636;0.2182;0.4863;0.1077
0000676107;8.3510;2.6671;1.1109;0.2240;0.5035;0.1038
0000676119;8.0876;2.4804;1.1349;0.2192;0.5324;0.1005
0000676127;8.2815;2.7054;1.0151;0.2220;0.5537;0.0905
0000676193;6.4141;2.3320;2.0470;0.1131;0.3589;-0.0901
0000676201;6.4021;2.2218;2.0662;0.1013;0.3055;-0.1278
0000676213;6.4428;2.5235;2.2625;0.0589;0.2281;-0.1768
0000676221;6.3159;3.1388;2.5402;0.0270;0.1747;-0.1931
0000676229;6.1435;3.6966;2.7007;-0.0117;0.1025;-0.1993
0000676240;5.4229;4.0127;2.8683;-0.0794;0.0105;-0.1648
0000676248;5.1212;4.1061;2.8730;-0.1200;-0.0646;-0.1230
0000676260;5.1954;3.7996;3.0646;-0.1672;-0.1659;-0.0286
0000676268;5.6934;3.5314;2.9257;-0.1765;-0.2256;0.0536
0000676279;6.5745;2.7031;3.0622;-0.1483;-0.2964;0.1091
0000676287;7.1587;2.3224;2.8706;-0.1192;-0.3196;0.1211
0000676295;8.0661;2.0877;2.6169;-0.0926;-0.3376;0.1086
0000676307;8.7915;1.7406;2.2170;-0.0727;-0.3456;0.0596
0000676315;9.2847;1.7693;2.1189;-0.0775;-0.3194;0.0249
0000676326;9.2895;1.9130;1.9178;-0.0826;-0.2577;-0.0242
0000676334;9.0812;1.8842;1.8651;-0.0746;-0.1956;-0.0544
0000676346;8.4396;2.3343;1.9489;-0.0743;-0.1074;-0.0581
0000676354;7.9224;2.5402;2.1500;-0.0697;-0.0598;-0.0474
0000676365;7.6088;2.9521;2.2122;-0.0715;-0.0059;-0.0139
0000676373;7.2425;2.9880;2.3463;-0.0628;0.0132;0.0067
0000676381;7.1706;3.0789;2.3104;-0.0713;0.0382;0.0344
0000676393;7.1084;2.9999;2.2170;-0.0723;0.0520;0.0472
0000676401;7.2257;2.8180;2.1428;-0.0851;0.0662;0.0524
0000676468;6.7109;2.5857;2.2362;-0.0344;0.1214;0.0783
0000676476;6.6726;2.7078;2.2769;-0.0376;0.0945;0.0745
0000676488;6.7732;2.6935;2.2673;-0.0578;0.0380;0.0675
0000676496;6.9001;2.7845;2.2793;-0.0659;-0.0059;0.0537
0000676504;6.9647;2.6552;2.3224;-0.0791;-0.0309;0.0406
0000676515;6.8857;2.4110;2.3511;-0.0974;-0.0617;0.0209
0000676523;6.9121;2.3391;2.3272;-0.1050;-0.0706;0.0057
0000676535;6.9336;2.2075;2.4253;-0.0953;-0.0866;-0.0124
0000676543;6.9743;2.3918;2.3966;-0.0863;-0.0907;-0.0245
0000676554;6.6056;2.2458;2.3559;-0.0598;-0.1034;-0.0273
0000676562;6.6726;2.1476;2.3655;-0.0374;-0.1166;-0.0325
0000676574;6.5960;2.2314;2.2817;-0.0157;-0.1348;-0.0300
0000676582;6.7612;2.4205;2.2146;-0.0052;-0.1439;-0.0334
0000676590;6.8283;2.5642;2.1859;0.0029;-0.1504;-0.0332
0000676601;7.2065;2.7581;2.2075;0.0021;-0.1551;-0.0340
0000676609;7.0270;2.6408;2.1428;-0.0043;-0.1475;-0.0316
0000676621;7.2736;2.6911;2.1404;-0.0191;-0.1439;-0.0349
0000676629;7.2472;2.6935;2.0925;-0.0264;-0.1375;-0.0344
0000676640;7.2544;2.5953;2.2745;-0.0248;-0.1212;-0.0408
0000676648;7.4555;2.7222;2.3176;-0.0265;-0.1042;-0.0360
0000676660;7.4891;2.6049;2.3343;-0.0185;-0.0802;-0.0337
0000676668;7.2616;2.4565;2.2625;-0.0109;-0.0642;-0.0357
0000676676;7.1658;2.4157;2.1931;-0.0081;-0.0492;-0.0274
0000676743;7.0413;2.5714;2.1859;0.0049;0.0414;0.0228
0000676751;7.2185;2.7031;2.2505;0.0051;0.0445;0.0188
0000676763;7.3095;2.5809;2.3224;0.0079;0.0541;0.0189
0000676771;7.3861;2.7270;2.3631;0.0161;0.0505;0.0117
0000676782;7.0078;2.5043;2.2960;0.0124;0.0500;0.0060
0000676790;7.0390;2.6408;2.3080;-0.0031;0.0482;0.0101
0000676798;7.0437;2.4469;2.3391;-0.0055;0.0462;0.0109
0000676810;7.0413;2.6097;2.3008;-0.0144;0.0409;0.0083
0000676818;6.9192;2.6240;2.4229;-0.0076;0.0328;0.0028
0000676830;6.7564;2.5642;2.3870;-0.0057;0.0254;0.0064
0000676838;6.9695;2.5163;2.4469;-0.0060;0.0204;0.0087
0000676849;6.9935;2.5881;2.3583;0.0028;0.0152;0.0072
0000676857;7.1251;2.6552;2.3439;-0.0005;0.0192;0.0088
0000676865;6.8259;2.3607;2.2529;-0.0061;0.0168;0.0039
0000676877;7.1251;2.6528;2.3559;-0.0137;0.0132;0.0023
0000676885;7.0653;2.5235;2.2913;-0.0161;0.0031;-0.0039
0000676896;7.0126;2.4995;2.3032;-0.0261;0.0005;-0.0033
0000676904;6.9168;2.5043;2.3152;-0.0282;-0.0004;-0.0067
0000676916;6.8809;2.5498;2.2936;-0.0296;-0.0144;-0.0097
0000676924;6.8929;2.5115;2.3894;-0.0300;-0.0185;-0.0131
0000676932;6.7971;2.5474;2.3272;-0.0183;-0.0268;-0.0128
0000677001;7.0078;2.5786;2.3367;-0.0230;-0.0380;-0.0152
0000677009;6.9216;2.4014;2.2697;-0.0225;-0.0384;-0.0173
0000677021;6.7995;2.4708;2.2601;-0.0152;-0.0498;-0.0169
0000677029;7.0126;2.5977;2.3152;-0.0201;-0.0517;-0.0125
0000677040;6.9815;2.4397;2.3343;-0.0171;-0.0652;-0.0155
0000677048;6.9647;2.5379;2.3200;-0.0184;-0.0671;-0.0145
0000677060;6.9935;2.4636;2.2649;-0.0067;-0.0677;-0.0187
0000677068;7.0749;2.5019;2.2529;0.0004;-0.0746;-0.0260
0000677076;6.9647;2.4708;2.3655;-0.0033;-0.0725;-0.0228
0000677087;6.9456;2.4086;2.3439;0.0091;-0.0693;-0.0191
0000677095;7.1132;2.4493;2.2865;0.0080;-0.0662;-0.0233
0000677107;7.0246;2.4014;2.2577;0.0125;-0.0671;-0.0205
0000677115;7.1874;2.5402;2.2577;0.0083;-0.0674;-0.0220
0000677126;7.0533;2.5115;2.3296;0.0116;-0.0721;-0.0216
0000677134;6.9336;2.5043;2.2865;0.0152;-0.0758;-0.0222
0000677146;6.9719;2.5426;2.3152;0.0157;-0.0730;-0.0143
0000677154;6.9480;2.5522;2.2338;0.0152;-0.0699;-0.0105
0000677162;7.0557;2.5546;2.2625;0.0207;-0.0753;-0.0163
0000677173;7.1587;2.5642;2.1835;0.0040;-0.0683;-0.0119
0000677181;7.1443;2.6049;2.2721;0.0027;-0.0657;-0.0111
0000677193;7.2113;2.6504;2.2841;0.0005;-0.0679;-0.0192
0000677201;7.1730;2.6001;2.2075;-0.0036;-0.0560;-0.0135
0000677268;7.0581;2.5714;2.2458;0.0003;-0.0831;-0.0297
0000677276;7.1299;2.6552;2.2098;0.0029;-0.0803;-0.0365
0000677284;7.0174;2.5762;2.1955;0.0051;-0.0793;-0.0306
0000677296;7.1060;2.4995;2.2386;0.0077;-0.0827;-0.0340
0000677304;7.1395;2.4612;2.3439;0.0019;-0.0774;-0.0280
0000677315;7.1874;2.5905;2.2218;-0.0008;-0.0707;-0.0257
0000677323;7.3191;2.7390;2.3056;-0.0028;-0.0671;-0.0256
0000677335;7.0892;2.5331;2.3439;-0.0009;-0.0654;-0.0244
0000677343;7.2760;2.6001;2.2194;0.0037;-0.0734;-0.0294
0000677354;7.1635;2.5259;2.2601;0.0048;-0.0628;-0.0264
0000677362;7.0964;2.5426;2.2362;0.0091;-0.0690;-0.0292
0000677370;7.2113;2.5929;2.2721;0.0036;-0.0569;-0.0234
0000677382;7.0964;2.4205;2.3008;0.0116;-0.0645;-0.0298
0000677390;7.0509;2.3846;2.2984;0.0151;-0.0618;-0.0224
0000677401;7.3191;2.6767;2.2649;0.0176;-0.0657;-0.0269
0000677409;7.2520;2.6336;2.3320;0.0112;-0.0618;-0.0176
0000677421;7.2856;2.5450;2.3128;0.0153;-0.0630;-0.0175
0000677429;7.3694;2.5307;2.2721;0.0199;-0.0610;-0.0173
0000677440;7.1180;2.5450;2.2889;0.0256;-0.0618;-0.0209
0000677448;7.2472;2.6121;2.2410;0.0230;-0.0520;-0.0169
0000677456;7.2808;2.4301;2.1811;0.0298;-0.0418;-0.0135
0000677468;7.3694;2.5690;2.2362;0.0413;-0.0358;-0.0184
0000677476;7.2712;2.6312;2.2075;0.0506;-0.0333;-0.0192
0000677543;7.2329;2.5139;2.3750;0.0578;-0.0041;0.0084
0000677551;7.1539;2.4086;2.5857;0.0673;-0.0080;0.0019
0000677563;7.2640;2.3798;2.6049;0.0863;-0.0048;0.0077
0000677571;7.2880;2.2051;2.5570;0.1070;-0.0135;-0.0029
0000677579;7.2281;2.2362;2.5498;0.1167;-0.0175;0.0011
0000677590;7.0222;2.1476;2.6695;0.1306;-0.0345;-0.0103
0000677598;7.3239;2.4565;2.5881;0.1258;-0.0330;-0.0120
0000677610;7.2712;2.3846;2.7174;0.1334;-0.0406;-0.0301
0000677618;7.2329;2.3846;2.7054;0.1230;-0.0456;-0.0370
0000677629;7.2233;2.4924;2.7198;0.1263;-0.0522;-0.0342
0000677637;7.1946;2.4852;2.6911;0.1215;-0.0663;-0.0453
0000677645;7.2496;2.4325;2.8323;0.1196;-0.0845;-0.0522
0000677657;7.0701;2.3511;2.7725;0.1027;-0.0949;-0.0561
0000677665;7.2401;2.3559;2.8467;0.0991;-0.1174;-0.0699
0000677676;7.2712;2.3631;2.8323;0.0945;-0.1374;-0.0866
0000677684;7.3694;2.2889;2.9712;0.0977;-0.1599;-0.1022
0000677696;7.2449;2.0207;2.9353;0.1057;-0.1821;-0.1187
0000677704;7.2951;2.0087;2.9353;0.1088;-0.1887;-0.1296
0000677715;7.3358;2.0782;2.9712;0.1358;-0.2140;-0.1507
0000677723;7.2856;2.0830;2.8347;0.1412;-0.2230;-0.1591
0000677731;7.1515;2.0638;2.9113;0.1332;-0.2330;-0.1532
0000677743;7.2353;2.2984;2.8084;0.1426;-0.2530;-0.1589
0000677751;7.1347;2.1572;3.0502;0.1748;-0.2795;-0.1893
0000677815;7.3071;1.7047;3.1101;0.2140;-0.4695;-0.2709
0000677823;7.6064;1.8723;2.9329;0.1961;-0.4746;-0.2717
0000677835;7.7333;1.7933;2.8994;0.1924;-0.5048;-0.2930
0000677843;7.4316;1.5275;2.8706;0.1929;-0.5219;-0.3126
0000677851;7.6806;1.3671;2.9688;0.1651;-0.5071;-0.3123
0000677862;7.6686;1.2139;2.9592;0.1551;-0.5260;-0.3166
0000677870;7.7883;1.3240;2.8683;0.1464;-0.5349;-0.3219
0000677882;7.6926;0.9433;3.1077;0.1436;-0.5536;-0.3277
0000677890;7.7452;0.7901;2.9640;0.1540;-0.5630;-0.3283
0000677901;7.8003;0.7638;3.2633;0.1455;-0.5733;-0.3007
0000677909;7.4603;0.5483;3.1699;0.1372;-0.5850;-0.2706
0000677921;7.2640;0.1939;3.1196;0.1299;-0.5991;-0.2397
0000677929;7.0820;-0.0742;3.0909;0.1187;-0.6190;-0.2008
0000677937;6.7636;-0.4717;3.1891;0.1547;-0.6444;-0.1737
0000677948;6.5027;-0.8236;3.0670;0.1759;-0.7104;-0.1336
0000677956;6.4308;-1.2043;3.1196;0.1968;-0.7506;-0.1254
0000677968;6.6272;-1.0630;2.4948;0.1721;-0.7646;-0.1340
0000677976;6.9288;-1.0774;2.5977;0.1623;-0.7857;-0.1577
0000677987;7.3957;-0.8284;2.4660;0.0429;-0.7686;-0.1860
0000677995;7.8027;-0.3328;2.2865;-0.0196;-0.7501;-0.2234
0000678007;8.3246;0.2945;1.9225;-0.1091;-0.6416;-0.2713
0000678015;8.4994;0.6440;1.9225;-0.1871;-0.5762;-0.2986
0000678023;8.6287;1.1684;1.8387;-0.2884;-0.5264;-0.3134
0000678087;4.8315;-3.9983;2.0686;-0.6131;-0.8801;-0.1675
0000678095;5.2146;-4.4412;1.9585;-0.5489;-0.9341;-0.1375
0000678107;6.1603;-4.7094;1.2163;-0.4864;-0.9443;-0.1315
0000678115;6.7349;-4.6855;1.2761;-0.4916;-0.8687;-0.1088
0000678126;7.8338;-4.2760;1.6735;-0.4923;-0.7067;-0.0899
0000678134;8.0637;-4.1875;1.3431;-0.4102;-0.5875;-0.0634
0000678146;8.5760;-3.9576;1.4078;-0.1420;-0.4235;0.0141
0000678154;8.4611;-4.2162;1.3384;0.0203;-0.3597;0.1096
0000678162;8.1882;-4.2617;0.9529;0.1949;-0.3455;0.1980
0000678173;7.7213;-4.3718;0.0551;0.4469;-0.4046;0.2519
0000678181;6.9599;-4.4796;-0.6416;0.5986;-0.4475;0.2281
0000678193;6.5170;-4.1755;-1.5251;0.7468;-0.4938;0.0834
0000678201;6.2321;-3.7996;-1.6640;0.7492;-0.4712;-0.0573
0000678213;6.8761;-2.3535;-0.6728;0.5995;-0.3516;-0.2971
0000678221;7.8051;-1.2833;0.2370;0.4133;-0.2337;-0.4113
0000678232;8.4060;-1.4485;-0.2873;0.3484;-0.1641;-0.4409
0000678240;8.6311;-2.1141;-1.1540;0.4423;-0.1251;-0.3905
0000678252;8.3701;-2.8467;-1.1612;0.5801;-0.0075;-0.3421
0000678260;7.8841;-3.1747;-0.8308;0.6021;0.1067;-0.3857
0000678268;7.5992;-3.2082;-0.9529;0.7132;0.2212;-0.4898
0000678280;7.4124;-3.0239;-0.4405;0.8499;0.4455;-0.7406
0000678288;7.4005;-2.6743;0.0622;0.9284;0.5808;-0.8549
0000678354;4.3263;3.1029;2.4565;2.2184;-0.5153;-0.2045
0000678362;4.6519;2.9281;2.5426;2.1929;-0.6496;-0.5344
0000678373;5.9041;1.6448;2.2960;2.1763;-0.7470;-1.0404
0000678381;6.3494;0.7063;2.1835;2.2154;-0.7564;-1.3347
0000678389;7.1850;0.0335;1.8507;2.3156;-0.7273;-1.5904
0000678401;7.6806;-0.9768;0.6871;2.5783;-0.5891;-1.8623
0000678409;7.8123;-1.0080;0.0958;2.7761;-0.5161;-2.0097
0000678420;7.2712;0.1604;-0.4812;2.8988;-0.4278;-2.1617
0000678428;6.4931;1.6113;-1.0534;2.9496;-0.4203;-2.2495
0000678440;4.4365;4.1779;-1.0558;2.7715;-0.3463;-2.3820
0000678448;2.9066;6.9599;-1.2881;2.5263;-0.2445;-2.4630
0000678459;0.5818;14.0635;-3.3136;2.7807;0.3275;-2.4341
0000678467;0.6536;18.8376;-5.2912;2.2159;0.4968;-2.2355
0000678475;-1.2905;26.5230;-10.5536;2.4590;1.3733;-2.2226
0000678487;-6.9959;35.3671;-18.0523;3.6512;2.3563;-2.4900
0000678495;-11.8154;50.5799;-25.1774;4.3656;3.1820;-1.9418
0000678506;-15.6581;51.2814;-23.1447;4.3656;2.9155;-0.5997
0000678514;-9.3206;26.0058;-21.0043;4.3656;1.8211;-1.6272
0000678526;-3.3016;2.5355;-8.2480;3.6825;0.1155;-2.9925
0000678534;-1.4198;-2.9209;-7.5226;3.3578;-0.5023;-3.2618
0000678546;0.0287;-4.0773;-11.3389;3.1784;-0.5092;-3.1646
0000678554;0.4262;-2.8611;-16.0579;2.5983;-0.4073;-2.5976
0000678619;5.0087;-1.7023;-3.3184;-0.7197;0.9646;0.1420
0000678627;5.1236;-4.3239;-3.3399;-0.7755;1.0682;0.3007
0000678638;4.8267;-6.7995;-4.1635;-0.6599;1.2367;0.4121
0000678646;4.7238;-7.7309;-5.1404;-0.5597;1.3340;0.3620
0000678654;4.7477;-7.9344;-5.7437;-0.5894;1.4488;0.2935
0000678666;4.4125;-8.1714;-5.5593;-0.6646;1.4729;0.3459
0000678674;3.8211;-8.2361;-5.0685;-0.5705;1.3967;0.4847
0000678685;3.4405;-7.2425;-4.5274;-0.1458;1.3851;0.5848
0000678693;3.4381;-6.1411;-4.0510;0.2814;1.5212;0.3544
0000678705;3.8427;-4.4508;-4.2042;0.6386;1.6892;-0.1960
0000678713;4.2808;-3.4572;-5.4229;0.6380;1.7106;-0.3567
0000678724;3.8906;-2.7438;-7.0581;0.4048;1.7011;-0.2928
0000678732;3.2346;-2.3152;-7.7045;0.1466;1.6426;-0.1767
0000678740;1.8244;-2.3774;-8.1211;-0.0763;1.5859;-0.0783
0000678752;0.2418;-2.0327;-7.4986;-0.2657;1.5154;0.0757
0000678760;-0.1676;-1.7286;-7.0270;-0.2699;1.4595;0.1569
0000678771;-0.3831;-1.9920;-6.8618;-0.1444;1.3684;0.2441
0000678779;0.2777;-2.2362;-7.6040;-0.0111;1.2809;0.2629
0000678791;0.9074;-2.2386;-8.2073;0.1545;1.1552;0.2539
0000678799;1.3408;-1.6472;-8.3653;0.2477;1.0595;0.2454
0000678811;1.4341;-0.6680;-8.9878;0.3774;0.9277;0.2513
0000678819;1.3192;-0.2801;-9.6319;0.4330;0.8513;0.2535
0000678827;0.6919;0.0599;-10.3813;0.4648;0.7837;0.2601
0000678892;4.5083;2.5857;-12.7204;0.5752;0.4866;0.5096
0000678900;4.3766;3.0694;-11.8513;0.4584;0.4447;0.4911
0000678911;3.5003;2.7749;-11.0588;0.2330;0.3479;0.5044
0000678919;3.4046;1.9441;-10.4220;0.1243;0.2381;0.5279
0000678931;3.5219;0.5746;-9.2608;0.0095;0.0790;0.5446
0000678939;3.9289;-0.3089;-8.2744;-0.0646;-0.0152;0.5276
0000678947;5.1284;-0.8021;-7.5681;-0.1107;-0.0633;0.5069
0000678958;5.9687;-1.9082;-7.0413;-0.1299;-0.0501;0.4862
0000678966;6.9121;-2.3703;-6.7564;-0.0990;-0.0097;0.4842
0000678978;7.9368;-2.6695;-6.8738;-0.0565;0.0857;0.4742
0000678986;7.9823;-2.8491;-7.0773;-0.0310;0.1434;0.4510
0000678997;8.0182;-2.1069;-7.2592;0.0522;0.1705;0.3992
0000679005;7.3622;-1.4844;-7.5561;0.1136;0.1623;0.3741
0000679017;6.2034;-0.4932;-8.2672;0.1164;0.0909;0.3608
0000679025;5.8323;0.0718;-8.6167;0.0282;0.0298;0.3597
0000679033;5.5258;0.2155;-8.7125;-0.0937;-0.0211;0.3806
0000679044;5.4300;0.2227;-8.6838;-0.2738;-0.1023;0.3990
0000679052;5.5952;0.0910;-8.5545;-0.3856;-0.1519;0.4117
0000679064;5.6958;-0.2035;-8.2624;-0.5069;-0.2262;0.4069
0000679072;5.8682;-0.3112;-8.1355;-0.5558;-0.2746;0.3781
0000679084;5.9735;-0.5076;-8.3414;-0.5605;-0.3203;0.3147
0000679092;6.1603;-0.5076;-8.5042;-0.5263;-0.3361;0.2635
0000679160;6.0765;1.0271;-7.0126;-0.4931;-0.2358;0.0185
0000679168;5.9304;1.1420;-6.2776;-0.4926;-0.2433;-0.0072
0000679179;5.8012;1.2857;-6.0023;-0.4557;-0.3143;-0.0124
0000679187;5.5354;1.1037;-5.8371;-0.4366;-0.3986;0.0067
0000679195;5.2601;0.9744;-5.7197;-0.4012;-0.4902;0.0261
0000679207;5.0685;0.7494;-5.6048;-0.3283;-0.5600;0.0578
0000679215;5.1523;0.9385;-5.6144;-0.3019;-0.5666;0.0835
0000679227;5.2553;1.3862;-5.4779;-0.2241;-0.5233;0.0926
0000679235;5.5809;1.5347;-5.4995;-0.1888;-0.4886;0.0991
0000679247;6.0932;2.0638;-5.5402;-0.1941;-0.4459;0.1414
0000679255;6.1004;2.0590;-5.5545;-0.2218;-0.4289;0.1716
0000679266;6.4141;2.0399;-5.7221;-0.3024;-0.4022;0.2122
0000679274;6.6319;1.6903;-5.7030;-0.3545;-0.3812;0.2209
0000679282;6.9216;1.5107;-5.5689;-0.3888;-0.3460;0.2166
0000679294;6.7516;1.0965;-5.3032;-0.3613;-0.2980;0.1649
0000679302;6.7900;1.2881;-5.2601;-0.3054;-0.2726;0.1234
0000679313;6.4524;1.3934;-5.3391;-0.2206;-0.2321;0.0829
0000679321;6.3255;1.3623;-5.4564;-0.1731;-0.1972;0.0586
0000679333;6.0789;1.2929;-5.3678;-0.1081;-0.1680;0.0254
0000679341;5.8993;1.1301;-5.4899;-0.0715;-0.1438;0.0192
0000679353;5.9927;1.0989;-5.6144;-0.0212;-0.1215;-0.0139
0000679361;5.9831;1.1085;-5.6407;0.0157;-0.0977;-0.0334
0000679369;5.8945;1.0463;-5.5689;0.0546;-0.0729;-0.0526
0000679436;5.7221;0.8021;-6.1818;0.2340;0.0031;-0.1151
0000679444;5.7389;0.7757;-6.3351;0.2426;-0.0016;-0.1183
0000679455;5.6790;0.8236;-6.5841;0.2501;-0.0140;-0.1388
0000679463;5.6479;0.8045;-6.6343;0.2479;-0.0144;-0.1455
0000679475;5.6216;0.8691;-6.8570;0.2399;-0.0191;-0.1615
0000679483;5.8227;0.9433;-6.8139;0.2330;-0.0334;-0.1793
0000679495;5.6288;0.8380;-7.0557;0.2184;-0.0191;-0.1853
0000679503;5.4372;0.8380;-6.9264;0.2038;-0.0147;-0.1931
0000679511;5.4085;0.8667;-6.9935;0.1961;-0.0029;-0.1933
0000679523;5.5091;0.8428;-6.9647;0.1685;0.0145;-0.1867
0000679531;5.3798;0.7638;-6.9121;0.1648;0.0274;-0.1823
0000679543;5.5498;0.7829;-6.9671;0.1494;0.0314;-0.1804
0000679551;5.4803;0.7422;-7.0078;0.1455;0.0305;-0.1797
0000679564;5.4420;0.8715;-6.9576;0.1310;0.0342;-0.1681
0000679571;5.3486;0.7302;-6.9049;0.1258;0.0366;-0.1579
0000679583;5.2553;0.6728;-6.8785;0.1196;0.0240;-0.1507
0000679591;5.3893;0.6776;-6.8666;0.1183;0.0248;-0.1442
0000679599;5.2816;0.6345;-6.8354;0.1079;0.0270;-0.1315
0000679611;5.3870;0.7135;-6.8522;0.1015;0.0192;-0.1203
0000679619;5.2194;0.5722;-6.8905;0.0963;0.0156;-0.1079
0000679631;5.0805;0.6321;-7.0366;0.0791;0.0143;-0.0963
0000679639;5.2194;0.7877;-6.9791;0.0550;0.0213;-0.0781
0000679707;5.1475;0.4908;-7.0006;0.0027;0.0670;-0.0474
0000679715;5.1523;0.4860;-6.9983;-0.0089;0.0638;-0.0341
0000679723;5.2529;0.4357;-6.9025;-0.0169;0.0580;-0.0334
0000679735;5.0470;0.4357;-6.7828;-0.0373;0.0540;-0.0293
0000679743;4.8961;0.4022;-6.7947;-0.0402;0.0404;-0.0406
0000679755;5.0063;0.3567;-6.8259;-0.0473;0.0438;-0.0286
0000679763;5.0829;0.4836;-6.8115;-0.0454;0.0446;-0.0141
0000679775;5.1236;0.4477;-6.8043;-0.0454;0.0268;-0.0037
0000679783;5.1906;0.5962;-6.9240;-0.0525;0.0261;0.0103
0000679795;5.3175;0.6704;-6.8019;-0.0693;0.0195;0.0253
0000679803;5.2577;0.6632;-6.8929;-0.0718;0.0121;0.0257
0000679811;5.2577;0.4932;-6.8761;-0.0745;0.0080;0.0260
0000679823;5.3223;0.6369;-6.7038;-0.0823;0.0115;0.0353
0000679831;5.3702;0.5698;-6.7421;-0.0794;0.0145;0.0318
0000679843;5.3415;0.6512;-6.7708;-0.0742;0.0160;0.0334
0000679851;5.2289;0.3950;-6.7277;-0.0731;0.0165;0.0370
0000679863;5.2768;0.6536;-6.7397;-0.0679;0.0060;0.0393
0000679871;5.3678;0.5387;-6.7301;-0.0580;-0.0012;0.0398
0000679883;5.5498;0.7685;-6.7828;-0.0574;-0.0028;0.0433
0000679891;5.5282;0.7853;-6.7660;-0.0516;-0.0155;0.0401
0000679899;5.4348;0.4956;-6.8450;-0.0449;-0.0183;0.0357
0000679911;5.4803;0.5938;-6.8402;-0.0493;-0.0199;0.0332
0000679919;5.5210;0.7254;-6.8139;-0.0470;-0.0185;0.0370
0000679987;5.6168;0.8380;-6.7397;-0.0332;-0.0301;0.0148
0000679995;5.6743;0.7733;-6.8187;-0.0329;-0.0322;0.0123
0000680007;5.4444;0.8092;-6.8450;-0.0274;-0.0425;0.0084
0000680015;5.6503;0.8380;-6.7732;-0.0353;-0.0376;0.0059
0000680027;5.5976;0.7063;-6.7445;-0.0337;-0.0370;0.0052
0000680035;5.5689;0.8092;-6.8163;-0.0342;-0.0424;0.0031
0000680043;5.4516;0.6225;-6.4883;-0.0261;-0.0440;-0.0095
0000680055;5.3965;0.6345;-6.7253;-0.0278;-0.0485;-0.0021
0000680063;5.3367;0.5674;-6.7038;-0.0302;-0.0492;0.0027
0000680075;5.4612;0.6440;-6.7732;-0.0313;-0.0442;-0.0044
0000680083;5.6360;0.8140;-6.6726;-0.0320;-0.0428;-0.0127
0000680095;5.4253;0.6321;-6.6942;-0.0314;-0.0397;-0.0147
0000680103;5.5522;0.7949;-6.7205;-0.0276;-0.0421;-0.0196
0000680115;5.5043;0.6800;-6.6966;-0.0286;-0.0349;-0.0085
0000680123;5.5162;0.6680;-6.7038;-0.0233;-0.0401;-0.0080
0000680131;5.3822;0.7087;-6.5960;-0.0144;-0.0424;-0.0059
0000680143;5.3917;0.6752;-6.5864;-0.0063;-0.0508;-0.0037
0000680151;5.3846;0.7111;-6.6415;-0.0056;-0.0468;0.0043
0000680163;5.5593;0.6704;-6.6655;0.0008;-0.0466;0.0049
0000680171;5.6383;0.8571;-6.6104;0.0051;-0.0441;0.0021
0000680183;5.5641;0.6943;-6.7157;0.0121;-0.0514;-0.0067
0000680191;5.6240;0.8859;-6.7876;0.0133;-0.0445;-0.0001
0000680259;5.4779;0.6416;-6.8570;0.0264;-0.0418;-0.0193
0000680267;5.6312;0.7661;-6.7947;0.0253;-0.0393;-0.0153
0000680279;5.6575;0.7949;-6.7493;0.0297;-0.0406;-0.0229
0000680287;5.4803;0.7661;-6.8522;0.0324;-0.0398;-0.0217
0000680295;5.5019;0.7230;-6.9121;0.0224;-0.0346;-0.0147
0000680307;5.3846;0.6345;-6.7445;0.0245;-0.0417;-0.0157
0000680315;5.5593;0.7805;-6.8091;0.0229;-0.0426;-0.0148
0000680327;5.5186;0.5794;-6.7229;0.0261;-0.0345;-0.0204
0000680335;5.6000;0.7015;-6.7924;0.0285;-0.0429;-0.0209
0000680347;5.6503;0.6752;-6.4787;0.0461;-0.0480;-0.0268
0000680355;5.6144;0.6177;-6.4165;0.0814;-0.0682;-0.0405
0000680367;5.4660;0.5770;-6.6439;0.1211;-0.0963;-0.0478
0000680375;5.5019;0.6081;-6.5841;0.1508;-0.0991;-0.0497
0000680383;5.3870;0.6297;-6.6750;0.1745;-0.1026;-0.0485
0000680395;5.4109;0.7159;-6.9528;0.1683;-0.0949;-0.0285
0000680403;5.0685;0.5148;-7.1970;0.1370;-0.1015;-0.0029
0000680415;5.2529;0.4573;-7.3430;0.0749;-0.0905;0.0209
0000680423;5.3391;0.5004;-7.3622;0.0348;-0.0979;0.0298
0000680436;5.6503;0.6823;-7.4579;-0.0453;-0.0766;0.0115
0000680445;5.6072;0.7661;-7.4531;-0.0806;-0.0568;-0.0060
0000680458;5.6240;0.9170;-7.2401;-0.1171;-0.0332;-0.0289
0000680467;5.6527;0.9984;-7.0868;-0.1239;-0.0224;-0.0462
0000680476;5.4157;0.6823;-6.8761;-0.1215;-0.0107;-0.0449
0000680545;5.5952;0.5674;-6.6319;-0.0356;-0.0759;-0.0172
0000680554;5.6790;0.5459;-6.5505;-0.0234;-0.0843;-0.0334
0000680567;5.5929;0.5411;-6.3805;-0.0051;-0.0747;-0.0380
0000680576;5.7389;0.5938;-6.2704;0.0153;-0.0637;-0.0430
0000680589;5.6455;0.6057;-6.3686;0.0713;-0.0594;-0.0528
0000680598;5.4420;0.5387;-6.5817;0.0927;-0.0542;-0.0501
0000680611;5.6838;0.8523;-6.6463;0.1010;-0.0341;-0.0550
0000680620;5.5498;0.6369;-6.8283;0.1045;-0.0266;-0.0630
0000680629;5.3343;0.6656;-6.9408;0.1011;-0.0444;-0.0586
0000680642;5.4300;0.6704;-6.6152;0.0983;-0.0200;-0.0544
0000680651;5.1571;0.4381;-6.8761;0.0938;-0.0396;-0.0450
0000680664;5.2074;0.4956;-6.8450;0.0987;-0.0441;-0.0372
0000680673;5.4396;0.5315;-6.7564;0.1123;-0.0207;-0.0441
0000680686;5.2265;0.5004;-7.1467;0.0841;-0.0298;-0.0353
0000680695;5.4181;0.6033;-7.1826;0.0601;-0.0215;-0.0354
0000680708;5.3774;0.6440;-7.1084;0.0337;-0.0116;-0.0242
0000680717;5.5019;0.5459;-7.1036;0.0256;-0.0099;-0.0211
0000680726;5.4085;0.5650;-7.1371;0.0020;-0.0057;-0.0093
0000680739;5.4588;0.6105;-7.1251;-0.0100;-0.0048;-0.0204
0000680748;5.5306;0.5962;-7.2472;-0.0228;-0.0047;-0.0233
0000680761;5.6240;0.7877;-7.2664;-0.0473;-0.0091;-0.0314
0000680770;5.3415;0.6153;-7.2018;-0.0675;-0.0096;-0.0258
0000680839;5.4851;0.5890;-7.0270;-0.0457;-0.0417;-0.0430
0000680848;5.3678;0.5555;-7.0294;-0.0538;-0.0292;-0.0458
0000680861;5.4588;0.7278;-6.8474;-0.0608;-0.0055;-0.0268
0000680870;5.2984;0.5626;-6.8307;-0.0570;-0.0101;-0.0233
0000680883;5.4540;0.7326;-6.7133;-0.0396;-0.0092;-0.0129
0000680892;5.2313;0.4429;-6.8235;-0.0217;-0.0143;-0.0121
0000680901;5.2289;0.3639;-6.8378;-0.0272;-0.0084;-0.0025
0000680914;5.4348;0.5291;-6.9121;-0.0273;0.0000;-0.0052
0000680923;5.4157;0.5100;-6.8307;-0.0253;0.0039;-0.0032
0000680936;5.4612;0.5818;-6.8474;-0.0274;0.0019;-0.0091
0000680945;5.5091;0.5148;-6.8570;-0.0278;0.0053;-0.0115
0000680958;5.5115;0.6177;-6.8618;-0.0213;0.0044;-0.0228
0000680967;5.5905;0.6416;-6.8043;-0.0053;-0.0120;-0.0269
0000680983;5.3893;0.6536;-6.8522;-0.0027;-0.0244;-0.0123
0000680992;5.4253;0.7925;-6.7516;0.0061;-0.0413;-0.0064
0000681001;5.2122;0.4238;-6.7924;0.0117;-0.0418;0.0021
0000681014;5.5186;0.5555;-6.5386;0.0378;-0.0482;0.0017
0000681023;5.5426;0.5602;-6.8378;0.0560;-0.0552;-0.0056
0000681093;5.4420;0.6177;-7.0078;-0.0028;-0.0285;-0.0047
0000681102;5.4971;0.5890;-7.0150;-0.0077;-0.0207;-0.0052
0000681115;5.4205;0.5555;-6.9576;-0.0049;-0.0277;-0.0145
0000681124;5.4133;0.6177;-7.0366;-0.0148;-0.0254;-0.0140
0000681136;5.5019;0.5650;-7.0390;-0.0257;-0.0222;-0.0099
0000681145;5.6383;0.6752;-7.0964;-0.0272;-0.0350;-0.0185
0000681158;5.5043;0.6321;-6.8905;-0.0301;-0.0308;-0.0139
0000681167;5.4588;0.6752;-6.7852;-0.0253;-0.0353;-0.0212
0000681176;5.4755;0.5746;-6.8474;-0.0252;-0.0334;-0.0159
0000681188;5.4396;0.5028;-6.7493;-0.0195;-0.0444;-0.0135
0000681197;5.3726;0.3041;-6.6798;-0.0056;-0.0492;-0.0152
0000681210;5.5809;0.5124;-6.7995;0.0068;-0.0557;-0.0181
0000681219;5.3654;0.4908;-6.8426;0.0115;-0.0580;-0.0216
0000681231;5.3893;0.4717;-6.9528;0.0057;-0.0560;-0.0237
0000681240;5.5043;0.5866;-6.9432;-0.0019;-0.0504;-0.0216
0000681253;5.5952;0.7614;-6.9767;-0.0127;-0.0394;-0.0172
0000681262;5.3870;0.5770;-6.9456;-0.0129;-0.0374;-0.0143
0000681271;5.2361;0.4597;-6.9049;-0.0088;-0.0370;-0.0112
0000681283;5.4157;0.6033;-6.9432;-0.0020;-0.0432;-0.0089
0000681292;5.5043;0.6105;-6.9552;-0.0029;-0.0354;-0.0091
0000681305;5.5282;0.6081;-7.1084;-0.0015;-0.0373;-0.0139
0000681314;5.4109;0.6656;-7.0509;-0.0044;-0.0417;-0.0228
0000681384;5.3893;0.5387;-6.8091;0.0019;-0.0412;-0.0157
0000681393;5.6719;0.7039;-6.6367;0.0115;-0.0396;-0.0125
0000681406;5.4779;0.6488;-6.8522;0.0304;-0.0488;-0.0236
0000681415;5.4492;0.5626;-6.8259;0.0322;-0.0461;-0.0096
0000681427;5.3989;0.4908;-7.0725;0.0309;-0.0472;-0.0128
0000681436;5.3726;0.3998;-7.0509;0.0167;-0.0410;-0.0113
0000681445;5.3630;0.4741;-7.0916;0.0093;-0.0409;-0.0187
0000681458;5.4540;0.6345;-7.1635;-0.0028;-0.0400;-0.0229
0000681467;5.3151;0.4812;-7.0174;-0.0117;-0.0292;-0.0123
0000681479;5.2577;0.3974;-6.9599;-0.0113;-0.0277;-0.0099
0000681488;5.4875;0.5148;-7.0126;-0.0164;-0.0382;-0.0132
0000681501;5.2744;0.5267;-7.0701;-0.0297;-0.0294;-0.0103
0000681510;5.5881;0.7254;-7.0773;-0.0314;-0.0361;-0.0124
0000681522;5.5426;0.5914;-6.9599;-0.0378;-0.0357;-0.0089
0000681531;5.3295;0.5507;-6.9935;-0.0357;-0.0380;-0.0177
0000681540;5.5569;0.7207;-7.0006;-0.0370;-0.0300;-0.0083
0000681553;5.3558;0.4525;-6.7732;-0.0322;-0.0352;-0.0057
0000681562;5.3822;0.5483;-6.7325;-0.0156;-0.0460;-0.0093
0000681574;5.3199;0.3855;-6.8139;-0.0109;-0.0420;-0.0041
0000681583;5.3056;0.5124;-6.8019;-0.0069;-0.0456;-0.0076
0000681596;5.3463;0.3807;-6.9216;-0.0063;-0.0392;-0.0073
0000681605;5.2337;0.4190;-6.9360;-0.0081;-0.0389;-0.0065
0000681673;5.3319;0.4621;-6.8283;-0.0055;-0.0322;-0.0103
0000681682;5.3271;0.5531;-6.9599;-0.0059;-0.0330;-0.0112
0000681695;5.3391;0.5411;-6.9264;-0.0141;-0.0338;-0.0087
0000681704;5.5067;0.5411;-6.9839;-0.0051;-0.0362;-0.0153
0000681713;5.4779;0.4908;-6.9456;-0.0115;-0.0292;-0.0124
0000681725;5.3941;0.4693;-6.9240;-0.0107;-0.0321;-0.0103
0000681734;5.3893;0.3974;-6.9623;-0.0095;-0.0300;-0.0135
0000681747;5.4684;0.4764;-6.9001;-0.0085;-0.0360;-0.0155
0000681756;5.3151;0.4070;-6.8211;0.0045;-0.0396;-0.0173
0000681768;5.2648;0.4190;-6.8714;0.0105;-0.0434;-0.0169
0000681777;5.4803;0.6105;-6.9025;0.0092;-0.0437;-0.0184
0000681790;5.4492;0.4381;-6.9671;0.0047;-0.0450;-0.0244
0000681799;5.3534;0.3950;-6.9360;0.0021;-0.0449;-0.0203
0000681811;5.5258;0.6680;-7.0366;-0.0065;-0.0426;-0.0204
0000681820;5.4085;0.6225;-6.9935;-0.0055;-0.0368;-0.0141
0000681829;5.4372;0.5914;-7.0868;-0.0149;-0.0314;-0.0167
0000681842;5.4660;0.6081;-7.0868;-0.0196;-0.0313;-0.0173
0000681851;5.4995;0.6153;-6.9456;-0.0234;-0.0308;-0.0193
0000681863;5.3079;0.4094;-6.9073;-0.0250;-0.0300;-0.0197
0000681872;5.4851;0.5315;-6.8738;-0.0242;-0.0392;-0.0245
0000681885;5.4947;0.6488;-7.0006;-0.0211;-0.0345;-0.0222
0000681894;5.6024;0.4956;-7.0078;-0.0133;-0.0418;-0.0274
0000681962;5.3941;0.6033;-6.8666;-0.0117;-0.0442;-0.0193
0000681971;5.4013;0.5842;-6.8546;-0.0059;-0.0413;-0.0167
0000681980;5.3295;0.5243;-6.9168;-0.0013;-0.0453;-0.0185
0000681993;5.5498;0.7470;-6.9145;0.0019;-0.0397;-0.0113
0000682002;5.2696;0.4597;-6.9623;0.0092;-0.0434;-0.0121
0000682014;5.3271;0.3783;-6.9911;0.0000;-0.0393;0.0000
0000682023;5.4540;0.5387;-6.9528;-0.0028;-0.0428;-0.0084
0000682036;5.4827;0.4908;-6.9887;-0.0092;-0.0374;-0.0132
0000682045;5.6096;0.6225;-6.9671;-0.0180;-0.0345;-0.0069
0000682057;5.2361;0.5267;-6.9001;-0.0171;-0.0372;-0.0176
0000682066;5.4708;0.6081;-6.9145;-0.0172;-0.0358;-0.0091
0000682079;5.4708;0.5076;-6.9576;-0.0093;-0.0325;-0.0124
0000682088;5.4779;0.4334;-6.9791;-0.0015;-0.0364;-0.0125
0000682097;5.4516;0.4764;-6.9695;-0.0063;-0.0325;-0.0080
0000682109;5.5091;0.6871;-7.0126;-0.0121;-0.0321;-0.0107
0000682118;5.4109;0.5842;-7.0413;-0.0161;-0.0418;-0.0155
0000682131;5.4516;0.5626;-7.0437;-0.0161;-0.0376;-0.0157
0000682140;5.3271;0.4717;-6.8211;-0.0215;-0.0350;-0.0127
0000682152;5.4516;0.5602;-6.8546;-0.0157;-0.0378;-0.0137
0000682161;5.4444;0.5171;-6.7612;-0.0059;-0.0366;-0.0109
0000682174;5.5162;0.5914;-6.8929;-0.0053;-0.0309;-0.0103
0000682183;5.5976;0.5195;-6.7612;0.0045;-0.0414;-0.0180
0000682251;5.5378;0.6177;-7.1611;-0.0489;-0.0310;-0.0237
0000682260;5.4827;0.6273;-7.1132;-0.0426;-0.0370;-0.0309
0000682269;5.4300;0.6033;-7.0461;-0.0490;-0.0308;-0.0321
0000682282;5.5450;0.6560;-6.9480;-0.0480;-0.0341;-0.0336
0000682291;5.4540;0.5052;-7.0533;-0.0470;-0.0385;-0.0386
0000682303;5.3486;0.3663;-6.9599;-0.0564;-0.0458;-0.0473
0000682312;5.4229;0.5435;-7.0557;-0.0634;-0.0358;-0.0448
0000682325;5.5809;0.5986;-7.0485;-0.0771;-0.0328;-0.0476
0000682334;5.4708;0.6273;-6.9456;-0.0742;-0.0332;-0.0488
0000682346;5.4444;0.6009;-6.8211;-0.0648;-0.0369;-0.0458
0000682355;5.4588;0.5746;-6.7804;-0.0589;-0.0386;-0.0442
0000682364;5.4229;0.4717;-6.7038;-0.0432;-0.0485;-0.0470
0000682377;5.3295;0.4980;-6.7157;-0.0316;-0.0526;-0.0498
0000682386;5.1834;0.4980;-6.8857;-0.0286;-0.0484;-0.0482
0000682398;5.4157;0.5602;-6.8450;-0.0245;-0.0520;-0.0428
0000682407;5.3822;0.6009;-6.7516;-0.0189;-0.0516;-0.0333
0000682420;5.3917;0.6416;-6.7612;-0.0053;-0.0457;-0.0344
0000682429;5.3295;0.7566;-6.9336;-0.0015;-0.0466;-0.0313
0000682441;5.3032;0.5890;-6.8331;-0.0029;-0.0397;-0.0207
0000682450;5.2577;0.5650;-6.8546;-0.0012;-0.0502;-0.0245
0000682464;5.4181;0.5650;-6.8761;0.0141;-0.0584;-0.0203
0000682473;5.2433;0.5459;-6.8881;0.0077;-0.0550;-0.0189
0000682482;5.5282;0.5770;-6.8929;0.0101;-0.0532;-0.0237
0000682549;5.5402;0.6967;-7.0174;0.0211;-0.0505;-0.0091
0000682558;5.4444;0.4836;-7.0940;0.0180;-0.0493;-0.0173
0000682570;5.3008;0.4956;-7.0437;0.0116;-0.0478;-0.0212
0000682579;5.3463;0.5722;-7.0437;0.0093;-0.0448;-0.0268
0000682592;5.2696;0.4764;-7.0054;0.0024;-0.0488;-0.0199
0000682601;5.3103;0.5483;-7.0294;0.0024;-0.0474;-0.0199
0000682613;5.4277;0.5866;-7.1419;-0.0083;-0.0521;-0.0144
0000682622;5.2337;0.4717;-7.0030;-0.0132;-0.0530;-0.0189
0000682631;5.4037;0.6249;-6.9599;-0.0193;-0.0474;-0.0132
0000682644;5.2409;0.4190;-6.8139;-0.0192;-0.0468;-0.0080
0000682653;5.3175;0.4812;-6.8211;-0.0165;-0.0530;-0.0129
0000682665;5.2840;0.3496;-6.8857;-0.0189;-0.0508;-0.0187
0000682674;5.4444;0.6225;-6.9456;-0.0180;-0.0457;-0.0144
0000682687;5.4013;0.5626;-6.9456;-0.0109;-0.0434;-0.0165
0000682696;5.4253;0.5962;-6.8474;-0.0115;-0.0413;-0.0128
0000682708;5.1954;0.4477;-6.9121;-0.0096;-0.0484;-0.0157
0000682717;5.4755;0.5219;-6.8426;-0.0045;-0.0444;-0.0189
0000682730;5.2601;0.4764;-6.8354;-0.0007;-0.0410;-0.0181
0000682739;5.3654;0.5914;-6.9121;0.0079;-0.0430;-0.0172
0000682748;5.4516;0.5531;-6.9408;0.0079;-0.0381;-0.0172
0000682760;5.5210;0.7039;-6.9791;0.0109;-0.0389;-0.0216
0000682769;5.2385;0.5028;-6.9791;0.0069;-0.0330;-0.0221
0000682836;5.4636;0.5914;-7.0030;0.0008;-0.0472;-0.0215
0000682845;5.3271;0.5219;-7.0485;-0.0033;-0.0404;-0.0157
0000682857;5.3151;0.3974;-6.9767;-0.0059;-0.0386;-0.0165
0000682866;5.2194;0.4046;-7.0198;-0.0104;-0.0414;-0.0171
0000682879;5.2768;0.3615;-6.9983;-0.0184;-0.0374;-0.0185
0000682888;5.4061;0.5578;-7.0246;-0.0133;-0.0432;-0.0181
0000682900;5.3463;0.5986;-6.9552;-0.0155;-0.0428;-0.0197
0000682909;5.2361;0.5267;-6.9288;-0.0088;-0.0440;-0.0192
0000682918;5.5043;0.5219;-6.9599;-0.0135;-0.0357;-0.0163
0000682931;5.2098;0.4238;-6.8929;-0.0127;-0.0366;-0.0171
0000682940;5.4660;0.6393;-7.0366;-0.0116;-0.0385;-0.0139
0000682952;5.2816;0.4764;-6.9432;-0.0156;-0.0326;-0.0128
0000682961;5.1811;0.4932;-6.9647;-0.0065;-0.0405;-0.0115
0000682974;5.1906;0.4190;-6.9623;-0.0131;-0.0385;-0.0060
0000682983;5.4875;0.5914;-6.8714;-0.0141;-0.0357;-0.0055
0000682995;5.4324;0.5411;-6.9408;-0.0139;-0.0340;-0.0019
0000683004;5.2050;0.4597;-6.9599;-0.0112;-0.0346;-0.0100
0000683013;5.4947;0.6129;-6.9959;-0.0080;-0.0349;-0.0024
0000683026;5.4708;0.6273;-6.9815;-0.0097;-0.0370;-0.0029
0000683035;5.2744;0.3567;-7.0318;-0.0181;-0.0316;-0.0036
0000683047;5.2481;0.3304;-6.8809;-0.0160;-0.0382;-0.0053
0000683056;5.2888;0.3472;-6.9384;-0.0123;-0.0346;-0.0059
0000683123;5.5354;0.5794;-6.9911;-0.0003;-0.0426;-0.0145
0000683132;5.3151;0.5531;-6.9911;0.0029;-0.0458;-0.0241
0000683144;5.3056;0.5076;-6.9073;0.0084;-0.0438;-0.0260
0000683153;5.4516;0.4884;-7.0222;0.0044;-0.0404;-0.0183
0000683166;5.2960;0.5914;-7.0749;0.0028;-0.0462;-0.0195
0000683175;5.3391;0.4908;-7.0318;0.0003;-0.0421;-0.0153
0000683184;5.3678;0.5411;-7.0342;-0.0044;-0.0426;-0.0115
0000683194;5.3486;0.5219;-6.9504;0.0037;-0.0481;-0.0224
0000683202;5.4253;0.4525;-6.9216;-0.0008;-0.0413;-0.0147
0000683214;5.4157;0.6249;-7.0509;0.0032;-0.0545;-0.0169
0000683222;5.3654;0.5243;-7.0006;0.0020;-0.0457;-0.0120
0000683233;5.3367;0.4525;-7.0150;0.0016;-0.0533;-0.0171
0000683241;5.4229;0.4621;-7.0390;-0.0027;-0.0517;-0.0144
0000683253;5.3510;0.4597;-6.9959;-0.0051;-0.0465;-0.0156
0000683261;5.3415;0.4741;-6.9216;-0.0048;-0.0472;-0.0218
0000683269;5.3032;0.3831;-6.9288;-0.0005;-0.0498;-0.0248
