time;acc_x;acc_y;acc_z;gyro_x;gyro_y;gyro_z
0000840743;6.5290;2.7366;1.6305;0.0470;-0.0337;0.0749
0000840751;6.4715;2.7892;1.6544;0.0488;-0.0544;0.0685
0000840758;6.5003;2.7414;1.7454;0.0518;-0.0569;0.0589
0000840766;6.4284;2.6360;1.6688;0.0498;-0.0594;0.0512
0000840775;6.5936;2.7964;1.6592;0.0544;-0.0681;0.0388
0000840783;6.6319;2.6456;1.6520;0.0501;-0.0654;0.0349
0000840791;6.6224;2.6217;1.6879;0.0497;-0.0759;0.0326
0000840803;6.4979;2.4541;1.6089;0.0550;-0.0826;0.0228
0000840811;6.5529;2.5283;1.5945;0.0580;-0.0850;0.0215
0000840822;6.6942;2.6911;1.5155;0.0735;-0.0847;0.0055
0000840830;7.0054;2.7222;1.4844;0.0769;-0.0778;0.0128
0000840842;6.8690;2.7198;1.4892;0.0710;-0.0753;0.0127
0000840850;6.8857;2.8587;1.4030;0.0671;-0.0735;0.0080
0000840858;6.8761;2.7461;1.3886;0.0546;-0.0566;0.0180
0000840869;6.8091;2.9473;1.3767;0.0562;-0.0506;0.0133
0000840877;6.6176;2.8730;1.3551;0.0414;-0.0346;0.0201
0000840889;6.6942;2.9616;1.4676;0.0286;-0.0141;0.0269
0000840897;6.6272;2.8228;1.5155;0.0309;-0.0068;0.0225
0000840908;6.7612;2.8706;1.4724;0.0281;0.0177;0.0308
0000840916;6.5673;2.6863;1.4868;0.0309;0.0288;0.0325
0000840924;6.7660;2.8874;1.5179;0.0184;0.0446;0.0393
0000840936;6.5984;2.8706;1.4940;0.0049;0.0476;0.0516
0000840944;6.6272;2.7940;1.5658;0.0017;0.0448;0.0548
0000841012;6.6511;3.0095;1.5323;0.0181;-0.0127;0.0360
0000841020;6.7516;2.9401;1.5443;0.0145;-0.0261;0.0316
0000841032;6.6846;2.7677;1.4964;0.0125;-0.0153;0.0286
0000841040;6.7325;2.7294;1.4772;0.0221;-0.0111;0.0250
0000841048;6.9001;2.8156;1.4820;0.0345;-0.0079;0.0183
0000841059;6.7301;2.7246;1.3216;0.0448;-0.0077;0.0264
0000841067;6.7277;2.7725;1.2330;0.0368;-0.0013;0.0325
0000841079;6.8690;3.0215;1.1803;0.0356;-0.0080;0.0292
0000841087;6.7445;3.1316;1.1349;0.0221;-0.0045;0.0333
0000841098;6.8426;3.1125;1.1420;0.0260;-0.0200;0.0207
0000841106;6.6128;3.0502;1.1779;0.0248;-0.0270;0.0185
0000841114;6.5888;3.0095;1.2498;0.0225;-0.0333;0.0143
0000841126;6.7373;2.8874;1.1612;0.0289;-0.0592;0.0012
0000841134;6.3686;2.6959;1.2402;0.0253;-0.0713;0.0000
0000841145;6.5960;2.7509;1.3144;0.0342;-0.0905;-0.0097
0000841153;6.5673;2.7845;1.3551;0.0378;-0.1021;-0.0165
0000841165;6.8402;2.8084;1.2522;0.0392;-0.1215;-0.0203
0000841173;6.9623;3.0861;1.3743;0.0376;-0.1282;-0.0230
0000841181;7.0820;2.9999;1.3360;0.0365;-0.1324;-0.0308
0000841192;7.0820;3.0718;1.4174;0.0184;-0.1299;-0.0316
0000841200;7.0509;3.0502;1.5036;0.0125;-0.1287;-0.0436
0000841212;6.9863;2.8970;1.4437;0.0019;-0.1210;-0.0546
0000841220;6.9192;2.8587;1.6209;0.0088;-0.1247;-0.0630
0000841288;6.6966;2.5450;1.5778;0.0163;-0.1096;-0.0722
0000841296;6.7684;2.7725;1.6113;0.0165;-0.1123;-0.0655
0000841308;6.7253;2.7916;1.5706;0.0052;-0.1120;-0.0542
0000841316;6.7971;2.7150;1.6712;-0.0008;-0.1232;-0.0533
0000841324;6.7445;2.4612;1.6640;-0.0079;-0.1182;-0.0488
0000841335;7.0102;2.7078;1.6376;-0.0005;-0.1263;-0.0470
0000841343;7.1132;2.5187;1.6927;0.0059;-0.1304;-0.0481
0000841355;6.9001;2.3703;1.5969;0.0164;-0.1232;-0.0390
0000841363;6.8881;2.5067;1.6783;0.0149;-0.1282;-0.0316
0000841374;6.9264;2.4804;1.5682;0.0179;-0.1186;-0.0265
0000841382;6.9647;2.7007;1.5897;0.0140;-0.1131;-0.0160
0000841390;6.9695;2.6169;1.6328;0.0117;-0.1210;-0.0175
0000841402;6.9336;2.6336;1.6089;0.0149;-0.1053;-0.0136
0000841410;7.1036;2.6839;1.6424;0.0201;-0.1030;-0.0171
0000841421;7.2233;2.8395;1.5778;0.0234;-0.1003;-0.0147
0000841429;7.0078;2.7318;1.5251;0.0199;-0.0933;-0.0069
0000841441;7.0749;2.7581;1.4413;0.0171;-0.0933;-0.0193
0000841449;6.9360;2.8108;1.4461;0.0077;-0.0946;-0.0107
0000841460;7.0078;2.8539;1.5251;0.0049;-0.0997;-0.0156
0000841468;6.9576;2.7629;1.5395;0.0067;-0.0991;-0.0120
0000841476;6.9767;2.7988;1.5323;0.0056;-0.0958;-0.0105
0000841488;7.0653;2.7270;1.4581;0.0143;-0.1014;-0.0113
0000841496;6.9647;2.6839;1.4461;0.0152;-0.0959;-0.0099
0000841565;7.1850;2.6911;1.5778;0.0076;-0.0382;-0.0218
0000841573;7.2305;2.7629;1.5251;0.0057;-0.0288;-0.0157
0000841585;7.1658;2.8467;1.5802;0.0000;-0.0167;-0.0161
0000841593;7.0988;2.7605;1.4629;-0.0063;-0.0097;-0.0111
0000841601;7.1395;2.7581;1.4964;-0.0044;-0.0095;-0.0116
0000841612;7.1180;2.7270;1.5251;-0.0145;0.0037;-0.0085
0000841620;7.1539;2.8012;1.5562;-0.0137;0.0145;-0.0025
0000841632;6.9863;2.6384;1.5969;-0.0168;0.0244;-0.0059
0000841640;7.0342;2.7414;1.5586;-0.0144;0.0254;-0.0068
0000841651;7.0892;2.5762;1.5969;-0.0261;0.0341;0.0011
0000841659;7.0916;2.7150;1.6472;-0.0244;0.0329;-0.0012
0000841671;6.9719;2.7007;1.5060;-0.0372;0.0433;0.0043
0000841679;7.0629;2.6193;1.5634;-0.0361;0.0378;-0.0040
0000841687;6.8570;2.5738;1.5323;-0.0462;0.0477;0.0003
0000841698;7.0318;2.7940;1.6424;-0.0453;0.0376;-0.0020
0000841706;6.9959;2.7126;1.6400;-0.0446;0.0450;-0.0017
0000841718;6.8426;2.5043;1.6376;-0.0436;0.0393;-0.0049
0000841726;6.8881;2.6791;1.6831;-0.0397;0.0384;-0.0031
0000841737;6.9168;2.5594;1.6065;-0.0370;0.0396;0.0015
0000841745;7.0437;2.6504;1.6424;-0.0432;0.0393;0.0013
0000841753;6.9839;2.6001;1.6352;-0.0370;0.0293;-0.0056
0000841765;7.0725;2.6719;1.5969;-0.0362;0.0274;-0.0077
0000841773;7.0461;2.6169;1.5897;-0.0352;0.0246;-0.0059
0000841841;6.9599;2.6312;1.6616;-0.0512;-0.0028;0.0037
0000841849;7.2089;2.5618;1.5921;-0.0494;-0.0017;0.0096
0000841861;6.7708;2.5786;1.6783;-0.0434;-0.0123;0.0073
0000841869;6.9216;2.7461;1.6472;-0.0396;-0.0169;0.0136
0000841880;6.9121;2.5833;1.6352;-0.0414;-0.0149;0.0209
0000841888;6.8618;2.5379;1.6113;-0.0345;-0.0273;0.0096
0000841896;6.8833;2.5786;1.6975;-0.0357;-0.0281;0.0169
0000841908;6.9576;2.6408;1.6688;-0.0357;-0.0317;0.0176
0000841916;7.0605;2.7007;1.6664;-0.0322;-0.0317;0.0189
0000841927;7.0390;2.5809;1.7454;-0.0322;-0.0362;0.0139
0000841935;7.2018;2.7174;1.6472;-0.0317;-0.0404;0.0120
0000841947;6.9863;2.4948;1.4940;-0.0312;-0.0472;0.0059
0000841955;6.8953;2.6695;1.4030;-0.0409;-0.0416;0.0104
0000841963;7.0413;2.6624;1.5347;-0.0468;-0.0414;0.0152
0000841974;7.0940;2.6959;1.5969;-0.0510;-0.0462;0.0103
0000841982;6.9887;2.7581;1.6089;-0.0490;-0.0457;0.0113
0000841994;7.1275;2.8635;1.5969;-0.0410;-0.0480;0.0088
0000842002;7.2664;2.8683;1.5083;-0.0446;-0.0502;0.0055
0000842013;7.1012;2.8036;1.4413;-0.0533;-0.0530;0.0061
0000842021;7.1347;2.7701;1.4724;-0.0618;-0.0488;0.0076
0000842033;7.0701;2.8491;1.5179;-0.0593;-0.0564;0.0045
0000842041;6.9432;2.6145;1.6927;-0.0554;-0.0600;0.0028
0000842049;6.8642;2.5379;1.6113;-0.0480;-0.0572;0.0031
0000842117;7.2832;2.7461;1.5730;-0.0211;-0.0270;-0.0024
0000842125;7.2640;2.8060;1.3743;-0.0160;-0.0269;-0.0073
0000842137;7.3215;2.7845;1.5395;-0.0229;-0.0180;0.0051
0000842145;7.1323;2.6983;1.4916;-0.0234;-0.0244;-0.0051
0000842157;7.2065;2.7007;1.6065;-0.0294;-0.0220;-0.0027
0000842165;7.0844;2.5450;1.6257;-0.0205;-0.0222;-0.0095
0000842176;7.3287;2.6576;1.5874;-0.0176;-0.0071;-0.0083
0000842184;7.3047;2.5426;1.5155;-0.0029;-0.0093;-0.0143
0000842192;7.3143;2.5450;1.5299;0.0032;-0.0040;-0.0089
0000842204;7.4412;2.5426;1.5395;0.0081;0.0133;0.0001
0000842212;7.3789;2.7821;1.5395;0.0096;0.0169;-0.0024
0000842223;7.1587;2.6480;1.6520;0.0139;0.0293;0.0083
0000842231;7.2401;2.7294;1.5203;0.0193;0.0370;0.0161
0000842243;7.2592;2.7485;1.4892;0.0157;0.0384;0.0179
0000842251;7.2185;2.6935;1.4341;0.0131;0.0430;0.0211
0000842259;7.2113;2.7174;1.4796;0.0023;0.0441;0.0317
0000842270;7.2616;2.8706;1.4006;-0.0053;0.0448;0.0266
0000842278;7.1275;2.6408;1.6688;-0.0023;0.0422;0.0248
0000842290;7.0653;2.5522;1.4916;-0.0041;0.0386;0.0297
0000842298;7.2520;2.6480;1.5850;-0.0075;0.0373;0.0292
0000842364;7.2018;2.8371;1.5802;0.0079;0.0076;0.0125
0000842372;7.1180;2.7964;1.5897;0.0052;0.0041;0.0097
0000842380;7.1946;2.7366;1.5802;-0.0012;0.0048;0.0168
0000842392;7.0054;2.6145;1.6233;-0.0032;-0.0052;0.0101
0000842400;7.0916;2.6959;1.6089;-0.0056;-0.0036;0.0163
0000842411;7.1395;2.7031;1.6137;0.0071;-0.0179;0.0096
0000842419;7.1012;2.6456;1.6448;0.0069;-0.0141;0.0117
0000842431;6.8498;2.5666;1.4940;0.0101;-0.0245;0.0111
0000842439;7.0820;2.6791;1.4892;0.0161;-0.0336;0.0088
0000842447;7.1826;2.9401;1.6065;0.0099;-0.0301;0.0143
0000842458;7.0773;2.7533;1.5371;0.0112;-0.0369;0.0057
0000842466;7.0461;2.7461;1.4844;0.0060;-0.0346;0.0068
0000842478;7.1180;2.8659;1.5227;0.0015;-0.0409;0.0072
0000842486;7.1419;2.8467;1.5251;-0.0035;-0.0361;0.0140
0000842497;7.0509;2.8204;1.5682;-0.0053;-0.0437;0.0051
0000842505;7.1012;2.7102;1.6257;-0.0145;-0.0409;0.0081
0000842513;7.0653;2.6839;1.6544;-0.0173;-0.0445;0.0099
0000842525;7.2592;2.8204;1.6089;-0.0191;-0.0524;0.0028
0000842533;7.3622;2.8898;1.5610;-0.0131;-0.0548;-0.0027
0000842544;7.0749;2.6671;1.7047;-0.0115;-0.0653;-0.0105
0000842552;7.2736;2.7438;1.6831;-0.0067;-0.0628;-0.0097
0000842564;7.0677;2.6911;1.6209;-0.0053;-0.0657;-0.0136
0000842572;7.1898;2.8060;1.5706;-0.0032;-0.0666;-0.0199
0000842640;7.0174;2.7031;1.5586;-0.0057;-0.0967;-0.0245
0000842648;7.2305;2.7605;1.5802;-0.0096;-0.0946;-0.0252
0000842656;6.9791;2.6336;1.5850;-0.0167;-0.0931;-0.0269
0000842668;7.1491;2.7174;1.5730;-0.0123;-0.0978;-0.0290
0000842676;7.0533;2.6624;1.5227;-0.0015;-0.0973;-0.0269
0000842687;7.1228;2.6600;1.5778;0.0021;-0.0903;-0.0249
0000842695;7.0222;2.6671;1.4820;0.0112;-0.0961;-0.0216
0000842707;7.0653;2.6552;1.5754;0.0075;-0.0878;-0.0160
0000842715;7.1658;2.7845;1.4605;0.0043;-0.0870;-0.0167
0000842723;7.2089;2.7653;1.4748;-0.0043;-0.0826;-0.0076
0000842734;7.1754;2.7222;1.5610;-0.0013;-0.0877;-0.0145
0000842742;7.1491;2.7461;1.6089;-0.0033;-0.0857;-0.0093
0000842754;7.1898;2.7054;1.5179;-0.0060;-0.0889;-0.0155
0000842762;6.9743;2.6528;1.5634;-0.0005;-0.0923;-0.0215
0000842773;7.0006;2.5929;1.5131;0.0067;-0.0973;-0.0260
0000842781;6.9767;2.6743;1.6017;0.0059;-0.0938;-0.0256
0000842793;7.1563;2.6959;1.5419;0.0171;-0.0958;-0.0272
0000842801;7.2185;2.7773;1.5658;0.0145;-0.0914;-0.0269
0000842809;7.3167;2.8706;1.5251;0.0101;-0.0941;-0.0281
0000842820;7.1180;2.7749;1.4653;0.0068;-0.0902;-0.0278
0000842828;7.0557;2.8419;1.3791;-0.0013;-0.0927;-0.0340
0000842840;7.0150;2.7438;1.3647;-0.0044;-0.0883;-0.0334
0000842848;7.1754;2.7773;1.3168;0.0013;-0.0919;-0.0300
0000842916;6.8019;2.4469;1.3671;-0.0004;-0.1302;-0.0470
0000842924;7.0581;2.5259;1.4509;0.0001;-0.1244;-0.0436
0000842936;6.9432;2.4995;1.4724;0.0087;-0.1288;-0.0480
0000842944;7.0749;2.5402;1.3958;0.0087;-0.1335;-0.0578
0000842952;7.1515;2.6791;1.3767;0.0116;-0.1343;-0.0605
0000842963;7.2401;2.6911;1.4892;0.0281;-0.1435;-0.0717
0000842971;7.0725;2.4972;1.4485;0.0294;-0.1499;-0.0695
0000842983;7.1946;2.7007;1.5036;0.0429;-0.1581;-0.0659
0000842991;7.0701;2.3607;1.5993;0.0564;-0.1740;-0.0733
0000843002;7.0174;2.4253;1.5610;0.0576;-0.1777;-0.0667
0000843010;7.0605;2.5283;1.5419;0.0634;-0.1905;-0.0691
0000843018;7.1180;2.5642;1.5993;0.0730;-0.2106;-0.0697
0000843030;7.0078;2.5426;1.5467;0.0727;-0.2164;-0.0745
0000843038;6.9384;2.6240;1.5323;0.0681;-0.2289;-0.0679
0000843049;6.9264;2.7198;1.6065;0.0678;-0.2377;-0.0597
0000843057;7.1467;2.9018;1.6328;0.0649;-0.2447;-0.0576
0000843069;7.0246;3.0239;1.6233;0.0529;-0.2518;-0.0372
0000843077;7.0509;3.0119;1.6065;0.0450;-0.2538;-0.0325
0000843088;7.2520;3.1005;1.6352;0.0286;-0.2442;-0.0193
0000843096;7.2425;2.8659;1.5706;0.0217;-0.2474;-0.0145
0000843104;7.1970;2.8635;1.6017;0.0060;-0.2487;-0.0069
0000843116;7.0916;2.7533;1.6520;-0.0069;-0.2455;-0.0005
0000843124;7.3502;2.8922;1.7621;-0.0211;-0.2377;0.0059
0000843192;7.3119;2.6815;1.9728;-0.0765;-0.2029;-0.0127
0000843200;7.2137;2.5474;1.8747;-0.0604;-0.1968;-0.0135
0000843212;7.0725;2.3152;2.0016;-0.0224;-0.1785;-0.0075
0000843220;7.1682;2.2841;2.0351;-0.0013;-0.1684;-0.0025
0000843231;7.2065;2.3104;1.8842;0.0390;-0.1617;-0.0015
0000843239;7.0461;2.3320;1.7933;0.0626;-0.1555;-0.0013
0000843247;7.1611;2.5977;1.7957;0.0735;-0.1383;0.0109
0000843259;6.9719;2.6264;1.8244;0.0915;-0.1299;0.0369
0000843267;6.7445;2.5857;1.7238;0.0971;-0.1286;0.0514
0000843278;6.7421;2.7054;1.6807;0.0926;-0.1263;0.0738
0000843286;6.8546;2.6456;1.6400;0.0895;-0.1088;0.0843
0000843298;6.7469;2.4924;1.8603;0.0957;-0.0897;0.0874
0000843306;6.9815;2.4972;2.0806;0.1111;-0.0693;0.0985
0000843314;6.8714;2.3080;2.2553;0.1339;-0.0513;0.1063
0000843325;6.8809;2.1261;2.3080;0.1551;-0.0196;0.1088
0000843333;6.9623;2.2362;2.3631;0.1721;0.0020;0.1086
0000843345;6.8450;2.2889;2.5091;0.1752;0.0585;0.1190
0000843353;6.8546;2.3104;2.5139;0.1681;0.1046;0.1299
0000843364;7.0677;2.4373;2.5187;0.1510;0.1751;0.1427
0000843372;7.1180;2.3942;2.5019;0.1396;0.2370;0.1525
0000843380;7.2089;2.3774;2.6336;0.1280;0.2982;0.1632
0000843392;7.3239;2.3990;2.8683;0.1216;0.3836;0.1827
0000843400;7.3287;2.4014;3.0622;0.1286;0.4419;0.1985
0000843468;7.9416;2.4134;3.8523;0.0244;1.1808;0.3018
0000843476;8.3366;2.6193;3.7637;0.0105;1.3029;0.3167
0000843484;8.2552;2.4804;3.5937;-0.0179;1.4204;0.3471
0000843496;8.5856;2.7509;3.0646;-0.0659;1.6038;0.4133
0000843504;8.5545;2.9161;2.5019;-0.1019;1.7158;0.4257
0000843515;8.5808;3.3878;2.1931;-0.1716;1.8419;0.4046
0000843523;8.2217;3.4500;1.8627;-0.2278;1.9061;0.3820
0000843535;7.2520;3.1795;1.6759;-0.2960;1.9497;0.3168
0000843543;6.3805;2.9521;1.5275;-0.3123;1.9408;0.2936
0000843551;5.5306;2.7126;1.5538;-0.3183;1.9028;0.2928
0000843563;4.5466;2.3248;1.1851;-0.2854;1.7861;0.3479
0000843571;4.0893;2.2482;1.1444;-0.2518;1.6787;0.4110
0000843582;3.1675;2.0949;0.9768;-0.2527;1.4815;0.4835
0000843590;2.7461;1.7621;0.9505;-0.2529;1.3237;0.5333
0000843602;2.9928;1.3431;1.4222;-0.2641;1.0980;0.5950
0000843610;3.5338;0.9912;1.7334;-0.2058;0.9727;0.6097
0000843621;4.4029;0.2059;1.9106;-0.0604;0.8320;0.6335
0000843629;5.0685;-0.0359;1.9082;0.0288;0.7758;0.6376
0000843637;5.4995;-0.1030;1.8699;0.0845;0.7577;0.6314
0000843649;5.9520;-0.1748;1.8866;0.1138;0.7378;0.6458
0000843657;6.5003;0.1269;2.1093;0.1086;0.7068;0.6684
0000843669;5.8993;-0.1341;2.6073;0.0938;0.6702;0.7028
0000843677;5.6024;-0.1580;2.8084;0.0750;0.6583;0.6861
0000843745;6.3015;-6.2608;0.8475;0.3750;0.5144;-0.3572
0000843753;6.4069;-6.7540;0.2394;0.3789;0.4233;-0.4551
0000843761;6.7349;-7.0270;-0.1101;0.3269;0.3028;-0.5556
0000843772;6.8594;-7.1012;-0.3711;0.1287;0.1282;-0.6299
0000843780;6.7852;-7.0964;-0.3855;-0.0807;-0.0147;-0.6579
0000843792;6.4955;-7.4124;-0.3879;-0.3144;-0.1907;-0.5842
0000843800;6.2991;-7.6279;-0.0934;-0.4016;-0.3251;-0.4727
0000843811;5.9304;-8.2265;0.5507;-0.4234;-0.4968;-0.3288
0000843819;5.9352;-8.4467;0.7278;-0.3591;-0.5661;-0.2332
0000843831;6.2058;-8.3773;0.4046;-0.1111;-0.6432;-0.2056
0000843839;6.5936;-7.9871;-0.3017;0.0592;-0.6857;-0.2423
0000843847;6.8881;-7.2089;-1.0415;0.2173;-0.7413;-0.2940
0000843858;7.2856;-6.2082;-1.1803;0.3284;-0.7941;-0.3369
0000843866;7.0940;-5.1092;-0.6847;0.2932;-0.8402;-0.3576
0000843878;6.2417;-2.2960;1.6448;-0.0452;-0.8266;-0.3511
0000843886;5.5426;-0.4238;1.9345;-0.2294;-0.7633;-0.3936
0000843897;4.2066;0.9744;1.2378;-0.2106;-0.6943;-0.5572
0000843905;3.9241;1.0463;1.2210;-0.1308;-0.6475;-0.7063
0000843917;4.3862;-0.4310;1.2067;-0.2710;-0.5891;-0.7420
0000843925;4.9321;-1.6400;0.1987;-0.1410;-0.5019;-0.7121
0000843937;5.8993;-2.3487;0.8787;0.1216;-0.4005;-0.4932
0000843945;6.5290;-2.2051;1.4389;0.3421;-0.3651;-0.1997
0000843953;6.9432;-1.0487;1.9345;0.7023;-0.3427;0.1446
0000844022;9.5984;2.1763;1.6783;2.2030;0.5680;2.0967
0000844030;9.3182;2.0542;0.6345;2.2788;0.7238;2.0804
0000844041;8.7221;2.2601;0.1101;2.2316;0.8864;2.1192
0000844049;8.3582;3.3662;0.3543;2.2050;1.0040;2.2503
0000844061;8.3558;4.8052;0.4980;2.2633;1.1695;2.6554
0000844069;9.0644;4.9943;-0.0120;2.3362;1.2097;2.9465
0000844077;9.3350;4.8028;-0.1389;2.3402;1.2264;3.1686
0000844088;10.4411;6.0573;1.4724;2.1466;1.1951;3.3201
0000844096;11.0660;7.6160;3.1484;1.9304;1.1338;3.3714
0000844108;14.0540;11.2336;6.1244;2.1887;0.5065;3.3954
0000844116;16.5966;12.8233;4.7357;3.0160;-0.4502;3.4616
0000844127;21.4616;15.6533;-3.4884;4.3656;-2.1767;3.9881
0000844135;28.8238;26.2764;-12.2368;4.3656;-3.1461;4.3656
0000844143;30.7152;39.2721;-12.0907;4.3656;-3.2195;4.3656
0000844155;35.0559;35.1660;-18.9956;4.3656;-2.6441;3.5930
0000844163;31.6513;23.1017;-20.4058;3.9871;-1.3997;3.6159
0000844174;34.2538;12.1003;-19.5103;1.8522;0.5161;3.7322
0000844182;35.3839;7.8099;-14.7291;0.2525;1.4669;3.5817
0000844194;34.8883;2.7414;-5.7293;-1.3077;1.9450;3.4236
0000844202;25.2876;0.4884;-5.4037;-1.4770;2.0848;3.1377
0000844214;12.0213;-0.4238;-0.4166;-0.2830;2.1284;2.6063
0000844222;9.8402;0.1125;-1.2330;0.7805;1.8040;1.9841
0000844290;14.9255;-4.3766;-2.9928;-1.4221;0.3643;0.0099
0000844298;14.9973;-6.4021;-1.5347;-1.1057;0.2690;-0.4226
0000844306;14.8201;-7.9344;-1.1851;-0.7108;0.2333;-0.8676
0000844317;14.5711;-9.5122;-2.1069;-0.2162;0.3123;-1.3336
0000844325;14.6669;-9.9120;-2.5905;0.0878;0.3926;-1.4581
0000844337;14.9422;-10.1730;-2.7629;0.2693;0.4469;-1.1860
0000844345;15.2175;-10.1227;-3.0263;0.2441;0.4455;-0.8062
0000844356;16.2016;-9.2488;-3.1532;0.2212;0.4714;-0.2926
0000844364;15.8736;-7.5848;-2.6240;0.4163;0.5205;-0.1931
0000844376;14.4897;-4.5083;-2.6863;0.5185;0.5797;-0.2422
0000844384;13.7547;-2.7749;-3.1580;0.3655;0.5805;-0.3195
0000844396;12.8210;-1.7957;-3.2010;0.0665;0.5185;-0.4495
0000844404;12.3948;-1.9369;-3.2346;-0.0821;0.4718;-0.5211
0000844412;12.4498;-2.9544;-2.5570;-0.1619;0.4509;-0.5288
0000844424;12.1841;-3.4812;-2.2505;-0.1816;0.3848;-0.4700
0000844432;12.3206;-3.6105;-2.2170;-0.1431;0.3271;-0.4270
0000844443;13.2232;-3.4812;-2.1907;-0.0349;0.2979;-0.3456
0000844451;13.9151;-3.2920;-2.3990;-0.0039;0.2844;-0.3003
0000844463;15.1481;-2.8587;-2.6288;0.0204;0.2635;-0.2246
0000844471;15.7778;-2.4828;-2.8132;0.0199;0.2521;-0.1841
0000844483;16.7427;-2.2362;-2.9090;-0.0296;0.2158;-0.1916
0000844491;17.2047;-2.2003;-2.9113;-0.0725;0.2018;-0.2220
0000844559;17.6955;-0.9816;-2.4636;0.0273;0.4523;-0.4181
0000844567;17.7937;-1.1612;-2.5067;0.0043;0.5445;-0.4222
0000844578;17.3915;-1.7980;-2.9233;-0.0011;0.6687;-0.4538
0000844586;16.9893;-2.3439;-2.9042;-0.0088;0.7723;-0.4385
0000844594;16.4553;-2.5307;-2.8563;0.0274;0.8362;-0.4307
0000844606;14.9781;-1.8914;-2.3679;0.1045;0.8545;-0.3870
0000844614;13.9390;-1.3455;-2.1261;0.1448;0.7861;-0.3018
0000844626;12.4475;0.1389;-2.1452;0.1568;0.5949;-0.1863
0000844634;11.5808;0.7590;-2.1931;0.1384;0.4461;-0.1487
0000844646;11.3174;0.9649;-2.4325;0.0564;0.2248;-0.1266
0000844654;11.5448;0.8068;-2.4062;-0.0125;0.1043;-0.1627
0000844665;12.0644;0.3472;-2.2625;-0.0831;-0.0428;-0.2382
0000844673;12.4858;-0.0144;-2.1620;-0.1378;-0.1058;-0.2749
0000844685;12.8617;-0.4357;-1.7166;-0.1616;-0.1434;-0.3325
0000844693;12.9574;-0.4836;-1.8220;-0.1406;-0.1292;-0.3729
0000844701;13.1753;-0.3950;-1.6305;-0.1108;-0.0801;-0.3929
0000844712;13.3980;-0.1844;-1.4461;-0.0513;0.0087;-0.3994
0000844720;13.2926;0.0072;-1.6735;-0.0071;0.0622;-0.3968
0000844732;12.6414;0.5411;-1.6305;0.0296;0.1266;-0.3146
0000844740;12.0548;1.0582;-1.6903;0.0234;0.1444;-0.2333
0000844752;11.4610;1.6712;-1.5299;0.0020;0.1215;-0.1519
0000844760;11.3054;1.7358;-1.4174;-0.0422;0.0930;-0.1094
0000844828;12.5600;1.6831;-1.4988;-0.1859;0.0173;-0.1311
0000844836;12.3014;1.6903;-1.4868;-0.1917;0.0474;-0.1062
0000844847;11.8872;1.8316;-1.5682;-0.1969;0.0837;-0.0540
0000844855;11.5544;1.8627;-1.4844;-0.2004;0.1019;-0.0260
0000844863;11.4850;1.8196;-1.6233;-0.2056;0.0975;-0.0025
0000844875;11.4826;1.8651;-1.6017;-0.2232;0.1002;-0.0005
0000844883;11.4203;1.3958;-1.5921;-0.2348;0.0923;-0.0037
0000844895;11.8681;1.3168;-1.5682;-0.2384;0.0738;-0.0314
0000844903;11.8202;0.9768;-1.4269;-0.2358;0.0678;-0.0453
0000844915;12.2009;0.6416;-1.3168;-0.2270;0.0710;-0.0317
0000844923;12.2703;0.5219;-1.2977;-0.2116;0.0779;-0.0063
0000844935;12.5001;0.3280;-1.0894;-0.1561;0.0782;0.0284
0000844943;12.6677;0.4860;-1.0630;-0.1286;0.0899;0.0448
0000844951;12.6414;0.4549;-1.1516;-0.0914;0.0758;0.0596
0000844963;12.8329;0.5938;-1.3862;-0.0754;0.0814;0.0802
0000844971;12.8305;0.3328;-1.2785;-0.0721;0.0687;0.0897
0000844983;13.0221;0.3591;-1.4198;-0.0874;0.0819;0.1009
0000844991;13.2543;0.4717;-1.2498;-0.1025;0.0829;0.1170
0000845003;13.1705;0.2179;-1.3048;-0.0973;0.0927;0.1239
0000845011;13.2687;0.0431;-1.1612;-0.0938;0.0850;0.1314
0000845023;13.4913;-0.0766;-1.1253;-0.0638;0.0806;0.1270
0000845031;13.6015;-0.2514;-1.1468;-0.0464;0.0809;0.1219
0000845099;13.6446;-0.3352;-1.0750;-0.0694;0.0665;0.1009
0000845107;13.8936;-0.1844;-1.0918;-0.0698;0.0723;0.0937
0000845115;13.7307;-0.4717;-0.9984;-0.0835;0.0814;0.0895
0000845127;13.9031;-0.3256;-0.8739;-0.0773;0.0851;0.0737
0000845135;13.5608;-0.5650;-0.7015;-0.0721;0.0882;0.0738
0000845147;13.6422;-0.5411;-0.7925;-0.0624;0.1015;0.0617
0000845155;13.5679;-0.6464;-0.7063;-0.0518;0.1033;0.0482
0000845167;13.8217;-0.5507;-0.5890;-0.0313;0.1007;0.0514
0000845175;13.5608;-0.4501;-0.5171;-0.0180;0.1082;0.0405
0000845187;13.3860;-0.6249;-0.7398;-0.0160;0.1042;0.0345
0000845195;13.5177;-0.4788;-0.6273;-0.0125;0.0926;0.0236
0000845207;13.5488;-0.4717;-0.4884;-0.0136;0.0977;-0.0025
0000845215;13.5368;-0.5100;-0.5746;-0.0111;0.0883;-0.0120
0000845223;13.6374;-0.3376;-0.4717;-0.0160;0.0851;-0.0199
0000845235;13.5129;-0.2107;-0.6680;-0.0297;0.0793;-0.0306
0000845243;13.4794;-0.2370;-0.6440;-0.0512;0.0767;-0.0368
0000845255;13.3620;-0.1365;-0.5195;-0.0746;0.0613;-0.0429
0000845263;13.1585;-0.2083;-0.4621;-0.0769;0.0536;-0.0448
0000845275;13.1921;-0.1197;-0.4693;-0.0758;0.0345;-0.0486
0000845283;13.1705;-0.2490;-0.3496;-0.0783;0.0257;-0.0521
0000845295;13.0652;-0.2969;-0.4046;-0.0755;0.0027;-0.0549
0000845303;13.4410;-0.0862;-0.4094;-0.0742;-0.0068;-0.0536
0000845371;13.2375;0.4884;-0.8811;-0.0681;-0.0473;-0.0616
0000845379;12.8257;0.2849;-0.8930;-0.0814;-0.0576;-0.0617
0000845391;13.0245;0.5483;-0.9481;-0.1116;-0.0644;-0.0453
0000845399;12.7443;0.1532;-0.9553;-0.1163;-0.0686;-0.0394
0000845407;12.9431;0.2490;-0.9984;-0.1116;-0.0734;-0.0350
0000845419;13.0077;0.1030;-0.9601;-0.1207;-0.0798;-0.0360
0000845427;13.2543;0.2394;-0.9792;-0.1304;-0.0758;-0.0336
0000845439;13.0412;0.1149;-0.9433;-0.1175;-0.0775;-0.0340
0000845447;13.1609;0.1149;-0.9409;-0.1176;-0.0633;-0.0262
0000845459;13.2495;0.2849;-0.7997;-0.1051;-0.0618;-0.0261
0000845467;13.2567;0.2682;-0.7733;-0.0926;-0.0564;-0.0300
0000845479;13.2950;0.0886;-0.8667;-0.0686;-0.0478;-0.0329
0000845487;13.3740;0.2346;-0.8787;-0.0679;-0.0356;-0.0334
0000845499;13.4003;0.2658;-0.8811;-0.0757;-0.0159;-0.0262
0000845507;13.2974;0.3424;-0.7925;-0.0802;-0.0140;-0.0273
0000845515;13.4339;0.2538;-0.7805;-0.0817;-0.0045;-0.0159
0000845527;13.1944;0.0622;-0.6369;-0.0726;-0.0039;-0.0116
0000845535;13.1178;-0.1437;-0.6105;-0.0714;-0.0017;-0.0065
0000845547;13.1873;-0.1532;-0.5555;-0.0588;-0.0011;-0.0069
0000845555;13.2375;-0.0120;-0.6225;-0.0622;-0.0039;-0.0049
0000845567;13.3836;0.2346;-0.6440;-0.0582;-0.0121;-0.0080
0000845575;13.2088;0.0263;-0.5818;-0.0556;-0.0203;-0.0107
0000845643;13.1035;0.1437;-0.4884;-0.0368;-0.0610;-0.0024
0000845651;13.1202;0.1269;-0.5842;-0.0382;-0.0649;-0.0104
0000845663;13.0316;0.0527;-0.6273;-0.0450;-0.0686;-0.0044
0000845671;13.2184;0.0670;-0.6201;-0.0450;-0.0739;-0.0119
0000845683;13.3166;0.0192;-0.5171;-0.0453;-0.0686;-0.0049
0000845691;13.2399;0.0000;-0.5004;-0.0345;-0.0674;-0.0023
0000845703;13.2423;-0.1413;-0.5483;-0.0224;-0.0636;-0.0056
0000845711;13.3788;0.0503;-0.5483;-0.0084;-0.0671;-0.0031
0000845719;13.3405;0.0311;-0.5602;-0.0121;-0.0569;0.0031
0000845731;12.9861;0.0215;-0.6440;-0.0095;-0.0558;0.0025
0000845739;13.1370;0.1772;-0.6105;-0.0191;-0.0585;0.0049
0000845752;13.1537;0.1604;-0.5578;-0.0318;-0.0532;0.0104
0000845761;13.2495;0.1413;-0.6201;-0.0408;-0.0464;0.0215
0000845774;13.1154;-0.1006;-0.6273;-0.0329;-0.0404;0.0249
0000845783;13.4578;0.0886;-0.6369;-0.0168;-0.0404;0.0156
0000845796;13.2112;0.0120;-0.7087;-0.0071;-0.0384;0.0157
0000845805;13.3573;0.0742;-0.7494;-0.0031;-0.0389;0.0035
0000845818;13.1561;0.0215;-0.6440;0.0055;-0.0433;-0.0051
0000845827;13.4506;0.0311;-0.7254;0.0047;-0.0398;-0.0041
0000845836;13.3022;-0.0096;-0.7638;0.0137;-0.0426;-0.0093
0000845849;13.2280;-0.0742;-0.7542;0.0131;-0.0438;-0.0075
0000845858;13.0173;-0.0527;-0.7015;0.0084;-0.0466;-0.0053
0000845927;13.3453;0.0455;-0.6847;-0.0113;-0.0532;0.0044
0000845936;13.1992;-0.0096;-0.6728;-0.0052;-0.0542;-0.0003
0000845949;13.2447;-0.1413;-0.6776;-0.0028;-0.0597;-0.0131
0000845958;13.5368;0.1389;-0.7566;-0.0048;-0.0473;-0.0181
0000845971;13.3668;0.1341;-0.7853;-0.0051;-0.0313;-0.0200
0000845980;13.1466;-0.0982;-0.7829;0.0015;-0.0221;-0.0217
0000845993;13.2160;0.3926;-0.8260;0.0069;0.0051;0.0071
0000846002;12.9622;0.3352;-0.6369;0.0183;0.0111;0.0469
0000846011;12.4714;0.2634;-0.6440;0.0208;-0.0017;0.0866
0000846024;12.5791;0.3160;-0.8906;0.0028;-0.0324;0.1038
0000846033;12.5336;0.2011;-0.7183;-0.0033;-0.0446;0.1070
0000846046;13.0939;0.1053;-0.5483;0.0262;-0.0470;0.1797
0000846055;13.0867;-0.0383;-0.7709;0.0225;-0.0592;0.2078
0000846068;13.3166;-0.0287;-0.7781;0.0292;-0.0526;0.1629
0000846077;13.4195;-0.1053;-0.6943;0.0145;-0.0620;0.1235
0000846090;13.5632;-0.1365;-0.7087;-0.0161;-0.0690;0.0802
0000846099;13.7092;-0.0718;-0.7470;-0.0159;-0.0809;0.0477
0000846112;13.9726;0.0407;-0.5722;-0.0273;-0.0762;0.0300
0000846121;13.9390;0.0215;-0.5124;-0.0408;-0.0711;0.0325
0000846130;14.0851;-0.0527;-0.5507;-0.0362;-0.0797;0.0156
0000846143;13.7667;-0.4453;-0.6393;-0.0457;-0.0791;0.0089
0000846152;13.9151;-0.3256;-0.6608;-0.0506;-0.0846;0.0047
0000846221;14.0181;-0.2490;-1.0463;-0.0316;-0.0469;-0.0083
0000846230;13.9797;-0.2035;-0.9553;-0.0321;-0.0348;-0.0230
0000846243;13.6230;0.0814;-0.8978;-0.0236;-0.0204;-0.0373
0000846252;13.3477;0.2155;-0.8452;-0.0181;-0.0314;-0.0386
0000846265;13.1585;0.1245;-0.8547;-0.0077;-0.0468;-0.0212
0000846274;12.9933;0.0694;-0.8475;-0.0096;-0.0530;-0.0160
0000846287;13.5105;0.2298;-0.7470;-0.0135;-0.0396;-0.0161
0000846296;13.4387;-0.0742;-0.7302;-0.0125;-0.0272;-0.0211
0000846312;13.5655;-0.0048;-0.6536;-0.0047;0.0051;-0.0224
0000846321;13.3213;-0.1413;-0.5578;0.0119;0.0063;-0.0306
0000846330;12.8497;-0.0790;-0.5794;0.0175;0.0169;-0.0240
0000846343;12.8904;0.0982;-0.5986;0.0207;0.0045;-0.0139
0000846352;12.6462;-0.0479;-0.5171;0.0159;-0.0037;-0.0125
0000846364;12.6988;-0.1365;-0.6105;0.0324;-0.0268;-0.0137
0000846373;12.9167;-0.1484;-0.5842;0.0406;-0.0400;-0.0023
0000846386;13.3405;0.0622;-0.6201;0.0366;-0.0606;0.0016
0000846395;13.3213;0.0311;-0.6656;0.0177;-0.0657;0.0064
0000846465;13.2926;-0.1987;-0.8236;-0.0112;-0.0723;0.0332
0000846474;13.5129;-0.0575;-0.9170;-0.0187;-0.0719;0.0308
0000846487;13.5105;-0.1365;-0.8595;-0.0249;-0.0886;0.0131
0000846496;13.4602;-0.1053;-0.8978;-0.0376;-0.0854;0.0108
0000846505;13.4913;-0.2107;-0.8452;-0.0448;-0.0879;0.0105
0000846517;13.6877;-0.2921;-0.9840;-0.0501;-0.0806;-0.0072
0000846526;13.7834;-0.1341;-0.9553;-0.0505;-0.0775;-0.0056
0000846539;13.7691;-0.2346;-0.9409;-0.0428;-0.0697;-0.0032
0000846548;13.8744;-0.0096;-0.9625;-0.0502;-0.0601;0.0051
0000846560;13.7164;-0.0407;-0.9290;-0.0492;-0.0589;-0.0039
0000846569;13.4626;-0.1101;-1.0199;-0.0469;-0.0585;-0.0039
0000846582;13.6062;-0.0479;-0.8906;-0.0578;-0.0492;-0.0071
0000846591;13.6134;-0.0790;-0.8284;-0.0601;-0.0480;-0.0003
0000846603;13.4243;-0.2059;-0.7757;-0.0522;-0.0474;-0.0029
0000846612;13.6230;-0.1341;-0.7590;-0.0425;-0.0418;0.0012
0000846625;13.5129;-0.2969;-0.7111;-0.0294;-0.0340;-0.0105
0000846634;13.5081;-0.1628;-0.6321;-0.0216;-0.0260;-0.0121
0000846646;13.3309;-0.1508;-0.6608;-0.0237;-0.0237;-0.0100
0000846655;13.2208;-0.2322;-0.6919;-0.0175;-0.0277;-0.0128
0000846664;13.2663;-0.0886;-0.5938;-0.0230;-0.0294;-0.0064
0000846677;13.2256;-0.0766;-0.6393;-0.0164;-0.0340;-0.0127
0000846686;13.1633;-0.1269;-0.6057;-0.0097;-0.0362;-0.0064
0000846756;13.6254;0.1652;-0.7230;0.0670;-0.0313;-0.0067
0000846765;13.1777;-0.1772;-0.7542;0.0655;-0.0246;-0.0101
0000846778;13.4841;-0.2107;-0.7638;0.0726;-0.0205;0.0007
0000846787;13.4243;-0.2658;-0.8164;0.0685;-0.0200;-0.0071
0000846799;13.6829;-0.3136;-0.7398;0.0698;-0.0225;-0.0262
0000846808;13.6924;-0.1030;-0.8332;0.0714;-0.0197;-0.0468
0000846821;13.5153;-0.1748;-0.9481;0.0608;-0.0304;-0.0566
0000846830;13.5871;-0.0263;-0.7302;0.0356;-0.0233;-0.0528
0000846842;13.5871;-0.0622;-0.9481;0.0254;-0.0365;-0.0596
0000846851;13.5033;-0.0838;-0.8787;-0.0003;-0.0301;-0.0452
0000846860;13.5057;-0.1006;-0.9074;-0.0161;-0.0334;-0.0369
0000846873;13.4434;-0.1724;-0.9146;-0.0163;-0.0368;-0.0334
0000846882;13.2543;-0.2514;-0.8739;-0.0147;-0.0366;-0.0369
0000846894;13.4530;-0.1700;-0.9816;-0.0133;-0.0402;-0.0437
0000846903;13.1202;-0.4836;-1.0487;-0.0163;-0.0460;-0.0552
0000846916;13.5512;-0.0335;-0.8188;-0.0004;-0.0472;-0.0425
0000846925;13.6709;0.1197;-0.8835;-0.0004;-0.0410;-0.0338
0000846937;13.6134;-0.1437;-1.0104;-0.0225;-0.0362;-0.0242
0000846946;13.6517;-0.0168;-0.9960;-0.0248;-0.0441;-0.0261
0000846959;13.2758;-0.1508;-0.9385;-0.0293;-0.0460;-0.0296
0000846968;13.2591;-0.0622;-0.8308;-0.0394;-0.0410;-0.0157
0000847036;13.0963;-0.0215;-0.8523;-0.0208;-0.0556;-0.0159
0000847045;13.2711;0.2658;-0.7901;-0.0246;-0.0601;-0.0179
0000847058;13.1130;-0.1652;-0.8332;-0.0322;-0.0578;-0.0089
0000847067;13.3596;-0.1030;-0.7542;-0.0281;-0.0636;-0.0167
0000847076;13.4267;-0.0192;-0.7398;-0.0264;-0.0584;-0.0088
0000847088;13.3357;-0.1077;-0.7254;-0.0257;-0.0561;-0.0085
0000847097;13.3118;-0.2610;-0.7230;-0.0144;-0.0581;-0.0111
0000847110;13.5967;-0.1125;-0.7757;-0.0019;-0.0501;-0.0101
0000847119;13.5919;-0.2179;-0.7111;-0.0004;-0.0408;-0.0021
0000847131;13.4985;-0.2011;-0.7590;0.0084;-0.0404;-0.0091
0000847140;13.5560;-0.0694;-0.7733;-0.0008;-0.0360;-0.0019
0000847153;13.4770;-0.0479;-0.7949;-0.0045;-0.0372;0.0003
0000847162;13.3573;-0.1508;-0.8284;0.0029;-0.0418;-0.0004
0000847174;13.4267;-0.0766;-0.9074;0.0011;-0.0432;0.0004
0000847183;13.4075;-0.2131;-0.8428;0.0040;-0.0442;0.0021
0000847196;13.3788;-0.1317;-0.8667;0.0104;-0.0497;-0.0120
0000847205;13.3070;-0.1030;-0.8428;0.0071;-0.0420;-0.0055
0000847217;13.4506;-0.1604;-0.8667;0.0027;-0.0406;-0.0116
0000847226;13.4291;-0.1963;-0.7542;0.0003;-0.0325;-0.0115
0000847235;13.5679;-0.0814;-0.8308;0.0061;-0.0317;-0.0131
0000847248;13.5416;-0.1676;-0.7901;0.0083;-0.0340;-0.0179
0000847257;13.2998;-0.2490;-0.7709;0.0023;-0.0324;-0.0152
0000847327;13.3261;-0.0862;-0.8859;-0.0049;-0.0328;-0.0173
0000847336;13.4674;-0.0670;-0.8571;-0.0087;-0.0354;-0.0147
0000847349;13.2160;-0.2825;-0.8667;-0.0143;-0.0304;-0.0107
0000847358;13.3142;-0.3328;-0.8404;-0.0073;-0.0333;-0.0115
0000847370;13.3022;-0.1532;-0.8236;0.0017;-0.0412;-0.0099
0000847379;13.1729;-0.1460;-0.7661;0.0076;-0.0420;-0.0141
0000847392;13.4913;-0.0048;-0.9098;0.0092;-0.0441;-0.0163
0000847401;13.1849;-0.1939;-1.0056;-0.0040;-0.0345;-0.0105
0000847413;13.3166;-0.1101;-0.7566;0.0100;-0.0390;-0.0081
0000847422;13.4195;-0.0407;-0.8571;0.0193;-0.0456;-0.0065
0000847431;13.3142;-0.0862;-0.8954;0.0096;-0.0398;-0.0133
0000847444;13.3166;-0.0622;-0.9002;-0.0112;-0.0330;-0.0129
0000847453;13.1633;-0.1269;-0.8236;-0.0171;-0.0325;-0.0049
0000847465;13.3740;-0.0958;-0.6536;-0.0039;-0.0345;0.0015
0000847474;13.4363;-0.1604;-0.7877;0.0099;-0.0406;-0.0069
0000847487;13.6422;-0.0335;-0.6632;0.0234;-0.0453;-0.0097
0000847496;13.4698;-0.1748;-0.6943;0.0461;-0.0562;-0.0056
0000847508;13.4985;-0.1963;-0.7518;0.0802;-0.0558;-0.0218
0000847517;13.6829;-0.0742;-0.6105;0.1074;-0.0718;-0.0436
0000847530;13.7260;-0.0766;-0.4741;0.1663;-0.0907;-0.0778
0000847539;13.7284;-0.3687;-0.5602;0.2145;-0.0951;-0.1114
0000847609;14.1210;0.1437;-1.1540;0.2641;-0.3467;-0.3476
0000847618;13.8983;-0.1437;-1.4605;0.2296;-0.3691;-0.3532
0000847627;14.0635;-0.0168;-1.2785;0.2330;-0.3922;-0.3473
0000847640;13.8169;-0.1389;-1.1229;0.2407;-0.4165;-0.3549
0000847649;13.4674;-0.6752;-1.0918;0.2349;-0.4530;-0.3481
0000847661;12.9047;-0.7278;-1.1588;0.2896;-0.4878;-0.3749
0000847670;12.8760;-0.6105;-1.2857;0.2958;-0.5155;-0.4033
0000847683;12.5145;-0.5555;-1.3144;0.2815;-0.5436;-0.3984
0000847692;12.6246;-0.4262;-1.3216;0.2598;-0.5625;-0.3958
0000847704;12.3972;-0.5650;-1.4700;0.2429;-0.6193;-0.3825
0000847713;12.3756;-0.5435;-1.3096;0.2342;-0.6543;-0.3631
0000847726;12.4546;-0.3879;-1.2019;0.1901;-0.7133;-0.3508
0000847735;12.4618;-0.4573;-1.3886;0.1795;-0.7474;-0.3504
0000847746;12.4139;-0.4334;-1.5275;0.1784;-0.7922;-0.3667
0000847755;12.3086;-0.5722;-1.5036;0.1811;-0.8208;-0.3588
0000847764;12.0859;-0.6488;-1.3862;0.1840;-0.8511;-0.3531
0000847778;12.0045;-0.5722;-1.4940;0.2001;-0.9313;-0.3507
0000847787;11.8776;-0.5746;-1.6352;0.2105;-0.9948;-0.3527
0000847800;11.6119;-0.5243;-1.8292;0.2384;-1.0864;-0.3543
0000847809;11.5424;-0.2011;-1.8364;0.2368;-1.1482;-0.3364
0000847821;11.8657;0.4334;-2.0686;0.2272;-1.2064;-0.3375
0000847830;11.7723;0.5578;-2.1715;0.1873;-1.2544;-0.3559
0000847899;13.2878;1.1516;-3.1603;-0.3653;-1.0726;-0.4018
0000847908;13.2232;1.1133;-3.2585;-0.4113;-1.0199;-0.4327
0000847920;12.9454;1.1229;-3.2394;-0.4538;-0.9493;-0.4650
0000847929;12.5097;1.1875;-2.9449;-0.4895;-0.8985;-0.4892
0000847942;11.6502;0.7661;-2.9568;-0.4834;-0.8721;-0.4912
0000847949;11.3150;0.6464;-3.0789;-0.4443;-0.8519;-0.4780
0000847957;11.1091;0.6081;-3.0861;-0.4430;-0.8438;-0.4403
0000847968;11.1091;0.7494;-2.9640;-0.4419;-0.8398;-0.4161
0000847976;11.4108;0.9840;-3.1987;-0.4161;-0.8312;-0.4210
0000847988;11.7100;1.0439;-3.2705;-0.3880;-0.8064;-0.4846
