time;acc_x;acc_y;acc_z;gyro_x;gyro_y;gyro_z
0000307605;5.9640;-16.0842;1.3408;0.0012;-0.0822;-0.0144
0000307613;5.9017;-16.1968;1.3455;0.0049;-0.0811;-0.0143
0000307620;5.8155;-16.2231;1.3455;0.0041;-0.0823;-0.0169
0000307628;5.9975;-16.0675;1.3408;0.0076;-0.0775;-0.0191
0000307637;6.0358;-15.9526;1.3791;0.0039;-0.0819;-0.0151
0000307645;5.8897;-16.0771;1.3048;0.0077;-0.0779;-0.0195
0000307657;5.8155;-16.1680;1.3527;0.0089;-0.0791;-0.0164
0000307665;5.9161;-16.0890;1.3767;0.0107;-0.0823;-0.0187
0000307673;5.8754;-16.1082;1.4365;0.0056;-0.0762;-0.0121
0000307684;5.7557;-16.1896;1.4198;0.0075;-0.0801;-0.0128
0000307692;6.0190;-15.9717;1.4126;0.0107;-0.0803;-0.0218
0000307704;5.7748;-16.0531;1.4485;0.0024;-0.0745;-0.0172
0000307712;5.9831;-16.0340;1.3791;-0.0055;-0.0670;-0.0135
0000307723;6.0478;-15.9143;1.4174;-0.0060;-0.0663;-0.0180
0000307731;5.9400;-16.1178;1.3096;-0.0080;-0.0570;-0.0141
0000307799;5.9041;-16.0340;1.3743;-0.0016;-0.0683;-0.0101
0000307807;5.7174;-16.0651;1.3671;-0.0135;-0.0697;-0.0013
0000307818;5.7700;-16.1321;1.3264;-0.0137;-0.0785;-0.0043
0000307826;5.8586;-15.8664;1.3264;-0.0079;-0.0886;-0.0057
0000307838;5.8347;-16.0196;1.3527;-0.0161;-0.0946;-0.0085
0000307846;5.8155;-16.0268;1.3934;-0.0153;-0.0987;0.0005
0000307854;5.9065;-16.0316;1.3743;-0.0207;-0.0991;0.0019
0000307865;5.9041;-16.1082;1.3072;-0.0161;-0.1053;0.0020
0000307873;5.8610;-16.0579;1.3934;-0.0180;-0.1055;0.0016
0000307885;5.8610;-15.9765;1.4102;-0.0175;-0.1082;0.0036
0000307893;5.9041;-16.0651;1.3503;-0.0145;-0.1120;0.0048
0000307904;5.7604;-16.0795;1.3431;-0.0097;-0.1194;-0.0001
0000307912;5.8466;-15.9957;1.3264;-0.0148;-0.1148;0.0079
0000307924;5.7317;-16.1656;1.3743;-0.0141;-0.1186;0.0027
0000307932;5.6982;-16.0938;1.3455;-0.0153;-0.1207;0.0017
0000307943;5.8682;-15.9597;1.3384;-0.0168;-0.1266;0.0011
0000307951;5.8347;-16.0316;1.3743;-0.0224;-0.1215;0.0063
0000307959;6.0358;-15.8400;1.3791;-0.0188;-0.1310;-0.0012
0000307971;5.9807;-15.9765;1.3096;-0.0228;-0.1304;0.0036
0000307979;5.7509;-16.0483;1.3240;-0.0196;-0.1342;0.0049
0000307991;5.9256;-16.0603;1.3479;-0.0208;-0.1354;-0.0004
0000307999;5.8730;-16.0244;1.3144;-0.0191;-0.1374;0.0004
0000308067;5.8586;-16.0196;1.4269;-0.0017;-0.1661;0.0063
0000308075;5.6455;-16.0507;1.3982;0.0036;-0.1789;0.0023
0000308086;5.7437;-16.1106;1.3479;0.0023;-0.1860;0.0005
0000308094;5.7150;-16.0124;1.3910;0.0029;-0.1876;0.0081
0000308102;5.6431;-16.2351;1.4246;0.0100;-0.2062;0.0020
0000308114;5.8083;-15.9095;1.4006;0.0097;-0.2146;0.0047
0000308122;5.5354;-16.0914;1.3695;0.0047;-0.2154;0.0149
0000308133;5.6455;-16.0986;1.3862;0.0111;-0.2244;0.0149
0000308141;5.6096;-16.0651;1.3958;0.0124;-0.2336;0.0143
0000308153;5.7940;-16.0340;1.4916;0.0161;-0.2441;0.0207
0000308161;5.7964;-16.0579;1.5012;0.0221;-0.2587;0.0187
0000308172;5.6623;-16.0268;1.4126;0.0112;-0.2590;0.0276
0000308180;5.6695;-16.0483;1.4246;0.0121;-0.2717;0.0236
0000308192;5.7748;-16.0076;1.4078;0.0081;-0.2799;0.0298
0000308200;5.7461;-15.9358;1.3838;0.0096;-0.2908;0.0302
0000308208;5.7940;-15.8520;1.4006;0.0075;-0.2920;0.0310
0000308219;5.7557;-15.9238;1.4389;-0.0019;-0.2966;0.0336
0000308227;5.6982;-16.0603;1.4461;-0.0043;-0.2987;0.0390
0000308239;5.5833;-16.1656;1.3934;-0.0071;-0.3054;0.0400
0000308247;5.7748;-16.0412;1.4365;-0.0033;-0.3140;0.0348
0000308259;5.7604;-15.9981;1.4341;-0.0052;-0.3251;0.0348
0000308267;5.6383;-16.0747;1.4222;-0.0091;-0.3285;0.0374
0000308335;5.6144;-16.1082;1.4581;-0.0076;-0.4211;0.0663
0000308343;5.5976;-16.0507;1.3862;-0.0064;-0.4273;0.0725
0000308351;5.6647;-16.0196;1.4222;-0.0131;-0.4353;0.0759
0000308362;5.8275;-16.0412;1.4222;-0.0128;-0.4447;0.0739
0000308370;5.6336;-16.1202;1.3886;-0.0147;-0.4465;0.0751
0000308382;5.8275;-15.9238;1.3982;-0.0171;-0.4539;0.0839
0000308390;5.8921;-15.9526;1.4485;-0.0252;-0.4453;0.0818
0000308401;5.8610;-16.0005;1.4030;-0.0238;-0.4541;0.0749
0000308409;5.8275;-16.0340;1.3001;-0.0338;-0.4438;0.0766
0000308421;5.8969;-15.9693;1.3838;-0.0404;-0.4561;0.0711
0000308429;5.7365;-16.1800;1.2713;-0.0468;-0.4663;0.0640
0000308440;5.7341;-16.0052;1.3096;-0.0666;-0.4592;0.0650
0000308448;5.6288;-15.9502;1.2354;-0.0715;-0.4699;0.0585
0000308456;5.6647;-15.9981;1.2067;-0.0790;-0.4742;0.0545
0000308468;5.7174;-16.0364;1.2498;-0.0947;-0.4838;0.0468
0000308476;5.6120;-16.2231;1.1779;-0.1009;-0.4900;0.0433
0000308487;5.8634;-16.0675;1.0582;-0.1017;-0.5060;0.0309
0000308495;5.6719;-16.2949;1.2186;-0.0965;-0.5067;0.0337
0000308507;5.9664;-16.2399;1.2546;-0.0834;-0.5081;0.0276
0000308515;6.2345;-16.2159;1.2809;-0.0745;-0.5092;0.0312
0000308527;6.2297;-16.2686;1.3024;-0.0709;-0.5033;0.0374
0000308535;6.1244;-16.1848;1.2258;-0.0609;-0.5002;0.0304
0000308602;6.0262;-15.9119;1.2881;-0.0301;-0.4688;0.0145
0000308610;5.7748;-16.0220;1.2570;-0.0169;-0.4788;0.0171
0000308618;5.7844;-15.9406;1.2234;-0.0288;-0.4742;0.0318
0000308629;5.7700;-15.9143;1.1229;-0.0313;-0.4914;0.0418
0000308637;5.7269;-15.9167;1.1851;-0.0284;-0.5116;0.0402
0000308649;5.6599;-15.9981;1.2713;-0.0272;-0.5494;0.0424
0000308657;5.6479;-16.1704;1.2498;-0.0249;-0.5630;0.0581
0000308668;5.8323;-16.1202;1.1923;-0.0159;-0.5966;0.0743
0000308676;5.8107;-16.1130;1.1444;-0.0116;-0.6131;0.0923
0000308688;5.7557;-16.2686;1.1085;0.0032;-0.6480;0.1025
0000308696;5.8897;-16.2255;1.0630;0.0019;-0.6607;0.1132
0000308704;6.1076;-16.1752;1.0582;0.0079;-0.6759;0.1206
0000308715;6.0501;-16.1920;1.1133;-0.0043;-0.6773;0.1332
0000308723;6.2321;-16.1561;0.9936;0.0041;-0.6888;0.1404
0000308735;6.3327;-16.1848;1.0846;-0.0060;-0.6730;0.1487
0000308743;6.4404;-16.0459;1.0151;-0.0152;-0.6667;0.1464
0000308754;6.6319;-16.0747;1.0582;-0.0229;-0.6440;0.1390
0000308762;6.4524;-16.1992;1.1708;-0.0269;-0.6289;0.1304
0000308774;6.6679;-16.1968;1.1205;-0.0474;-0.5950;0.1210
0000308782;6.5817;-16.2303;1.1540;-0.0524;-0.5858;0.1033
0000308794;6.6343;-16.2758;1.1061;-0.0614;-0.5605;0.0765
0000308802;6.5625;-16.3021;1.1301;-0.0699;-0.5308;0.0693
0000308810;6.4284;-16.4338;1.1277;-0.0807;-0.5252;0.0510
0000308879;6.4787;-16.2686;1.0199;-0.0618;-0.4157;0.0185
0000308886;6.5362;-16.2087;1.1756;-0.0534;-0.4100;0.0187
0000308897;6.4835;-16.2901;1.1396;-0.0453;-0.4002;0.0148
0000308905;6.5362;-16.1968;1.1588;-0.0464;-0.3824;0.0241
0000308917;6.3566;-16.3165;1.1995;-0.0377;-0.3820;0.0253
0000308925;6.4907;-16.1058;1.1588;-0.0328;-0.3789;0.0274
0000308936;6.4117;-16.1058;1.2258;-0.0313;-0.3665;0.0313
0000308944;6.4380;-16.0986;1.1564;-0.0289;-0.3668;0.0292
0000308956;6.3805;-15.8855;1.2450;-0.0313;-0.3608;0.0337
0000308964;6.3973;-16.0531;1.0846;-0.0426;-0.3461;0.0402
0000308972;6.6200;-15.7299;1.0511;-0.0520;-0.3316;0.0446
0000308984;6.6822;-15.7754;1.0654;-0.0746;-0.2990;0.0524
0000308992;6.7493;-15.7969;0.9744;-0.0897;-0.2821;0.0468
0000309003;6.8187;-15.6413;0.9529;-0.1139;-0.2489;0.0460
0000309011;6.9432;-15.6389;0.9625;-0.1315;-0.2268;0.0429
0000309023;6.9336;-15.7658;0.9385;-0.1623;-0.1813;0.0444
0000309031;6.7804;-15.9358;1.0032;-0.1709;-0.1581;0.0452
0000309043;6.7469;-16.0244;1.0199;-0.1805;-0.1196;0.0544
0000309050;6.8283;-16.2016;0.8954;-0.1744;-0.1094;0.0554
0000309062;6.4859;-16.2901;0.9649;-0.1689;-0.0946;0.0665
0000309070;6.4236;-16.3069;0.9218;-0.1490;-0.0927;0.0737
0000309078;6.1483;-16.4577;0.9385;-0.1316;-0.0934;0.0813
0000309147;5.8059;-16.3404;1.2905;-0.1295;-0.3627;0.1120
0000309155;5.7868;-16.5224;1.2450;-0.1256;-0.3806;0.1172
0000309167;6.0645;-16.5344;1.2426;-0.1069;-0.4084;0.1120
0000309175;6.0501;-16.5966;1.2737;-0.0931;-0.4155;0.1085
0000309186;6.3590;-16.4697;1.2570;-0.0593;-0.4243;0.0989
0000309194;6.4093;-16.4123;1.1612;-0.0517;-0.4120;0.0957
0000309206;6.4069;-16.3811;1.1947;-0.0269;-0.3994;0.0949
0000309214;6.4620;-16.4841;1.2115;-0.0213;-0.3805;0.0965
0000309225;6.7971;-16.0340;1.3144;-0.0205;-0.3559;0.0897
0000309233;6.7062;-16.0842;1.2067;-0.0265;-0.3304;0.0862
0000309241;6.7157;-15.8903;1.2067;-0.0364;-0.3007;0.0846
0000309253;6.6655;-15.7538;1.0750;-0.0437;-0.2755;0.0778
0000309261;6.4955;-15.6820;1.1803;-0.0590;-0.2553;0.0817
0000309272;6.2776;-15.5456;1.1779;-0.0733;-0.2511;0.0806
0000309280;6.1316;-15.5240;1.0654;-0.0882;-0.2601;0.0729
0000309292;5.9520;-15.5432;1.1277;-0.1184;-0.2729;0.0653
0000309300;5.8299;-15.5886;1.1971;-0.1471;-0.2955;0.0659
0000309312;5.5522;-15.7323;1.2019;-0.1717;-0.3415;0.0666
0000309320;5.3534;-15.9502;1.1157;-0.1873;-0.3893;0.0602
0000309328;5.0949;-16.0076;1.2426;-0.2018;-0.4334;0.0682
0000309396;5.5330;-16.2135;0.9170;-0.1615;-0.8131;0.1222
0000309404;5.5905;-16.2997;0.9122;-0.1522;-0.8315;0.1259
0000309415;5.7772;-16.2949;0.9505;-0.1382;-0.8428;0.1328
0000309423;6.0645;-16.1513;0.8475;-0.1314;-0.8479;0.1339
0000309435;5.9903;-16.0962;0.8164;-0.1303;-0.8495;0.1322
0000309443;6.1387;-15.9669;0.8475;-0.1387;-0.8359;0.1343
0000309454;5.9735;-16.2135;0.8906;-0.1479;-0.8312;0.1252
0000309462;6.1076;-16.0962;0.8715;-0.1367;-0.8336;0.1152
0000309474;6.0956;-15.9813;0.8859;-0.1463;-0.8240;0.1099
0000309482;6.0573;-16.0938;0.8811;-0.1448;-0.8259;0.1035
0000309490;6.0214;-15.9885;0.9002;-0.1498;-0.8268;0.1025
0000309501;5.8849;-16.1178;0.9792;-0.1484;-0.8279;0.0969
0000309509;5.8754;-16.1082;0.9290;-0.1440;-0.8287;0.0981
0000309521;5.9400;-16.1273;1.0319;-0.1356;-0.8505;0.0834
0000309529;5.9903;-15.9957;0.9553;-0.1315;-0.8520;0.0806
0000309540;5.8299;-16.2447;1.1061;-0.1262;-0.8663;0.0739
0000309548;5.8754;-16.2590;1.0630;-0.1196;-0.8735;0.0721
0000309560;5.7317;-16.3069;0.9505;-0.1146;-0.8765;0.0753
0000309568;5.9065;-16.3955;1.0343;-0.1099;-0.8843;0.0719
0000309580;6.0621;-16.2806;1.0822;-0.1025;-0.8785;0.0755
0000309588;6.2082;-16.2183;1.0199;-0.0927;-0.8823;0.0746
0000309596;6.0454;-16.2064;1.0080;-0.0913;-0.8843;0.0767
0000309664;5.9975;-15.9861;0.9673;-0.1019;-0.8767;0.1081
0000309672;5.8347;-16.1537;0.9266;-0.1107;-0.8777;0.1142
0000309683;5.7078;-16.0986;0.9433;-0.1063;-0.8946;0.1170
0000309691;5.6360;-16.1609;0.8763;-0.1074;-0.9062;0.1223
0000309703;5.6575;-16.1034;0.9361;-0.0989;-0.9336;0.1267
0000309711;5.4133;-16.2854;0.9505;-0.1011;-0.9459;0.1359
0000309722;5.3606;-16.2040;0.9313;-0.0975;-0.9638;0.1464
0000309730;5.4420;-16.2183;0.9864;-0.0974;-0.9864;0.1528
0000309742;5.5665;-16.1585;0.8835;-0.0974;-1.0155;0.1611
0000309750;5.3056;-16.2207;0.9481;-0.0941;-1.0373;0.1725
0000309758;5.7102;-16.0292;1.0343;-0.1010;-1.0447;0.1857
0000309769;5.5043;-16.1297;0.9361;-0.1069;-1.0685;0.1966
0000309777;5.4803;-15.9933;0.8619;-0.1066;-1.0833;0.1984
0000309789;5.4492;-16.0771;0.8236;-0.1103;-1.1029;0.2022
0000309797;5.5258;-16.0890;0.8188;-0.1094;-1.1052;0.2045
0000309808;5.5258;-16.0723;0.8092;-0.1116;-1.1221;0.2020
0000309816;5.5976;-15.9095;0.7781;-0.1188;-1.1185;0.2054
0000309828;5.5498;-15.9502;0.8356;-0.1188;-1.1282;0.2022
0000309836;5.5569;-15.8736;0.8475;-0.1223;-1.1215;0.1992
0000309848;5.5186;-15.9143;0.8715;-0.1243;-1.1217;0.1873
0000309856;5.6024;-15.8927;0.8859;-0.1280;-1.1154;0.1813
0000309864;5.4540;-15.9262;0.8787;-0.1302;-1.1095;0.1679
0000309932;5.5258;-16.2973;0.9936;-0.1371;-1.0296;0.1231
0000309940;5.2529;-16.5104;1.0439;-0.1207;-1.0220;0.1320
0000309951;5.3870;-16.5631;1.1444;-0.1096;-1.0116;0.1506
0000309959;5.3798;-16.6948;1.1947;-0.0910;-1.0084;0.1659
0000309971;5.3271;-16.6229;1.2163;-0.0614;-1.0108;0.1844
0000309979;5.1858;-16.7043;1.1756;-0.0529;-1.0064;0.2057
0000309990;5.3415;-16.5655;1.0918;-0.0458;-1.0084;0.2210
0000309998;5.1451;-16.5320;1.0822;-0.0528;-1.0031;0.2425
0000310010;5.2672;-16.2590;0.9481;-0.0545;-1.0018;0.2598
0000310018;5.3917;-16.1034;0.9242;-0.0734;-0.9900;0.2713
0000310026;5.2026;-16.0459;0.8523;-0.0855;-0.9944;0.2727
0000310037;5.3439;-15.9167;0.8116;-0.0995;-0.9871;0.2823
0000310045;5.4348;-15.8376;0.9050;-0.1010;-0.9924;0.2750
0000310057;5.2313;-15.8927;0.8547;-0.1127;-0.9796;0.2722
0000310065;5.2912;-15.9526;0.7949;-0.1204;-0.9709;0.2731
0000310076;5.3463;-15.9597;0.8930;-0.1199;-0.9594;0.2609
0000310084;5.1906;-16.1273;0.8763;-0.1096;-0.9578;0.2503
0000310096;5.4827;-16.0507;1.0080;-0.0967;-0.9261;0.2394
0000310104;5.3223;-16.1465;0.8859;-0.0814;-0.9136;0.2216
0000310112;5.5929;-16.1728;0.9936;-0.0759;-0.8877;0.2149
0000310124;5.5282;-16.2686;0.9888;-0.0590;-0.8643;0.1921
0000310132;5.3343;-16.4146;0.9098;-0.0644;-0.8411;0.1848
0000310200;5.1906;-15.9262;0.8643;-0.0529;-0.7545;0.1235
0000310208;4.9991;-15.9430;0.9361;-0.0541;-0.7581;0.1167
0000310219;4.9919;-16.0723;0.8763;-0.0621;-0.7546;0.1167
0000310227;4.9321;-16.2111;0.8284;-0.0561;-0.7647;0.1082
0000310239;5.0566;-16.2590;0.9050;-0.0520;-0.7799;0.1059
0000310247;5.0709;-16.2925;0.8045;-0.0494;-0.7978;0.1005
0000310258;5.0805;-16.4649;0.9960;-0.0398;-0.8138;0.1067
0000310266;5.1523;-16.4051;1.0989;-0.0341;-0.8107;0.1246
0000310274;4.9105;-16.6301;1.0415;-0.0222;-0.8086;0.1376
0000310286;5.1404;-16.4362;1.0750;-0.0028;-0.7846;0.1564
0000310294;5.3941;-16.5152;1.1253;0.0121;-0.7669;0.1616
0000310305;5.3893;-16.4434;1.0989;0.0316;-0.7386;0.1587
0000310313;5.5737;-16.2782;1.0511;0.0406;-0.7083;0.1536
0000310325;5.5354;-16.0747;0.9553;0.0533;-0.6819;0.1440
0000310333;5.4612;-15.9262;0.9337;0.0501;-0.6699;0.1268
0000310345;5.3678;-15.5456;0.7374;0.0290;-0.6655;0.1083
0000310353;5.1308;-15.5336;0.7350;0.0019;-0.6588;0.0994
0000310364;4.9129;-15.5120;0.6584;-0.0304;-0.6769;0.0975
0000310372;4.6112;-15.5432;0.7542;-0.0589;-0.6837;0.1075
0000310380;4.4532;-15.5695;0.6823;-0.0781;-0.7047;0.1118
0000310392;4.5083;-15.6078;0.6129;-0.0946;-0.7517;0.1067
0000310400;4.4796;-15.7179;0.4717;-0.1094;-0.7727;0.1115
0000310468;5.3965;-15.9406;0.1173;-0.2144;-0.9198;0.0863
0000310476;5.5067;-15.8424;0.0263;-0.2245;-0.9209;0.0735
0000310488;5.7365;-16.0483;0.0072;-0.2442;-0.8957;0.0621
0000310496;5.5976;-16.0699;0.0359;-0.2490;-0.8763;0.0597
0000310507;5.7604;-16.0388;0.0215;-0.2411;-0.8555;0.0581
0000310515;5.6934;-16.1609;0.0311;-0.2344;-0.8372;0.0577
0000310523;5.5905;-16.1944;0.0838;-0.2150;-0.8295;0.0474
0000310535;5.5569;-16.2255;0.1293;-0.2009;-0.7981;0.0514
0000310543;5.2457;-16.3380;0.1437;-0.1747;-0.7990;0.0345
0000310554;5.1404;-16.4577;0.1628;-0.1543;-0.7970;0.0140
0000310562;5.2481;-16.5200;0.1652;-0.1234;-0.8034;-0.0091
0000310574;5.1236;-16.3739;0.2011;-0.0962;-0.8307;-0.0418
0000310582;4.7238;-16.4625;0.2418;-0.0762;-0.8607;-0.0667
0000310593;4.6783;-16.1273;0.2131;-0.0750;-0.8904;-0.0805
0000310601;4.8961;-15.8712;0.1006;-0.0775;-0.9261;-0.0931
0000310613;4.8100;-15.7084;-0.0144;-0.1058;-0.9649;-0.0851
0000310621;4.8626;-15.7419;-0.0144;-0.1298;-0.9860;-0.0765
0000310632;5.1571;-15.7826;0.0622;-0.1656;-1.0074;-0.0525
0000310640;5.1332;-16.0483;0.0838;-0.1820;-1.0251;-0.0434
0000310648;5.4348;-16.0316;0.2179;-0.1845;-1.0351;-0.0265
0000310660;5.3319;-16.4530;0.2298;-0.1799;-1.0375;-0.0041
0000310668;5.3750;-16.5846;0.3017;-0.1716;-1.0337;0.0128
0000310736;5.4803;-16.1656;0.1987;-0.0903;-0.9642;0.1081
0000310744;5.3678;-16.2016;0.2514;-0.0942;-0.9514;0.1227
0000310756;5.3223;-16.0340;0.1293;-0.0949;-0.9409;0.1271
0000310764;5.3343;-15.9526;0.1317;-0.1025;-0.9375;0.1347
0000310775;5.3271;-16.0005;0.0694;-0.0978;-0.9359;0.1378
0000310783;5.4755;-15.9190;0.0144;-0.0959;-0.9289;0.1375
0000310795;4.9775;-16.4146;0.0048;-0.0775;-0.9425;0.1294
0000310803;5.3032;-16.3285;-0.0359;-0.0624;-0.9385;0.1243
0000310811;5.1140;-16.4194;0.0335;-0.0518;-0.9264;0.1244
0000310822;5.1595;-16.3117;-0.0838;-0.0270;-0.9209;0.1047
0000310830;5.3534;-16.2231;-0.1556;-0.0163;-0.8953;0.1061
0000310842;5.4803;-16.1992;-0.2777;0.0032;-0.8792;0.0829
0000310850;5.3271;-16.1202;-0.2849;0.0129;-0.8695;0.0694
0000310861;5.5689;-15.9382;-0.2897;0.0056;-0.8427;0.0636
0000310869;5.4516;-15.9478;-0.2849;-0.0040;-0.8191;0.0590
0000310881;5.5737;-15.9358;-0.2705;-0.0136;-0.7898;0.0422
0000310889;5.6407;-15.9741;-0.2514;-0.0127;-0.7726;0.0317
0000310900;5.7221;-16.0699;-0.2897;-0.0171;-0.7406;0.0272
0000310908;5.4779;-16.3811;-0.2298;-0.0041;-0.7222;0.0221
0000310920;5.8035;-16.3452;-0.2011;0.0069;-0.6664;0.0189
0000310928;5.6383;-16.6397;-0.0551;0.0344;-0.6279;0.0148
0000310936;5.8251;-16.7714;0.2682;0.0758;-0.5893;0.0104
0000311004;7.7141;-17.6524;1.1037;0.4109;0.1183;0.2840
0000311012;7.0916;-16.9749;0.9122;0.4518;0.2021;0.2667
0000311024;6.3446;-15.7203;0.7781;0.5031;0.2741;0.2009
0000311032;5.5138;-15.1481;0.6943;0.4983;0.2939;0.1643
0000311043;4.8123;-14.7435;0.5722;0.4253;0.2850;0.1212
0000311051;4.1515;-14.7914;0.7302;0.3752;0.2522;0.0981
0000311059;3.9193;-15.1481;1.0391;0.3515;0.1965;0.0755
0000311071;3.2944;-15.5120;1.4413;0.3437;0.0825;0.0426
0000311079;3.1053;-15.6796;1.7334;0.3292;-0.0107;0.0378
0000311090;3.1484;-16.0627;1.7980;0.2832;-0.1272;0.0606
0000311098;3.6081;-16.4601;1.7717;0.2514;-0.2065;0.0886
0000311110;4.4412;-16.8600;1.6065;0.2024;-0.3066;0.1264
0000311118;4.9919;-16.9605;1.5371;0.1769;-0.3445;0.1351
0000311129;5.6000;-16.9198;1.3479;0.1495;-0.3652;0.1372
0000311137;6.2058;-16.6996;1.2474;0.1282;-0.3507;0.1240
0000311145;6.4045;-16.4673;1.1444;0.1180;-0.3199;0.0974
0000311157;6.7038;-16.0220;1.1732;0.1198;-0.2269;0.0392
0000311165;6.6487;-15.7826;1.1085;0.1279;-0.1629;-0.0031
0000311177;6.6367;-15.3516;1.0415;0.1427;-0.0577;-0.0729
0000311185;6.4500;-15.3325;1.1061;0.1511;0.0123;-0.1196
0000311197;6.1866;-15.2056;1.2019;0.1600;0.1162;-0.1729
0000311205;6.0621;-15.2702;1.2115;0.1685;0.1852;-0.1976
0000311272;4.8459;-15.1385;1.4174;0.0337;0.3170;-0.2625
0000311280;4.7932;-15.2678;1.4676;0.0073;0.2801;-0.2499
0000311292;4.8698;-15.4618;1.3862;-0.0357;0.2204;-0.2041
0000311300;4.7788;-15.5240;1.5467;-0.0707;0.1789;-0.1684
0000311308;4.7692;-15.7084;1.5083;-0.0902;0.1358;-0.1215
0000311320;4.7716;-16.0747;1.5634;-0.1176;0.0766;-0.0568
0000311328;4.9464;-16.2183;1.5610;-0.1302;0.0434;-0.0293
0000311340;4.8411;-16.2494;1.5562;-0.1274;-0.0148;-0.0064
0000311348;4.9177;-16.2064;1.7142;-0.1099;-0.0462;0.0001
0000311360;4.8052;-16.1656;1.8555;-0.0869;-0.0853;-0.0085
0000311368;4.7549;-16.1034;1.8004;-0.0620;-0.1166;-0.0081
0000311380;4.7740;-15.9430;1.9441;-0.0449;-0.1459;-0.0208
0000311388;4.6017;-15.9382;2.0327;-0.0301;-0.1772;-0.0342
0000311400;4.8914;-15.7634;2.1644;-0.0229;-0.2093;-0.0480
0000311408;4.9249;-15.8376;2.2601;-0.0121;-0.2378;-0.0544
0000311416;5.1643;-15.6724;2.3750;-0.0073;-0.2658;-0.0622
0000311428;5.2289;-15.8807;2.5666;0.0175;-0.3070;-0.0709
0000311436;5.3870;-15.9286;2.8347;0.0472;-0.3339;-0.0775
0000311448;5.5617;-16.0340;2.8443;0.1003;-0.3861;-0.0713
0000311456;5.8466;-15.9717;2.9425;0.1388;-0.4117;-0.0618
0000311468;5.8490;-15.8760;2.8228;0.1827;-0.4530;-0.0425
0000311476;5.7724;-15.9286;2.7749;0.1976;-0.4858;-0.0325
0000311544;6.0310;-16.2494;2.0207;-0.0313;-0.6467;-0.0773
0000311552;6.2896;-16.3668;1.9776;-0.0266;-0.6522;-0.1019
0000311564;6.5003;-16.6110;1.8890;-0.0173;-0.6432;-0.1511
0000311572;6.6535;-16.6948;1.8316;0.0059;-0.6226;-0.1719
0000311580;6.7804;-16.8743;1.7980;0.0215;-0.5973;-0.2060
0000311592;6.9528;-16.6660;1.8220;0.0612;-0.5574;-0.2529
0000311600;6.7109;-16.5583;1.8627;0.0979;-0.5393;-0.2828
0000311612;6.4141;-16.2949;1.6759;0.1415;-0.5048;-0.2955
0000311620;6.3375;-15.9190;1.8699;0.1476;-0.4827;-0.2991
0000311632;6.1794;-15.5384;1.8148;0.1596;-0.4891;-0.2926
0000311640;5.9640;-15.3229;1.8004;0.1468;-0.4915;-0.2852
0000311652;5.8921;-15.1218;1.7573;0.1163;-0.5060;-0.2649
0000311660;5.7748;-15.0859;1.6640;0.0903;-0.5283;-0.2499
0000311672;5.5881;-15.0332;1.6185;0.0436;-0.5684;-0.2085
0000311680;5.6312;-15.0547;1.5562;0.0133;-0.5858;-0.1781
0000311688;5.6407;-15.2080;1.5467;-0.0155;-0.6101;-0.1468
0000311699;5.6527;-15.4474;1.5179;-0.0546;-0.6590;-0.1172
0000311707;5.8610;-15.6581;1.5730;-0.0817;-0.6724;-0.0949
0000311719;6.2704;-15.9190;1.5179;-0.1094;-0.6884;-0.0790
0000311727;6.4452;-16.0412;1.4341;-0.1238;-0.6884;-0.0786
0000311795;7.3119;-16.4625;1.2977;0.0208;-0.3419;-0.2121
0000311803;7.2760;-16.4314;1.2665;0.0508;-0.2806;-0.2357
0000311815;7.5346;-16.1178;1.1995;0.0941;-0.1885;-0.2782
0000311823;7.6351;-15.8879;1.1588;0.1007;-0.1220;-0.2927
0000311835;7.3741;-15.8664;1.0774;0.0938;-0.0256;-0.3050
0000311843;7.4077;-15.8760;1.1061;0.0921;0.0252;-0.3098
0000311851;7.5034;-15.8664;1.1468;0.0837;0.0839;-0.3028
0000311863;7.6399;-15.7993;0.9984;0.0718;0.1601;-0.2887
0000311871;7.4747;-15.8592;1.0989;0.0601;0.1994;-0.2803
0000311883;7.5346;-15.9454;0.9864;0.0440;0.2657;-0.2535
0000311891;7.3191;-15.9669;1.0032;0.0369;0.3034;-0.2322
0000311903;7.4268;-15.9143;0.7853;0.0253;0.3665;-0.2012
0000311911;7.2832;-15.9143;0.8404;0.0184;0.4018;-0.1812
0000311923;7.4268;-15.8400;0.7614;0.0109;0.4696;-0.1498
0000311931;7.4891;-15.7658;0.8164;0.0160;0.5160;-0.1410
0000311939;7.6471;-15.8329;0.7566;0.0316;0.5560;-0.1158
0000311951;7.5896;-15.8879;0.6847;0.0573;0.6274;-0.0959
0000311959;7.5776;-16.0364;0.8499;0.0801;0.6880;-0.0715
0000311971;7.6423;-15.9143;0.8571;0.1387;0.7608;-0.0472
0000311979;7.7644;-15.9119;0.8619;0.1779;0.8106;-0.0282
0000311991;7.6543;-15.8448;0.9433;0.2014;0.8723;0.0011
0000311999;7.5130;-15.7945;0.9361;0.1978;0.9090;0.0204
0000312067;6.9552;-16.9007;1.5275;0.2120;0.9823;-0.0931
0000312075;6.7397;-16.9414;1.7406;0.2324;0.9613;-0.1142
0000312083;6.7253;-16.9893;1.8028;0.2369;0.9365;-0.1303
0000312095;6.4021;-17.2526;2.0183;0.2435;0.8691;-0.1545
0000312103;6.1699;-17.3149;2.2075;0.2441;0.8127;-0.1603
0000312115;5.9352;-17.4202;2.4373;0.2277;0.7123;-0.1773
0000312123;5.5881;-17.5447;2.4852;0.2250;0.6319;-0.1869
0000312135;5.2888;-17.4537;2.4828;0.2014;0.5116;-0.1799
0000312143;5.3079;-17.2957;2.5355;0.2014;0.4238;-0.1655
0000312155;5.3965;-17.2646;2.5905;0.2224;0.2839;-0.1660
0000312163;5.5881;-17.1209;2.5690;0.2352;0.1861;-0.1567
0000312171;5.4875;-17.4250;2.5355;0.2414;0.1066;-0.1423
0000312183;5.6144;-17.5591;2.2769;0.2830;-0.0274;-0.1207
0000312191;5.7892;-17.2502;2.0183;0.3016;-0.0899;-0.1050
0000312203;5.8179;-17.0635;1.3815;0.3075;-0.1543;-0.0939
0000312211;5.9831;-16.8743;1.0080;0.3239;-0.1753;-0.0903
0000312223;6.1938;-16.4625;0.7207;0.3317;-0.1621;-0.0983
0000312231;6.3494;-16.2518;0.6967;0.3380;-0.1411;-0.1268
0000312243;6.7445;-15.9286;0.5674;0.3541;-0.0981;-0.1932
0000312251;6.9863;-15.6748;0.8045;0.3738;-0.0642;-0.2394
0000312263;7.2377;-15.4833;0.8404;0.3813;-0.0248;-0.3135
0000312271;7.3813;-15.3588;1.0343;0.3687;0.0067;-0.3488
0000312279;7.2975;-15.3325;1.3024;0.3563;0.0220;-0.3697
0000312347;5.2265;-17.1736;4.0606;0.4025;-0.0731;0.1388
0000312355;5.4995;-16.9102;4.4173;0.4610;-0.0942;0.1839
0000312367;5.2912;-16.8959;4.9201;0.4952;-0.1106;0.2130
0000312375;5.6455;-16.3285;5.2265;0.4862;-0.1124;0.2016
0000312387;6.1675;-15.3684;5.4731;0.4238;-0.0898;0.1480
0000312395;6.5745;-14.8488;5.6168;0.3505;-0.0494;0.1098
0000312408;7.3143;-14.0396;5.7796;0.2434;0.0448;0.0573
0000312415;7.4316;-13.9247;5.8730;0.1881;0.1158;0.0164
0000312423;7.7117;-13.7571;5.7676;0.1379;0.2041;-0.0105
0000312435;7.8841;-13.5943;5.8012;0.0787;0.3417;-0.0296
0000312443;7.7213;-13.6086;5.5450;0.0536;0.4402;-0.0314
0000312455;6.8642;-13.8122;5.3678;0.0097;0.5720;-0.0017
0000312463;6.3590;-14.0683;5.1643;-0.0143;0.6344;0.0332
0000312475;5.4779;-14.5663;4.7645;-0.0384;0.6852;0.0903
0000312483;5.4061;-14.4155;4.5226;-0.0482;0.6881;0.1224
0000312495;4.8315;-14.7746;4.2306;-0.0538;0.6532;0.1575
0000312503;4.4508;-14.9829;4.0989;-0.0505;0.6194;0.1712
0000312511;4.0965;-15.2223;4.0007;-0.0636;0.5772;0.1948
0000312523;3.7924;-15.3923;3.8858;-0.0786;0.5002;0.2394
0000312531;3.8523;-15.0787;3.7852;-0.0957;0.4430;0.2685
0000312543;3.8954;-15.0116;3.7757;-0.1240;0.3757;0.3276
0000312551;4.0582;-15.0691;3.7613;-0.1476;0.3328;0.3589
0000312621;8.7364;-15.2774;3.5961;-0.1218;0.7440;0.2104
0000312629;8.7652;-15.3253;3.3782;-0.0954;0.8715;0.1420
0000312642;8.6407;-14.8800;3.1747;-0.0714;1.0532;0.0819
0000312651;8.0900;-14.5376;2.8706;-0.0721;1.1700;0.0540
0000312660;7.3119;-14.3054;2.6408;-0.1047;1.2696;0.0413
0000312673;6.1124;-14.0324;2.4708;-0.1743;1.3476;0.0340
0000312682;5.3750;-13.9821;2.3894;-0.2236;1.3539;0.0325
0000312695;4.1803;-14.3006;2.3056;-0.2810;1.3030;0.0141
0000312704;3.3734;-14.4777;2.4421;-0.2946;1.2123;0.0088
0000312717;2.5331;-14.7004;2.4014;-0.2942;1.0365;0.0189
0000312726;1.9225;-15.0619;2.3104;-0.2900;0.8937;0.0374
0000312739;1.7765;-15.1290;2.3463;-0.2767;0.6642;0.0592
0000312748;1.7502;-15.1026;2.2577;-0.2535;0.5040;0.0811
0000312757;1.8962;-15.2822;2.2601;-0.2390;0.3601;0.1019
0000312770;2.5259;-15.1218;2.1404;-0.2068;0.1733;0.1106
0000312779;2.9904;-14.9709;2.1069;-0.1969;0.0817;0.1202
0000312792;3.6895;-15.1146;2.1476;-0.1808;-0.0047;0.1006
0000312801;4.1204;-15.1553;1.9848;-0.1888;-0.0361;0.0959
0000312814;4.4963;-15.1960;1.7861;-0.2146;-0.0673;0.0730
0000312823;4.6017;-15.2798;1.6735;-0.2248;-0.0789;0.0637
0000312836;4.4796;-15.3157;1.3551;-0.2477;-0.0838;0.0630
0000312845;4.4939;-15.3109;1.3431;-0.2694;-0.0859;0.0593
0000312914;3.8379;-15.6270;0.5794;-0.3990;-0.1680;-0.1130
0000312923;3.7469;-15.4498;0.5459;-0.4179;-0.2053;-0.1364
0000312932;3.8259;-15.3588;0.6201;-0.4471;-0.2406;-0.1331
0000312945;3.7182;-15.2774;0.7039;-0.4834;-0.2817;-0.1272
0000312954;3.5937;-15.5168;0.8164;-0.4932;-0.3098;-0.1154
0000312967;3.3878;-15.6389;1.0511;-0.4731;-0.3665;-0.1034
0000312976;3.2657;-15.7778;1.2330;-0.4506;-0.4026;-0.1005
0000312989;3.6536;-15.6054;1.4246;-0.3918;-0.4411;-0.0947
0000312998;3.7757;-15.4785;1.3072;-0.3667;-0.4596;-0.0833
0000313011;4.3958;-15.3804;1.3024;-0.3593;-0.4600;-0.0721
0000313020;4.4819;-15.4953;1.4653;-0.3726;-0.4378;-0.0662
0000313033;4.9153;-15.4187;1.5562;-0.4132;-0.3928;-0.0617
0000313042;5.0278;-15.4522;1.5945;-0.4454;-0.3632;-0.0741
0000313055;5.2696;-15.1912;1.3910;-0.5107;-0.3042;-0.0805
0000313064;5.0781;-15.0883;1.0487;-0.5770;-0.2606;-0.0743
0000313073;4.6304;-15.0643;0.7949;-0.6403;-0.2415;-0.0789
0000313086;4.0151;-15.2942;0.3017;-0.7317;-0.2292;-0.0685
0000313095;3.7757;-15.3588;-0.1820;-0.7922;-0.2429;-0.0590
0000313111;2.7007;-16.4146;-0.9385;-0.8775;-0.3196;-0.0278
0000313120;2.2936;-17.0204;-1.2641;-0.8934;-0.3900;-0.0093
0000313188;3.0358;-19.6995;1.3144;0.1932;-0.7697;0.1475
0000313197;3.9433;-20.1328;1.8890;0.3728;-0.7128;0.1869
0000313209;5.4037;-20.4585;2.5786;0.5572;-0.5927;0.2643
0000313218;7.1347;-20.6524;3.1292;0.6230;-0.4445;0.3539
0000313231;9.5337;-20.6045;3.5506;0.6532;-0.1716;0.4570
0000313240;10.8050;-19.9389;3.5314;0.6201;0.0385;0.5164
0000313249;10.8553;-18.7945;2.9712;0.5732;0.2719;0.5498
0000313261;10.2041;-16.8073;2.7988;0.5260;0.5588;0.4978
0000313270;8.7388;-15.5839;2.8826;0.4910;0.7390;0.4275
0000313283;6.3925;-14.0707;2.9305;0.4397;0.9193;0.2900
0000313292;4.6711;-13.7786;2.9616;0.4167;0.9503;0.1904
0000313304;3.0311;-13.6517;3.2154;0.3764;0.8937;0.1030
0000313313;2.5450;-13.4530;3.6009;0.3861;0.7693;0.0297
0000313326;1.9561;-13.5919;3.9097;0.4041;0.4894;-0.0422
0000313335;2.0710;-13.3549;3.7900;0.4139;0.2755;-0.0751
0000313344;2.6959;-13.2735;3.6966;0.4261;0.0574;-0.0907
0000313356;4.0270;-13.0340;3.5841;0.4143;-0.1839;-0.0827
0000313365;4.9057;-13.2519;3.4620;0.4001;-0.2986;-0.0779
0000313378;6.1555;-13.8744;3.5626;0.3898;-0.3648;-0.0777
0000313387;7.0605;-14.3772;3.2872;0.3588;-0.3401;-0.0837
0000313399;8.2145;-15.5144;3.3399;0.3050;-0.2324;-0.1010
0000313408;8.9807;-16.3668;3.2729;0.2543;-0.1047;-0.1095
0000313477;5.0733;-16.6038;2.3942;-0.0468;0.9253;-0.4183
0000313486;4.3646;-16.0316;2.1165;-0.0422;0.9014;-0.4473
0000313495;3.6440;-15.4354;2.0111;-0.0413;0.8264;-0.4788
0000313507;2.6983;-14.9302;1.9489;-0.0329;0.6655;-0.5063
0000313516;2.3056;-14.8033;1.7765;-0.0336;0.5009;-0.5100
0000313529;2.1500;-14.5232;1.8244;-0.0586;0.2154;-0.4607
0000313538;1.8890;-14.7555;2.0470;-0.0703;0.0183;-0.3920
0000313550;2.7198;-15.0500;2.0446;-0.0853;-0.2252;-0.2569
0000313559;3.5051;-15.3301;1.9273;-0.0841;-0.3726;-0.1669
0000313572;4.4460;-15.7203;1.9752;-0.0821;-0.5205;-0.0814
0000313581;5.3127;-15.8472;1.9106;-0.0815;-0.5626;-0.0328
0000313593;5.9400;-16.0890;1.9489;-0.0878;-0.5656;-0.0079
0000313602;6.6631;-16.1728;1.8603;-0.0963;-0.5172;-0.0079
0000313611;7.0916;-16.2183;1.8603;-0.1050;-0.4489;-0.0332
0000313624;7.9128;-16.3261;1.7980;-0.1123;-0.2892;-0.0803
0000313633;8.1235;-16.3332;1.6137;-0.1248;-0.1522;-0.1203
0000313645;8.0732;-16.5224;1.6520;-0.1114;0.0365;-0.1741
0000313654;8.0349;-16.4386;1.6640;-0.0885;0.1785;-0.2040
0000313667;7.5561;-16.2231;1.7286;-0.0047;0.3492;-0.2382
0000313676;7.1730;-15.9813;1.6113;0.0462;0.4531;-0.2575
0000313688;6.4979;-15.8305;1.4964;0.0874;0.5470;-0.2859
0000313697;6.1387;-15.6222;1.4102;0.0803;0.5943;-0.3079
0000313766;6.4165;-14.7124;0.5986;-0.2871;0.7597;-0.3820
0000313775;6.9671;-14.7100;0.5411;-0.3203;0.7991;-0.3644
0000313784;7.0174;-15.0116;0.5195;-0.3441;0.8407;-0.3408
0000313796;7.1275;-15.3253;0.4908;-0.3637;0.8946;-0.2970
0000313805;6.8283;-15.5863;0.4717;-0.3673;0.9305;-0.2563
0000313818;6.6487;-15.9741;0.4142;-0.3537;0.9713;-0.1943
0000313827;6.1962;-16.2447;0.3974;-0.3349;0.9851;-0.1533
0000313839;5.6216;-16.7067;0.6488;-0.2649;0.9570;-0.1250
0000313848;5.1451;-17.1473;1.0965;-0.1881;0.9109;-0.0985
0000313861;4.6448;-17.7386;1.7142;-0.0465;0.7850;-0.0825
0000313870;4.0845;-18.1840;2.1691;0.0317;0.6710;-0.0782
0000313882;3.2681;-18.6700;2.5666;0.1178;0.4959;-0.0663
0000313891;2.8323;-18.7873;2.7198;0.1559;0.3456;-0.0731
0000313900;2.3104;-18.8472;2.6193;0.1839;0.1809;-0.0942
0000313913;2.1045;-18.7586;2.4612;0.2124;-0.0612;-0.1260
0000313922;2.5283;-18.2917;2.1284;0.2132;-0.2082;-0.1511
0000313934;3.5243;-17.2694;1.7382;0.1998;-0.3834;-0.1491
0000313943;4.3622;-17.0228;1.6735;0.2013;-0.4760;-0.1272
0000313956;5.7174;-16.3787;1.6161;0.2020;-0.5393;-0.0831
0000313965;6.4620;-16.3021;1.5778;0.1935;-0.5308;-0.0562
0000313977;7.0940;-16.3021;1.6185;0.2004;-0.4950;-0.0369
0000313986;7.6088;-16.1273;1.7837;0.2122;-0.4423;-0.0288
0000314055;5.4013;-14.7124;2.6959;0.3704;-0.0926;-0.1791
0000314064;4.9512;-14.8273;2.7078;0.3717;-0.0965;-0.1988
0000314073;5.1164;-14.5089;2.6336;0.3660;-0.1085;-0.2068
0000314085;4.8818;-14.6597;2.8180;0.3544;-0.1384;-0.2124
0000314094;4.7716;-14.7196;2.8323;0.3525;-0.1732;-0.2037
0000314107;4.9847;-14.9781;3.0215;0.3441;-0.2156;-0.1712
0000314116;5.3103;-14.9494;3.1364;0.3301;-0.2399;-0.1442
0000314128;5.4779;-15.1697;3.1699;0.3092;-0.2550;-0.1029
0000314137;5.7030;-15.1481;3.2010;0.3104;-0.2621;-0.0726
0000314150;5.8490;-15.1864;3.1556;0.2832;-0.2380;-0.0185
0000314159;6.0023;-15.1840;3.1819;0.2627;-0.2092;0.0157
0000314168;6.3303;-14.9015;3.2058;0.2497;-0.1825;0.0345
0000314180;6.1339;-15.2008;3.3016;0.2358;-0.1399;0.0596
0000314189;6.2177;-15.2559;3.2465;0.2338;-0.0955;0.0674
0000314202;6.2082;-15.4857;3.3639;0.2503;-0.0616;0.0528
0000314211;5.9903;-15.8448;3.3495;0.2817;-0.0393;0.0270
0000314223;6.0310;-15.8592;3.4524;0.3187;-0.0073;-0.0091
0000314232;6.1339;-15.6964;3.4812;0.3387;0.0191;-0.0384
0000314245;6.0956;-15.5240;3.4979;0.3769;0.0412;-0.0817
0000314254;5.8802;-15.4522;3.6320;0.3929;0.0604;-0.0982
0000314266;5.9735;-15.0763;3.6775;0.4126;0.0781;-0.1115
0000314275;5.8730;-14.9494;3.6823;0.4125;0.0825;-0.1073
0000314284;5.7317;-14.8081;3.7565;0.3912;0.0890;-0.0870
0000314353;3.9193;-15.5264;3.1987;0.1675;-0.2469;0.0954
0000314362;3.9002;-15.7754;3.2513;0.1596;-0.3192;0.1083
0000314374;4.2569;-15.9382;3.2346;0.1420;-0.4038;0.1351
0000314383;4.4125;-16.1249;3.2178;0.1252;-0.4594;0.1596
0000314396;4.9799;-16.2327;3.2106;0.0966;-0.5203;0.1873
0000314405;5.4755;-16.0268;3.2609;0.0813;-0.5428;0.2092
0000314417;5.8826;-15.9693;3.2825;0.0554;-0.5552;0.2376
0000314426;6.0669;-15.9310;3.3471;0.0441;-0.5580;0.2658
0000314435;6.2441;-15.7586;3.2561;0.0201;-0.5363;0.3067
0000314448;5.9831;-15.6461;3.1771;0.0044;-0.5243;0.3505
0000314457;5.8514;-15.5982;3.0574;-0.0025;-0.5099;0.3833
0000314469;5.5713;-15.3636;3.1173;0.0024;-0.5040;0.4129
0000314478;5.4085;-15.2654;2.8898;0.0075;-0.5176;0.4289
0000314491;5.2313;-15.0093;2.9880;-0.0049;-0.5364;0.4450
0000314500;4.9225;-15.1146;3.0047;-0.0117;-0.5696;0.4471
0000314512;4.6064;-15.1361;2.9185;-0.0358;-0.6113;0.4531
0000314521;4.3527;-15.0212;2.9449;-0.0604;-0.6583;0.4525
0000314530;4.4101;-14.7962;2.9449;-0.0825;-0.7083;0.4451
0000314543;4.1492;-14.7698;2.8874;-0.1131;-0.7911;0.4350
0000314552;4.0630;-14.9398;2.9305;-0.1262;-0.8548;0.4195
0000314565;4.1396;-15.0045;3.0143;-0.1520;-0.9236;0.3970
0000314574;4.4436;-15.2152;3.0263;-0.1532;-0.9649;0.3706
0000314644;6.6918;-16.2542;3.2010;0.0266;-0.8768;0.1951
0000314653;6.7277;-16.4051;3.2322;0.0588;-0.8090;0.1853
0000314666;6.9528;-16.2064;3.2561;0.1010;-0.7113;0.1620
0000314675;6.8929;-16.1656;3.4500;0.1346;-0.6464;0.1488
0000314684;6.9168;-16.0052;3.3016;0.1406;-0.5733;0.1450
0000314696;6.7229;-15.7155;3.3016;0.1506;-0.4927;0.1379
0000314705;6.6272;-15.7251;3.2513;0.1563;-0.4279;0.1458
0000314718;6.5074;-15.5408;3.4189;0.1612;-0.3480;0.1382
0000314727;6.3518;-15.7467;3.4596;0.1727;-0.2986;0.1358
0000314739;6.1100;-15.7945;3.5027;0.1840;-0.2538;0.1198
0000314748;6.1555;-15.5599;3.5195;0.1877;-0.2292;0.1136
0000314761;6.0142;-15.5240;3.5458;0.1852;-0.1903;0.1120
0000314770;5.7126;-15.6341;3.4500;0.1735;-0.1887;0.1152
0000314782;5.5881;-15.4833;3.5362;0.1496;-0.1741;0.1228
0000314791;5.6168;-15.4498;3.5961;0.1395;-0.1599;0.1287
0000314800;5.6623;-15.5025;3.5506;0.1255;-0.1455;0.1414
0000314813;5.7772;-15.3444;3.4955;0.1238;-0.1219;0.1408
0000314822;5.7820;-15.3420;3.5386;0.1254;-0.0997;0.1367
0000314834;6.0286;-15.3349;3.4548;0.1210;-0.0653;0.1315
0000314843;6.0741;-15.1409;3.5171;0.1216;-0.0425;0.1227
0000314912;5.5569;-15.1218;3.6009;0.1272;0.1475;0.0249
0000314921;5.6527;-15.2271;3.6344;0.1375;0.1577;-0.0048
0000314933;5.6527;-15.2774;3.7158;0.1308;0.1765;-0.0330
0000314942;5.7341;-15.2726;3.7302;0.1156;0.1899;-0.0436
0000314951;5.6982;-15.3516;3.7278;0.1030;0.1988;-0.0596
0000314964;5.5976;-15.2822;3.8331;0.0726;0.2133;-0.0686
0000314973;5.7293;-15.0954;3.7661;0.0520;0.2289;-0.0645
0000314985;5.7437;-15.1050;3.7948;0.0340;0.2373;-0.0636
0000314994;5.7700;-15.1050;3.7852;0.0172;0.2533;-0.0596
0000315007;5.5522;-15.1385;3.7421;0.0017;0.2618;-0.0602
0000315016;5.4516;-15.2319;3.7230;-0.0036;0.2618;-0.0661
0000315028;5.4372;-15.1553;3.7230;-0.0159;0.2607;-0.0657
0000315037;5.3870;-15.1242;3.6536;-0.0238;0.2538;-0.0657
0000315046;5.1499;-15.3971;3.5698;-0.0274;0.2337;-0.0667
0000315059;4.9656;-15.4163;3.6655;-0.0326;0.2129;-0.0589
0000315068;4.9967;-15.3636;3.7158;-0.0240;0.1843;-0.0584
0000315080;4.7429;-15.6389;3.8451;-0.0063;0.1527;-0.0457
0000315089;4.9177;-15.4474;3.8188;0.0064;0.1243;-0.0316
0000315102;4.8147;-15.4570;3.8259;0.0240;0.0795;-0.0260
0000315111;4.8674;-15.4282;3.9145;0.0215;0.0494;-0.0184
0000315123;5.0254;-15.1457;3.8235;0.0151;0.0139;-0.0061
0000315132;4.8937;-15.1697;3.8331;0.0133;-0.0173;0.0028
0000315141;5.1930;-14.9111;3.8211;-0.0009;-0.0316;0.0159
0000315210;5.5665;-15.5432;3.6224;-0.0226;0.0370;0.0145
0000315219;5.6000;-15.4043;3.6105;-0.0164;0.0529;0.0049
0000315231;5.4516;-15.5120;3.5889;-0.0099;0.0759;-0.0079
0000315240;5.5522;-15.4522;3.4740;-0.0081;0.0970;-0.0171
0000315253;5.3678;-15.3013;3.4836;-0.0020;0.1176;-0.0274
0000315262;5.2601;-15.4115;3.4046;-0.0036;0.1347;-0.0329
0000315274;5.0949;-15.5982;3.4261;-0.0003;0.1443;-0.0448
0000315283;5.4133;-15.2702;3.3758;-0.0012;0.1529;-0.0524
0000315296;5.4851;-15.2966;3.3279;-0.0016;0.1668;-0.0662
0000315305;5.3774;-15.3684;3.3495;-0.0037;0.1723;-0.0661
0000315314;5.2241;-15.5934;3.3615;-0.0041;0.1717;-0.0751
0000315326;5.3151;-15.4737;3.3016;-0.0101;0.1748;-0.0770
0000315335;5.2170;-15.5096;3.4764;-0.0087;0.1749;-0.0807
0000315348;5.1332;-15.3420;3.4596;-0.0183;0.1753;-0.0769
0000315357;5.1212;-15.4234;3.4309;-0.0237;0.1740;-0.0767
0000315369;4.9344;-15.4426;3.5458;-0.0246;0.1671;-0.0807
0000315378;5.0853;-15.3516;3.4405;-0.0188;0.1601;-0.0879
0000315391;5.2768;-15.3756;3.4357;-0.0217;0.1549;-0.0874
0000315400;4.9177;-15.5312;3.4931;-0.0215;0.1520;-0.0905
0000315412;4.9249;-15.4809;3.4836;-0.0246;0.1491;-0.0946
0000315421;5.1547;-15.3708;3.4285;-0.0169;0.1428;-0.1019
0000315430;5.0949;-15.4402;3.4213;-0.0234;0.1552;-0.0935
0000315499;5.2385;-15.4043;3.3878;-0.0097;0.2133;-0.0814
0000315508;5.0422;-15.4761;3.3327;-0.0145;0.2240;-0.0786
0000315520;5.0829;-15.3804;3.3375;-0.0144;0.2268;-0.0659
0000315529;4.9464;-15.3971;3.2633;-0.0147;0.2329;-0.0598
0000315542;5.0422;-15.3181;3.2944;-0.0215;0.2293;-0.0458
0000315551;4.9249;-15.3684;3.2250;-0.0349;0.2280;-0.0414
0000315563;5.0589;-15.2702;3.3088;-0.0397;0.2228;-0.0316
0000315572;4.8674;-15.5001;3.3040;-0.0436;0.2194;-0.0218
0000315581;4.8004;-15.5360;3.2944;-0.0438;0.2144;-0.0165
0000315594;4.8530;-15.6844;3.3423;-0.0325;0.1974;-0.0249
0000315603;4.8770;-15.6246;3.3327;-0.0261;0.1965;-0.0277
0000315615;4.9105;-15.6246;3.3040;-0.0137;0.1860;-0.0187
0000315624;4.7453;-15.6581;3.3064;-0.0007;0.1772;-0.0220
0000315637;4.9752;-15.4689;3.2777;0.0077;0.1763;-0.0233
0000315646;5.0901;-15.4474;3.2298;0.0032;0.1803;-0.0156
0000315658;4.9416;-15.5910;3.2058;0.0084;0.1828;-0.0238
0000315667;5.1882;-15.5096;3.2441;0.0192;0.1813;-0.0320
0000315680;4.9632;-15.6054;3.2825;0.0297;0.1859;-0.0388
0000315689;4.8985;-15.6389;3.3208;0.0328;0.1891;-0.0438
0000315698;4.9009;-15.5719;3.3519;0.0398;0.1853;-0.0422
0000315710;4.7716;-15.5910;3.2825;0.0472;0.1755;-0.0486
0000315719;4.9033;-15.3923;3.3160;0.0529;0.1732;-0.0518
0000315788;5.2074;-15.2654;3.4788;0.0923;0.1823;-0.0829
0000315797;5.0039;-15.4522;3.4381;0.0910;0.1897;-0.0921
0000315809;5.2505;-15.2798;3.4572;0.0851;0.2065;-0.0934
0000315818;5.1092;-15.2104;3.3998;0.0863;0.2121;-0.1011
0000315831;5.1643;-15.3397;3.5745;0.0709;0.2382;-0.0931
0000315840;5.2648;-15.2798;3.5195;0.0791;0.2442;-0.1018
0000315849;4.9536;-15.5456;3.5482;0.0771;0.2626;-0.0973
0000315861;5.1092;-15.5527;3.4884;0.0798;0.2767;-0.0943
0000315870;5.1882;-15.4211;3.4955;0.0899;0.2858;-0.0942
0000315883;5.2864;-15.4067;3.5674;0.0985;0.3024;-0.0859
0000315892;5.0925;-15.4546;3.4453;0.1042;0.3131;-0.0842
0000315904;5.2625;-15.4522;3.5698;0.1027;0.3329;-0.0782
0000315913;5.1571;-15.4163;3.5386;0.0954;0.3464;-0.0747
0000315926;5.1523;-15.2630;3.4022;0.0947;0.3640;-0.0674
0000315935;5.1595;-15.3133;3.6272;0.0971;0.3758;-0.0604
0000315944;5.2146;-15.3420;3.6105;0.1017;0.3934;-0.0526
0000315956;5.0757;-15.5072;3.6919;0.1135;0.4037;-0.0522
0000315965;5.1715;-15.4594;3.6368;0.1124;0.4169;-0.0437
0000315978;5.2960;-15.1074;3.5889;0.0871;0.4331;-0.0441
0000315987;5.3056;-14.9398;3.6727;0.0570;0.4347;-0.0436
0000315999;5.2265;-14.8800;3.4596;-0.0073;0.4319;-0.0317
0000316008;5.1451;-14.7842;3.5793;-0.0388;0.4231;-0.0189
0000316078;4.4101;-15.2989;3.4884;0.0252;0.2693;0.0071
0000316087;4.3862;-15.3516;3.4453;0.0369;0.2485;-0.0017
0000316096;4.3718;-15.4378;3.6033;0.0404;0.2254;-0.0173
0000316109;4.7309;-15.1266;3.6033;0.0550;0.1951;-0.0396
0000316118;4.6495;-15.3492;3.6631;0.0604;0.1817;-0.0553
0000316130;4.9656;-15.0643;3.6751;0.0705;0.1573;-0.0771
0000316139;4.8578;-15.1984;3.7661;0.0726;0.1496;-0.0911
0000316152;5.0374;-15.1888;3.6488;0.0886;0.1424;-0.1107
0000316161;5.1858;-15.1361;3.5985;0.0903;0.1507;-0.1227
0000316173;5.2026;-15.0859;3.6152;0.0978;0.1697;-0.1346
0000316182;5.2529;-15.1984;3.5889;0.1002;0.1966;-0.1350
0000316191;5.2050;-15.1002;3.7086;0.1172;0.2230;-0.1471
0000316204;5.2816;-15.1697;3.6631;0.1140;0.2855;-0.1514
0000316213;5.1978;-15.1601;3.8020;0.1214;0.3224;-0.1671
0000316225;5.3774;-14.9733;3.7589;0.1063;0.3861;-0.1816
0000316234;5.1787;-14.9877;3.7804;0.0885;0.4395;-0.1872
0000316247;5.4061;-14.8393;3.7038;0.0498;0.5097;-0.2094
0000316256;5.3415;-14.7507;3.7493;0.0222;0.5501;-0.2273
0000316268;5.2529;-14.9087;3.7038;-0.0108;0.5994;-0.2455
0000316277;5.3463;-14.8967;3.6248;-0.0316;0.6307;-0.2617
0000316286;5.1068;-15.0715;3.6057;-0.0448;0.6587;-0.2726
0000316299;5.1499;-15.2056;3.5267;-0.0629;0.6957;-0.2758
0000316308;4.8961;-15.3851;3.4955;-0.0602;0.7048;-0.2916
0000316377;4.7621;-15.6868;3.2058;0.0926;0.7743;-0.3520
0000316386;4.9249;-15.5886;3.1196;0.1074;0.7853;-0.3696
0000316399;5.1954;-15.4163;3.0191;0.1116;0.8168;-0.3934
0000316408;5.1308;-15.4330;3.0047;0.1172;0.8384;-0.4237
0000316420;5.2529;-15.4258;3.0813;0.1152;0.8740;-0.4489
0000316429;5.1643;-15.3373;3.1005;0.1199;0.9013;-0.4683
0000316442;5.2098;-15.4282;3.2058;0.1346;0.9362;-0.4926
0000316451;5.3463;-15.3636;3.2322;0.1279;0.9721;-0.4998
0000316460;5.1643;-15.5192;3.2968;0.1311;0.9954;-0.5111
0000316472;5.3463;-15.3851;3.2465;0.1292;1.0275;-0.5243
0000316481;5.2074;-15.3923;3.2633;0.1250;1.0471;-0.5216
0000316494;5.1356;-15.4115;3.1627;0.1146;1.0744;-0.5200
0000316503;5.0757;-15.3397;3.1675;0.1038;1.0844;-0.5195
0000316515;4.9249;-15.2654;3.0526;0.0855;1.0981;-0.5149
0000316524;4.6615;-15.4929;2.9975;0.0698;1.1110;-0.5016
0000316537;4.6926;-15.6078;2.9209;0.0733;1.1113;-0.5057
0000316546;4.7190;-15.4665;3.0167;0.0648;1.1207;-0.5002
0000316555;4.7309;-15.6317;3.0239;0.0749;1.1171;-0.5052
0000316567;4.8315;-15.4833;2.9185;0.0790;1.1101;-0.5113
0000316576;4.6352;-15.6102;3.0909;0.0737;1.1057;-0.5007
0000316589;4.7046;-15.5934;3.0143;0.0674;1.1099;-0.4903
0000316598;4.8794;-15.5120;3.0430;0.0493;1.1121;-0.4806
0000316668;4.5586;-15.6988;2.9018;0.0088;1.1377;-0.4575
0000316677;4.6136;-15.7275;2.8874;0.0230;1.1238;-0.4563
0000316690;4.4915;-15.7706;3.0119;0.0533;1.0872;-0.4470
0000316699;4.3359;-15.5886;3.0598;0.0630;1.0643;-0.4374
0000316708;4.2449;-15.5791;3.0765;0.0695;1.0344;-0.4319
0000316720;4.2473;-15.3564;3.1005;0.0655;0.9954;-0.4186
0000316729;4.1180;-15.3540;3.1747;0.0597;0.9646;-0.4036
0000316742;4.1587;-15.2822;3.0837;0.0433;0.9253;-0.3949
0000316751;4.3574;-15.2582;3.0909;0.0329;0.9076;-0.3894
0000316763;4.5586;-15.0140;3.0335;0.0222;0.8832;-0.3990
0000316772;4.6807;-15.1266;3.0933;0.0168;0.8727;-0.4090
0000316785;4.7309;-15.2128;2.9521;0.0081;0.8776;-0.4314
0000316794;4.9321;-15.2319;2.9353;0.0137;0.8793;-0.4565
0000316803;4.9488;-15.2152;2.8970;0.0061;0.9002;-0.4743
0000316815;5.0494;-15.3684;2.8539;-0.0035;0.9173;-0.5044
0000316824;5.2098;-15.2056;2.8180;-0.0081;0.9361;-0.5311
0000316837;5.2768;-15.1864;2.8515;-0.0300;0.9685;-0.5566
0000316846;5.0996;-15.3947;2.7438;-0.0405;1.0018;-0.5617
0000316858;4.8459;-15.5192;2.8635;-0.0404;1.0305;-0.5838
0000316867;4.6855;-15.5527;2.9401;-0.0285;1.0476;-0.6046
0000316880;4.6998;-15.5671;2.8778;-0.0029;1.0658;-0.6237
0000316889;4.5657;-15.7395;2.9999;0.0211;1.0643;-0.6360
0000316959;4.9632;-15.5695;3.0263;-0.0226;0.9260;-0.5337
0000316968;4.8004;-15.7922;3.0813;-0.0453;0.9181;-0.4926
0000316977;4.7860;-15.5767;3.0406;-0.0564;0.9004;-0.4703
0000316990;4.8914;-15.5120;2.8970;-0.0682;0.8849;-0.4262
0000316999;4.7477;-15.7012;2.8706;-0.0799;0.8760;-0.4042
0000317011;4.7477;-15.8185;2.6695;-0.0815;0.8524;-0.3886
0000317020;4.6112;-15.8185;2.6312;-0.0789;0.8399;-0.3805
0000317033;4.7836;-15.7562;2.4660;-0.0842;0.8184;-0.3693
0000317042;4.8507;-15.5886;2.3990;-0.0901;0.8063;-0.3549
0000317054;4.9895;-15.5575;2.3918;-0.0903;0.7959;-0.3545
0000317063;5.0733;-15.6557;2.2505;-0.0859;0.7901;-0.3603
0000317072;5.0781;-15.7682;2.4253;-0.0805;0.7858;-0.3576
0000317085;5.2194;-15.8305;2.4229;-0.0649;0.7949;-0.3563
0000317094;5.3486;-15.8855;2.5043;-0.0536;0.8084;-0.3648
0000317106;5.5976;-15.9693;2.5546;-0.0309;0.8323;-0.3673
0000317115;5.4827;-15.9645;2.5235;-0.0179;0.8568;-0.3688
0000317128;5.8826;-15.7012;2.4373;-0.0120;0.8934;-0.3781
0000317137;5.8131;-15.8616;2.4445;-0.0141;0.9196;-0.3716
0000317149;5.7509;-15.9693;2.3750;-0.0260;0.9637;-0.3672
0000317158;5.8682;-15.9023;2.3774;-0.0357;0.9975;-0.3608
0000317171;5.6575;-16.2447;2.3583;-0.0536;1.0544;-0.3516
0000317180;5.7174;-16.0866;2.2146;-0.0564;1.0898;-0.3563
0000317189;5.8155;-15.9238;2.0806;-0.0548;1.1246;-0.3665
0000317259;5.5450;-15.7275;1.5060;-0.0436;1.2577;-0.4362
0000317268;5.2553;-16.1178;1.4581;-0.0344;1.2502;-0.4389
0000317281;5.5665;-16.0196;1.4557;-0.0460;1.2532;-0.4287
0000317290;5.1906;-16.3955;1.5107;-0.0341;1.2465;-0.4442
0000317302;5.5522;-16.2255;1.5131;-0.0286;1.2502;-0.4542
0000317311;5.5545;-16.1417;1.4892;-0.0067;1.2454;-0.4746
0000317324;5.7221;-16.2710;1.5371;0.0155;1.2518;-0.4907
0000317333;5.6934;-16.2375;1.5060;0.0240;1.2638;-0.4895
0000317345;5.8203;-16.2854;1.5155;0.0353;1.2802;-0.4960
0000317354;5.8586;-16.1968;1.6185;0.0429;1.2945;-0.5031
0000317363;6.0980;-16.1585;1.5682;0.0376;1.3125;-0.5075
0000317376;6.1004;-16.2710;1.6568;0.0402;1.3356;-0.5037
0000317385;6.0837;-16.1561;1.5538;0.0378;1.3383;-0.5139
0000317397;5.9065;-16.1082;1.8172;0.0469;1.3404;-0.5199
0000317406;5.6790;-16.3021;1.8483;0.0494;1.3350;-0.5277
0000317419;5.6551;-16.2566;1.9130;0.0733;1.3126;-0.5405
0000317428;5.5162;-16.2159;1.9082;0.0785;1.2963;-0.5525
0000317440;5.2050;-16.2518;1.9585;0.0826;1.2581;-0.5438
0000317449;5.4803;-16.1202;2.0279;0.0881;1.2172;-0.5473
0000317458;5.4827;-15.9574;1.9585;0.0774;1.1854;-0.5380
0000317471;5.7126;-15.8352;1.9656;0.0691;1.1202;-0.5466
0000317480;5.7078;-15.8137;1.9752;0.0574;1.0805;-0.5364
0000317550;6.8187;-15.7778;1.8890;0.0039;0.8926;-0.4303
0000317559;6.6439;-16.0076;1.7693;0.0047;0.8884;-0.3965
0000317573;6.5122;-16.2590;1.7645;0.0032;0.8848;-0.3471
0000317582;6.7253;-16.0052;1.7909;0.0024;0.8799;-0.3159
0000317595;6.5601;-16.2854;1.7549;0.0120;0.8660;-0.2855
0000317604;6.3829;-16.2614;1.7621;0.0264;0.8525;-0.2726
0000317613;6.2728;-16.4506;1.6448;0.0406;0.8403;-0.2497
0000317625;6.2632;-16.5463;1.8340;0.0670;0.8215;-0.2362
0000317634;6.2010;-16.5272;1.6735;0.0962;0.8110;-0.2293
0000317647;6.3015;-16.3620;1.6400;0.1224;0.8058;-0.2126
0000317656;6.6032;-16.4123;1.6975;0.1419;0.7997;-0.2212
0000317668;6.4715;-16.5008;1.8507;0.1556;0.8120;-0.2222
0000317677;6.5338;-16.3332;1.8148;0.1522;0.8243;-0.2289
0000317690;6.5290;-16.1537;1.9872;0.1536;0.8521;-0.2423
0000317699;6.5146;-16.0100;2.0231;0.1581;0.8729;-0.2595
0000317708;6.5362;-15.8257;1.9513;0.1504;0.9020;-0.2633
0000317720;6.5290;-15.7131;2.0016;0.1444;0.9296;-0.2779
0000317729;6.6176;-15.6198;1.8962;0.1382;0.9543;-0.2815
0000317742;6.3542;-15.6317;1.8914;0.1155;0.9788;-0.2827
0000317751;6.3087;-15.6461;1.8914;0.1184;0.9886;-0.2830
0000317763;6.0047;-15.6700;1.9992;0.1091;0.9958;-0.2817
0000317772;6.0094;-15.5791;1.9632;0.1026;0.9922;-0.2757
0000317841;5.5617;-16.0675;1.8387;0.1394;0.9288;-0.2510
0000317850;5.7772;-16.0627;1.9369;0.1627;0.9318;-0.2461
0000317859;6.0430;-15.9885;1.9513;0.1837;0.9317;-0.2470
0000317871;6.1220;-15.9310;1.9393;0.1949;0.9454;-0.2376
0000317880;6.0621;-16.0627;1.9824;0.1941;0.9539;-0.2300
0000317893;5.9927;-16.0507;1.9752;0.1860;0.9654;-0.2298
0000317902;6.0310;-16.0148;1.9680;0.1643;0.9773;-0.2205
0000317914;5.9759;-16.0268;2.0351;0.1466;0.9815;-0.2241
0000317923;5.8634;-16.0723;1.9441;0.1232;0.9894;-0.2137
0000317936;5.7772;-16.1321;2.0135;0.1178;0.9915;-0.2346
0000317945;5.6814;-16.2351;1.8890;0.1078;1.0004;-0.2463
0000317954;5.6360;-16.2782;2.0782;0.1115;1.0040;-0.2715
0000317966;5.6814;-16.2087;2.0087;0.1070;1.0110;-0.3059
0000317975;5.4588;-16.2183;2.0901;0.1131;1.0088;-0.3287
0000317988;5.6360;-16.0220;2.1332;0.1151;1.0126;-0.3584
0000317997;5.5809;-15.9382;1.9489;0.1219;1.0060;-0.3749
0000318009;5.7820;-15.8592;2.0399;0.1166;1.0072;-0.3944
0000318018;5.9089;-15.7203;2.0231;0.1053;1.0020;-0.4032
0000318031;6.0717;-15.4953;2.0446;0.0754;1.0078;-0.4002
0000318040;5.8371;-15.5647;2.0111;0.0508;1.0190;-0.3913
0000318049;5.7174;-15.5910;1.9441;0.0358;1.0167;-0.3976
0000318061;5.7772;-15.4809;1.7526;-0.0067;1.0231;-0.3946
0000318070;5.8155;-15.5647;1.7406;-0.0353;1.0355;-0.3797
0000318138;6.0885;-16.1082;1.5562;-0.0517;1.0910;-0.3256
0000318147;5.7844;-16.1848;1.4940;-0.0179;1.0901;-0.3223
0000318159;5.8921;-16.0388;1.5514;0.0252;1.0905;-0.3140
0000318168;5.9927;-15.9143;1.6328;0.0610;1.0833;-0.3277
0000318181;5.9496;-15.8568;1.5083;0.0929;1.0881;-0.3400
0000318190;5.9831;-15.7131;1.5826;0.0994;1.0926;-0.3497
0000318202;6.0358;-15.5575;1.5036;0.0859;1.1121;-0.3619
0000318211;5.9496;-15.4522;1.5131;0.0616;1.1329;-0.3564
0000318220;6.0765;-15.6174;1.4724;0.0506;1.1506;-0.3580
0000318233;5.9544;-15.7922;1.3312;0.0304;1.1696;-0.3623
0000318242;5.9711;-15.9406;1.3024;0.0328;1.1859;-0.3517
0000318254;6.0645;-16.0364;1.1349;0.0469;1.2076;-0.3455
0000318263;5.8873;-16.4793;1.1109;0.0681;1.2284;-0.3372
0000318276;6.1148;-16.7403;1.1444;0.0946;1.2638;-0.3273
0000318285;6.2177;-16.8480;1.1899;0.1070;1.2990;-0.3192
0000318297;6.4404;-16.6517;1.0774;0.1247;1.3443;-0.3114
0000318306;6.2010;-16.5846;1.1157;0.1480;1.3773;-0.3238
0000318315;6.1723;-16.4338;0.9840;0.1576;1.4087;-0.3148
0000318328;5.9209;-16.1992;1.0798;0.1655;1.4488;-0.3277
0000318337;5.7748;-16.1561;1.0942;0.1796;1.4687;-0.3468
0000318349;5.5282;-16.0986;1.1085;0.1792;1.4787;-0.3624
0000318358;5.5952;-15.9621;1.1325;0.1860;1.4769;-0.3834
0000318427;4.3287;-16.7546;1.9872;0.1220;0.9694;-0.4643
0000318436;4.3862;-16.6565;1.8962;0.1132;0.8577;-0.4565
0000318448;4.6902;-16.7905;1.9992;0.1088;0.7486;-0.4210
0000318457;5.2840;-16.5224;2.1117;0.1384;0.6820;-0.3845
0000318466;5.6216;-16.4793;2.2003;0.1677;0.6311;-0.3508
0000318479;5.9759;-16.3045;2.1763;0.2138;0.5921;-0.2952
0000318488;6.3039;-15.9861;2.1500;0.2306;0.5842;-0.2723
0000318500;6.1938;-15.7682;2.0279;0.2334;0.5929;-0.2421
0000318509;6.0142;-15.6222;2.1189;0.2132;0.5965;-0.2164
0000318522;5.8155;-15.4282;2.2434;0.1697;0.6013;-0.1908
0000318531;5.8897;-15.5216;2.2577;0.1382;0.5971;-0.1895
0000318543;5.5043;-15.5384;2.3559;0.1106;0.5729;-0.2146
0000318552;5.2720;-15.6581;2.3966;0.1021;0.5597;-0.2370
0000318561;5.0757;-15.7443;2.4086;0.1174;0.5252;-0.2779
0000318574;4.6735;-15.7922;2.7102;0.1685;0.4755;-0.3038
0000318583;4.5969;-15.6533;2.9521;0.2130;0.4479;-0.3042
0000318595;4.5083;-15.8472;3.3184;0.2810;0.3900;-0.2948
0000318604;4.7238;-15.8592;3.4333;0.3155;0.3585;-0.2786
0000318617;5.1332;-15.8831;3.6655;0.3544;0.2999;-0.2691
0000318626;5.2170;-15.8400;3.7350;0.3595;0.2762;-0.2542
0000318638;5.7389;-15.5096;3.8427;0.3551;0.2646;-0.2497
0000318647;6.0525;-15.4234;3.8714;0.3444;0.2710;-0.2337
0000318656;6.2560;-15.4474;4.0438;0.3368;0.2891;-0.2226
0000318725;6.4979;-14.5065;4.1492;0.2260;0.7518;-0.1719
0000318734;6.3279;-14.6477;4.0654;0.2141;0.7815;-0.2002
0000318746;5.8873;-14.7507;4.1611;0.1867;0.8037;-0.2216
0000318755;5.4636;-14.9614;4.1515;0.1769;0.7974;-0.2308
0000318768;4.9680;-15.1409;4.0007;0.1655;0.7699;-0.2309
0000318777;4.8794;-15.1912;3.9720;0.1621;0.7489;-0.2092
0000318789;4.8554;-15.3636;3.9361;0.1749;0.7069;-0.1757
0000318798;4.8076;-15.3708;3.8547;0.1737;0.6788;-0.1515
0000318807;4.8076;-15.4019;3.8882;0.1685;0.6512;-0.1284
0000318820;5.0398;-15.6054;3.8690;0.1577;0.6275;-0.1050
0000318829;5.4420;-15.6940;3.7589;0.1350;0.6265;-0.0818
0000318841;5.6192;-15.8424;3.5721;0.1159;0.6310;-0.0445
0000318850;5.7078;-15.8424;3.6129;0.1108;0.6368;-0.0196
0000318863;5.7557;-15.8975;3.5650;0.0899;0.6817;0.0270
0000318872;5.9448;-15.9190;3.5506;0.0935;0.7089;0.0453
0000318884;5.6838;-15.7826;3.5267;0.0885;0.7325;0.0626
0000318893;5.6527;-15.6509;3.5434;0.0861;0.7542;0.0564
0000318902;5.4109;-15.5240;3.5865;0.0887;0.7554;0.0504
0000318915;5.1571;-15.4211;3.6919;0.0762;0.7569;0.0316
0000318924;5.1356;-15.2008;3.5745;0.0673;0.7474;0.0152
0000318936;4.6998;-15.1840;3.5626;0.0528;0.7252;-0.0067
0000318945;4.8267;-14.9853;3.5865;0.0373;0.6996;-0.0222
0000319015;4.8746;-15.3804;3.6440;0.0384;0.4967;-0.0342
0000319024;5.0182;-15.2511;3.6009;0.0505;0.4866;-0.0294
0000319037;4.7381;-15.2870;3.6895;0.0633;0.4682;-0.0169
0000319046;4.8004;-15.2223;3.6775;0.0628;0.4529;-0.0075
0000319055;4.6783;-15.1218;3.7637;0.0530;0.4514;0.0069
0000319067;4.5011;-15.2104;3.7565;0.0470;0.4283;0.0083
0000319076;4.6304;-15.2702;3.6583;0.0432;0.4199;0.0189
0000319089;4.7333;-15.3157;3.8092;0.0488;0.3984;0.0250
0000319098;4.5801;-15.4570;3.6320;0.0645;0.3772;0.0208
0000319110;4.5729;-15.4618;3.7948;0.0871;0.3633;0.0317
0000319119;4.4628;-15.7299;3.8571;0.1099;0.3519;0.0458
0000319128;4.4436;-15.6629;3.8188;0.1268;0.3395;0.0536
0000319141;4.2353;-15.6653;3.6703;0.1210;0.3199;0.0557
0000319150;4.2617;-15.7012;3.6320;0.1009;0.3015;0.0569
0000319162;4.1827;-15.4330;3.4716;0.0678;0.2670;0.0565
0000319171;3.9863;-15.3205;3.3423;0.0424;0.2393;0.0610
0000319184;3.8810;-15.1936;3.2226;-0.0203;0.1900;0.0658
0000319193;3.8642;-15.1744;3.1196;-0.0573;0.1359;0.0554
0000319205;3.5721;-15.0236;3.1029;-0.1088;0.0541;0.0488
0000319214;3.2633;-15.0523;3.0694;-0.1511;-0.0092;0.0381
0000319223;3.2489;-14.7914;3.1723;-0.1744;-0.0902;0.0234
0000319292;4.1851;-15.5982;2.9185;-0.1935;-0.6635;-0.0334
0000319301;4.5705;-15.6222;2.7677;-0.1996;-0.6775;-0.0161
0000319313;5.1044;-15.4857;2.6863;-0.1962;-0.6869;-0.0055
0000319322;5.4708;-15.2008;2.7485;-0.1939;-0.6879;0.0043
0000319335;5.5162;-15.1074;2.7126;-0.1992;-0.6539;0.0237
0000319344;5.8514;-14.9949;2.7102;-0.2149;-0.6261;0.0228
0000319356;5.9520;-14.8057;2.8443;-0.2324;-0.5762;0.0250
0000319365;5.9807;-14.9302;2.8754;-0.2439;-0.5289;0.0180
0000319378;5.9233;-14.7866;3.1268;-0.2248;-0.4848;-0.0088
0000319387;6.0094;-14.7866;3.1005;-0.2076;-0.4353;-0.0199
0000319396;5.9520;-15.0476;3.3040;-0.1823;-0.3833;-0.0349
0000319408;5.8203;-15.1026;3.4716;-0.1394;-0.3159;-0.0424
0000319417;6.1627;-14.9853;3.4836;-0.1033;-0.2671;-0.0502
0000319430;6.2489;-14.9973;3.7302;-0.0422;-0.1916;-0.0481
0000319439;6.3351;-14.8177;3.8211;-0.0125;-0.1376;-0.0436
0000319451;6.1770;-14.6022;3.9480;0.0225;-0.0739;-0.0501
0000319460;6.0597;-14.5831;4.1204;0.0390;-0.0464;-0.0770
0000319473;5.8323;-14.5065;4.1707;0.0374;-0.0200;-0.1126
0000319482;5.4708;-14.7219;4.2473;0.0277;-0.0100;-0.1266
0000319494;5.1882;-15.0356;4.2306;0.0266;-0.0230;-0.1382
0000319503;4.9728;-15.4570;4.3646;0.0195;-0.0278;-0.1364
0000319512;4.8147;-15.7203;4.5633;0.0230;-0.0554;-0.1227
0000319581;6.2393;-15.4833;4.2641;0.1439;-0.1066;0.0520
0000319590;6.3183;-15.3373;4.2713;0.1836;-0.0652;0.0264
0000319602;7.0270;-14.9015;4.2952;0.2579;-0.0020;-0.0374
0000319611;7.0940;-14.9542;4.3694;0.3244;0.0538;-0.1014
0000319624;7.7405;-14.4203;4.4293;0.4414;0.1439;-0.2214
0000319633;8.1331;-14.1665;4.4867;0.5255;0.2089;-0.3091
0000319645;8.2935;-13.3764;4.2473;0.6362;0.2942;-0.4175
0000319654;8.2049;-12.9167;4.1827;0.7328;0.3493;-0.5105
0000319667;7.9727;-11.9758;3.9361;0.8579;0.4153;-0.6154
0000319676;7.5130;-11.2599;3.7350;0.9407;0.4247;-0.6811
0000319685;7.2520;-10.2951;3.5051;1.0245;0.4065;-0.7337
0000319697;6.4260;-9.4930;3.2178;1.1427;0.3215;-0.8255
0000319706;5.8251;-8.9471;2.6911;1.2192;0.2518;-0.8816
0000319719;5.3199;-8.0014;1.7669;1.2925;0.1342;-0.9626
0000319728;5.0039;-7.5513;1.0295;1.3371;0.0408;-1.0317
0000319740;4.9680;-6.8115;-0.0096;1.3267;-0.0512;-1.1389
0000319749;4.8100;-6.3829;-0.3112;1.3306;-0.1271;-1.2215
0000319762;5.2002;-6.5266;-1.5419;1.2229;-0.2185;-1.2689
0000319771;5.2864;-6.5888;-1.5107;1.1507;-0.2594;-1.2845
0000319780;5.3079;-6.3279;-1.6185;1.1860;-0.2914;-1.2713
0000319792;5.4492;-6.3111;-2.4660;1.1799;-0.2962;-1.2281
0000319801;5.1260;-6.2034;-2.8659;1.2075;-0.2563;-1.1870
0000319870;6.2010;-5.4851;1.4820;1.9040;0.2537;-0.7348
0000319879;6.5481;-5.3439;1.9944;2.1095;0.3709;-0.6005
0000319891;7.1611;-5.9376;2.1715;2.1535;0.5670;-0.3738
0000319900;7.1299;-7.3191;1.7645;1.7932;0.7361;-0.1687
0000319913;7.2616;-9.4140;2.9832;0.6640;0.9076;0.2545
0000319922;8.1977;-11.4539;5.3989;-0.1274;0.8912;0.5241
0000319931;7.9057;-11.9519;3.4429;-0.8861;0.9502;0.7770
0000319943;9.0740;-12.7970;2.4469;-1.8603;1.2433;1.0379
0000319952;10.1730;-15.0164;6.2656;-2.1374;1.3375;1.1345
0000319965;10.0940;-16.9533;8.5066;-1.7345;1.3518;1.1971
0000319974;8.2552;-15.2415;6.7995;-1.1338;1.3506;1.3647
0000319986;6.4572;-12.6270;6.5936;-0.6279;1.4289;1.4718
0000319995;5.3415;-11.9638;7.4388;-0.5521;1.4899;1.4194
0000320008;3.3710;-12.4786;4.1635;-1.6842;1.5220;1.0647
0000320017;2.7031;-13.4913;4.6208;-2.9969;1.5006;0.5586
0000320026;3.1867;-15.3397;5.6383;-3.8669;1.6495;-0.2407
0000320038;1.7142;-19.6492;5.6431;-4.3657;1.7824;-1.2772
0000320047;0.7159;-22.1200;6.2656;-4.3648;1.7367;-1.7110
0000320060;0.1341;-25.7760;6.9192;-3.4343;1.6703;-1.7475
0000320069;0.5291;-26.0753;7.3789;-2.8723;1.6836;-1.6988
0000320081;1.1157;-24.9093;7.8626;-2.6460;1.6164;-1.6666
0000320090;2.2146;-24.4496;8.2456;-2.7458;1.5888;-1.6414
0000320159;20.9517;-49.5624;-1.7406;-1.7148;0.6125;-2.2681
0000320168;16.0675;-40.8307;-2.7557;-1.0925;0.9999;-1.8170
0000320180;10.5345;-28.0122;-1.6352;-0.1540;1.1590;-1.2241
0000320189;6.0956;-21.7394;-2.1476;0.3234;1.0993;-1.0832
0000320198;2.8922;-17.8272;-3.1699;0.2990;1.0834;-1.1306
0000320211;-0.0359;-16.2949;-2.1404;-0.2005;1.0471;-1.5171
0000320220;0.0742;-17.1736;-0.6393;-0.5295;1.1131;-2.0598
0000320232;-0.7685;-16.5032;1.1157;-0.3519;0.9770;-2.5802
0000320241;-1.0606;-15.9693;0.4669;0.2281;0.8041;-2.5226
0000320254;4.0223;-13.9702;-3.5171;0.8831;0.3532;-2.2568
0000320263;7.3550;-13.2782;-3.0358;1.2123;-0.0192;-2.1516
0000320277;8.6455;-12.0716;-0.4908;1.6750;-0.4489;-1.7231
0000320286;8.0541;-10.9630;0.2418;1.7500;-0.5955;-1.3394
0000320299;6.3973;-8.4228;0.3998;1.4324;-0.6803;-0.6771
0000320308;6.0837;-6.6224;0.1269;0.9310;-0.7112;-0.2964
0000320317;5.7868;-5.4420;-0.1006;0.3782;-0.7428;-0.0282
0000320329;6.8354;-4.7405;-0.7302;-0.1905;-0.8487;0.0289
0000320338;7.4699;-5.3415;-1.1253;-0.4906;-0.9601;-0.1070
0000320351;8.4324;-6.8570;-1.5610;-0.8412;-1.0818;-0.3441
0000320360;8.9639;-8.4803;-1.5969;-0.9943;-1.1730;-0.4541
0000320430;16.9509;-22.4289;0.2059;-1.3578;-1.3251;-0.6576
0000320439;17.6620;-22.0506;0.1365;-1.0531;-1.0976;-0.5910
0000320452;18.4521;-20.1927;0.3232;-0.5562;-0.7409;-0.6671
0000320461;18.2510;-18.3276;0.5578;-0.3393;-0.4883;-0.7987
0000320473;16.8695;-15.9909;0.0838;-0.1155;-0.1747;-0.8647
0000320482;16.8695;-15.0787;-0.0886;-0.0886;0.0337;-0.9242
0000320496;15.8257;-14.0851;-0.0670;-0.1616;0.2960;-0.9848
0000320505;14.3054;-14.4706;-0.1365;-0.2141;0.4451;-0.9591
0000320518;12.2727;-14.8201;-0.1460;-0.2196;0.5927;-0.8948
0000320527;11.0852;-15.0907;0.0287;-0.1363;0.6263;-0.8482
0000320536;9.9719;-15.2391;0.0048;0.0021;0.6447;-0.8059
0000320548;8.8370;-15.0787;0.0527;0.2010;0.5849;-0.7286
0000320557;8.3079;-14.8057;0.1700;0.3158;0.4946;-0.6678
0000320570;8.2456;-14.0204;0.2083;0.3781;0.3320;-0.5605
0000320579;8.4396;-13.4602;0.2251;0.3573;0.1817;-0.4796
0000320591;8.5449;-13.4554;0.3496;0.2398;-0.0075;-0.3058
0000320600;9.0932;-13.3668;0.5052;0.1227;-0.1383;-0.1659
0000320613;9.8402;-13.5225;0.4860;-0.0767;-0.2730;0.0211
0000320622;10.3118;-13.8720;0.5171;-0.2056;-0.3192;0.1275
0000320631;10.6638;-14.2742;0.3065;-0.2831;-0.3483;0.1980
0000320643;11.2551;-14.8512;0.2298;-0.3236;-0.3227;0.2184
0000320652;11.6310;-15.3373;0.3352;-0.3168;-0.2843;0.1939
0000320721;11.2432;-15.6892;-0.2897;-0.0151;0.0329;0.0171
0000320730;11.0445;-15.3804;-0.2945;-0.0053;0.0285;0.0253
0000320742;11.0038;-15.0595;-0.1796;-0.0222;0.0053;0.0310
0000320751;10.8266;-14.8081;-0.1030;-0.0494;-0.0153;0.0342
0000320764;10.6231;-14.8512;0.0838;-0.0683;-0.0373;0.0454
0000320773;10.2855;-15.1290;0.2155;-0.0807;-0.0489;0.0592
0000320785;10.6470;-14.8321;0.1963;-0.0831;-0.0548;0.0737
0000320794;10.6686;-15.0907;0.3615;-0.0889;-0.0581;0.0817
0000320807;10.6853;-15.2846;0.3472;-0.0749;-0.0468;0.0997
0000320816;10.8601;-15.3157;0.3424;-0.0489;-0.0482;0.1079
0000320825;10.8026;-15.6533;0.3112;-0.0289;-0.0432;0.1206
0000320837;10.9343;-15.5599;0.3903;0.0080;-0.0398;0.1410
0000320846;10.7667;-15.4977;0.3304;0.0293;-0.0421;0.1446
0000320859;10.9032;-15.2870;0.3519;0.0508;-0.0268;0.1407
0000320868;10.9343;-15.2702;0.3831;0.0396;-0.0088;0.1438
0000320880;10.9223;-15.1816;0.2251;0.0204;0.0049;0.1392
0000320889;10.9271;-15.2295;0.2753;-0.0033;0.0160;0.1296
0000320902;10.7260;-15.2750;0.2251;-0.0305;0.0296;0.1264
0000320911;10.5919;-15.2846;0.1987;-0.0502;0.0358;0.1275
0000320923;10.5010;-15.1529;0.1413;-0.0666;0.0416;0.1350
0000320932;10.3908;-15.3205;0.1604;-0.0640;0.0324;0.1358
0000320941;10.4459;-15.2750;0.0982;-0.0573;0.0237;0.1443
0000321010;10.3214;-15.4115;0.0718;-0.0549;-0.0799;0.1227
0000321019;10.5225;-15.4067;0.0646;-0.0633;-0.0807;0.1127
0000321031;10.4579;-15.5839;0.0383;-0.0750;-0.0727;0.1087
0000321040;10.6949;-15.5120;0.0862;-0.0685;-0.0679;0.0983
0000321053;10.5345;-15.5456;0.0694;-0.0737;-0.0518;0.0953
0000321062;10.7093;-15.4426;-0.0335;-0.0699;-0.0462;0.0877
0000321074;10.5393;-15.4857;-0.1030;-0.0679;-0.0432;0.0777
0000321083;10.4028;-15.4019;-0.1006;-0.0789;-0.0373;0.0726
0000321096;10.2376;-15.4785;-0.0527;-0.0767;-0.0429;0.0667
0000321105;10.2113;-15.4570;-0.1652;-0.0850;-0.0366;0.0653
0000321117;10.3430;-15.4019;-0.0144;-0.0818;-0.0396;0.0652
0000321126;10.1107;-15.4953;-0.1413;-0.0842;-0.0374;0.0610
0000321139;10.2448;-15.3780;-0.0527;-0.0845;-0.0429;0.0586
0000321148;10.2592;-15.5216;0.0287;-0.0846;-0.0454;0.0557
0000321157;10.3094;-15.6078;-0.0407;-0.0862;-0.0378;0.0652
0000321169;10.3453;-15.6389;-0.0718;-0.0791;-0.0348;0.0701
0000321178;10.2711;-15.5671;-0.0958;-0.0717;-0.0392;0.0705
0000321191;10.2448;-15.4330;-0.0192;-0.0629;-0.0318;0.0745
0000321200;10.4291;-15.4354;-0.0192;-0.0625;-0.0213;0.0783
0000321212;10.4579;-15.5408;-0.0551;-0.0698;-0.0165;0.0742
0000321221;10.3908;-15.5886;-0.0742;-0.0778;-0.0101;0.0677
0000321290;10.1921;-15.4330;-0.0311;-0.0510;-0.0179;0.0626
0000321299;10.1299;-15.5815;-0.0622;-0.0444;-0.0282;0.0548
0000321311;10.3813;-15.3660;-0.0431;-0.0474;-0.0220;0.0541
0000321320;10.4172;-15.3516;-0.0359;-0.0497;-0.0220;0.0553
0000321333;10.2759;-15.4737;-0.0838;-0.0585;-0.0242;0.0518
0000321342;10.5105;-15.2750;-0.0575;-0.0665;-0.0172;0.0494
0000321354;10.3214;-15.4234;-0.1269;-0.0695;-0.0203;0.0360
0000321363;10.3597;-15.4091;-0.0599;-0.0703;-0.0197;0.0385
0000321372;10.2185;-15.4570;-0.0599;-0.0794;-0.0165;0.0396
0000321385;10.4028;-15.3827;-0.0527;-0.0779;-0.0241;0.0308
0000321394;10.3549;-15.4737;-0.1508;-0.0675;-0.0294;0.0262
0000321406;10.2520;-15.4665;-0.0718;-0.0638;-0.0361;0.0269
0000321415;10.0844;-15.6102;-0.0886;-0.0586;-0.0390;0.0264
0000321428;10.3238;-15.4833;-0.1652;-0.0502;-0.0470;0.0215
0000321437;10.3238;-15.5910;-0.1796;-0.0478;-0.0493;0.0305
0000321449;10.3046;-15.5096;-0.1197;-0.0378;-0.0557;0.0301
0000321458;10.2663;-15.5815;-0.2394;-0.0368;-0.0605;0.0294
0000321471;10.1251;-15.5192;-0.2131;-0.0398;-0.0514;0.0346
0000321480;10.2161;-15.5001;-0.1867;-0.0424;-0.0498;0.0401
0000321492;10.2711;-15.3899;-0.1963;-0.0497;-0.0441;0.0388
0000321501;10.3190;-15.4857;-0.2227;-0.0492;-0.0472;0.0258
0000321569;10.2208;-15.4833;-0.2227;-0.0659;-0.0196;0.0256
0000321578;10.3765;-15.2295;-0.2059;-0.0713;-0.0100;0.0326
0000321587;10.2592;-15.3732;-0.1844;-0.0762;-0.0108;0.0277
0000321599;10.3501;-15.4211;-0.2849;-0.0783;-0.0167;0.0236
0000321608;10.1897;-15.5575;-0.0742;-0.0850;-0.0087;0.0300
0000321621;10.2400;-15.4546;-0.1173;-0.0759;-0.0156;0.0226
0000321630;10.1370;-15.6700;-0.2251;-0.0799;-0.0147;0.0225
0000321642;10.0317;-15.6006;-0.1437;-0.0831;-0.0139;0.0196
0000321651;10.0102;-15.6485;-0.2179;-0.0793;-0.0139;0.0320
0000321664;10.1131;-15.6054;-0.1820;-0.0778;-0.0096;0.0325
0000321673;10.0317;-15.6605;-0.1796;-0.0741;-0.0179;0.0261
0000321685;9.9647;-15.6964;-0.2514;-0.0730;-0.0180;0.0312
0000321694;10.0963;-15.6078;-0.2753;-0.0653;-0.0157;0.0270
0000321707;10.0317;-15.6485;-0.1389;-0.0569;-0.0203;0.0290
0000321716;10.0676;-15.5671;-0.2131;-0.0510;-0.0322;0.0217
0000321728;9.9647;-15.5432;-0.1173;-0.0462;-0.0358;0.0213
0000321737;9.9335;-15.4929;-0.2490;-0.0429;-0.0414;0.0181
0000321750;10.1897;-15.5240;-0.3112;-0.0461;-0.0402;0.0204
0000321759;9.8617;-15.4570;-0.2107;-0.0474;-0.0386;0.0200
0000321768;10.0102;-15.4450;-0.2418;-0.0496;-0.0518;0.0171
0000321780;10.1011;-15.5120;-0.1987;-0.0592;-0.0472;0.0290
0000321789;10.1394;-15.4641;-0.2586;-0.0573;-0.0530;0.0217
0000321858;10.2280;-15.4833;-0.3615;-0.0385;-0.0380;0.0245
0000321867;10.2304;-15.5934;-0.2849;-0.0348;-0.0425;0.0167
0000321879;10.1514;-15.4833;-0.2873;-0.0376;-0.0418;0.0119
0000321888;10.1849;-15.6198;-0.3160;-0.0414;-0.0336;0.0201
0000321901;10.0724;-15.6246;-0.3615;-0.0400;-0.0321;0.0191
0000321910;10.1682;-15.4857;-0.3017;-0.0397;-0.0288;0.0200
0000321921;10.1658;-15.5264;-0.3424;-0.0324;-0.0362;0.0137
0000321930;10.0580;-15.5168;-0.3112;-0.0350;-0.0326;0.0212
0000321944;10.1275;-15.5934;-0.3615;-0.0349;-0.0297;0.0193
0000321953;9.9479;-15.7491;-0.3663;-0.0296;-0.0377;0.0160
0000321966;10.2304;-15.5312;-0.3567;-0.0397;-0.0305;0.0208
0000321975;10.1514;-15.5551;-0.3280;-0.0380;-0.0306;0.0193
0000321984;10.0054;-15.5551;-0.3232;-0.0382;-0.0236;0.0226
0000321996;9.9958;-15.7084;-0.3065;-0.0358;-0.0282;0.0128
0000322005;10.0389;-15.7802;-0.3017;-0.0368;-0.0215;0.0169
0000322018;10.1634;-15.5671;-0.3017;-0.0301;-0.0172;0.0137
0000322027;10.1251;-15.4761;-0.3855;-0.0274;-0.0199;0.0084
0000322039;10.1275;-15.5479;-0.3711;-0.0266;-0.0209;0.0177
0000322048;10.1394;-15.6485;-0.3567;-0.0180;-0.0249;0.0164
0000322117;10.1969;-15.3923;-0.3519;-0.0177;-0.0257;0.0152
0000322126;9.9671;-15.6581;-0.4094;-0.0144;-0.0304;0.0056
0000322138;10.0868;-15.6724;-0.3424;-0.0168;-0.0278;0.0083
0000322147;10.1203;-15.6605;-0.3112;-0.0187;-0.0269;0.0069
0000322160;10.0892;-15.5743;-0.3591;-0.0228;-0.0256;0.0077
0000322169;10.0772;-15.4091;-0.3136;-0.0273;-0.0262;0.0029
0000322181;9.8976;-15.7682;-0.3256;-0.0372;-0.0140;0.0092
0000322190;10.0413;-15.5432;-0.3615;-0.0290;-0.0222;0.0015
0000322199;9.9455;-15.5934;-0.2897;-0.0318;-0.0216;0.0003
0000322212;9.8521;-15.6485;-0.4262;-0.0203;-0.0264;-0.0019
0000322221;10.0341;-15.5743;-0.3184;-0.0217;-0.0193;0.0024
0000322233;10.0389;-15.5216;-0.3974;-0.0156;-0.0215;0.0008
0000322242;9.8402;-15.7562;-0.2442;-0.0143;-0.0272;-0.0009
0000322255;10.0485;-15.4450;-0.2945;-0.0172;-0.0257;0.0003
0000322264;9.8641;-15.6102;-0.2538;-0.0169;-0.0278;-0.0035
0000322276;9.7971;-15.6365;-0.2873;-0.0197;-0.0286;-0.0012
0000322285;10.0293;-15.6389;-0.2873;-0.0212;-0.0249;0.0053
0000322298;10.0221;-15.5120;-0.3687;-0.0185;-0.0270;0.0015
0000322307;10.0365;-15.5839;-0.2753;-0.0173;-0.0277;-0.0024
0000322319;9.9024;-15.5671;-0.3567;-0.0164;-0.0313;-0.0016
0000322328;9.9527;-15.6293;-0.3448;-0.0145;-0.0302;0.0016
0000322397;10.0868;-15.5360;-0.4477;0.0128;-0.0350;-0.0028
0000322406;10.0485;-15.5264;-0.3448;0.0100;-0.0412;-0.0033
0000322415;10.2400;-15.6724;-0.4166;0.0147;-0.0430;-0.0028
0000322427;10.0197;-15.5288;-0.3639;0.0104;-0.0414;-0.0028
0000322436;9.9240;-15.6485;-0.3448;0.0069;-0.0326;0.0065
0000322449;10.0868;-15.5647;-0.2921;0.0065;-0.0393;0.0005
0000322458;9.9479;-15.4905;-0.3041;0.0053;-0.0314;0.0056
0000322470;10.0102;-15.5839;-0.3424;0.0136;-0.0372;-0.0037
0000322479;9.9647;-15.5910;-0.3112;0.0079;-0.0302;0.0045
0000322492;9.9048;-15.7251;-0.3328;0.0100;-0.0294;0.0009
0000322501;9.9623;-15.6677;-0.3136;0.0129;-0.0304;0.0028
0000322513;10.1107;-15.5192;-0.3041;0.0113;-0.0289;0.0075
0000322522;10.1059;-15.5168;-0.3065;0.0132;-0.0345;0.0009
0000322535;10.0533;-15.5934;-0.2993;0.0089;-0.0277;0.0076
0000322544;10.0389;-15.5456;-0.2682;0.0112;-0.0370;0.0045
0000322553;9.9288;-15.6222;-0.3615;0.0092;-0.0278;0.0097
0000322565;10.0269;-15.5120;-0.2825;0.0080;-0.0302;0.0121
0000322574;10.0173;-15.6198;-0.2945;0.0107;-0.0334;0.0085
0000322587;9.7324;-15.7969;-0.3017;0.0152;-0.0277;0.0101
0000322596;9.9192;-15.6246;-0.2179;0.0147;-0.0260;0.0160
0000322608;9.9719;-15.4977;-0.3112;0.0193;-0.0296;0.0067
0000322617;9.9766;-15.5240;-0.2610;0.0124;-0.0222;0.0121
0000322686;9.8186;-15.7419;-0.2873;-0.0048;-0.0140;0.0172
0000322695;9.9647;-15.5432;-0.2777;-0.0035;-0.0173;0.0226
0000322707;9.9838;-15.5408;-0.2490;-0.0015;-0.0179;0.0187
0000322716;9.5337;-15.8927;-0.2107;-0.0028;-0.0117;0.0180
0000322725;9.9240;-15.6461;-0.3160;0.0087;-0.0188;0.0113
0000322738;9.9934;-15.5575;-0.3089;0.0137;-0.0139;0.0156
0000322747;9.8450;-15.7706;-0.1604;0.0096;-0.0103;0.0117
0000322759;9.7803;-15.8185;-0.3376;0.0076;-0.0084;0.0115
0000322768;9.9168;-15.6006;-0.2514;0.0147;-0.0140;0.0085
0000322781;9.8904;-15.6126;-0.2227;0.0049;-0.0105;0.0133
0000322790;9.9431;-15.6006;-0.2705;0.0108;-0.0215;0.0109
0000322802;9.9910;-15.5408;-0.3112;0.0056;-0.0145;0.0163
0000322811;10.0269;-15.5839;-0.2155;0.0059;-0.0175;0.0123
0000322824;9.8904;-15.5767;-0.3136;0.0097;-0.0177;0.0192
0000322833;9.8186;-15.6940;-0.2586;0.0143;-0.0193;0.0165
0000322842;9.9695;-15.5336;-0.1437;0.0184;-0.0207;0.0167
0000322854;9.8521;-15.6293;-0.1317;0.0107;-0.0156;0.0172
0000322863;10.0580;-15.5120;-0.1963;0.0217;-0.0248;0.0103
0000322876;9.9790;-15.6198;-0.2514;0.0093;-0.0183;0.0132
0000322885;9.8641;-15.6413;-0.2777;0.0121;-0.0197;0.0155
0000322897;9.9647;-15.4833;-0.2562;0.0035;-0.0204;0.0119
0000322906;9.7851;-15.6270;-0.2227;0.0095;-0.0185;0.0155
0000322974;9.8330;-15.5479;-0.1963;-0.0061;-0.0211;0.0169
0000322983;9.8354;-15.4618;-0.1652;-0.0103;-0.0183;0.0195
0000322995;9.8497;-15.6365;-0.2227;-0.0143;-0.0230;0.0171
0000323004;9.8545;-15.6485;-0.2274;-0.0103;-0.0260;0.0161
0000323017;9.8234;-15.6437;-0.1939;-0.0135;-0.0237;0.0132
0000323026;9.8258;-15.6437;-0.1891;-0.0180;-0.0144;0.0237
0000323035;10.0796;-15.5743;-0.1676;-0.0199;-0.0228;0.0171
0000323047;9.8785;-15.6317;-0.2251;-0.0204;-0.0139;0.0172
0000323056;9.8569;-15.6533;-0.1891;-0.0237;-0.0095;0.0176
0000323069;9.8809;-15.6222;-0.1796;-0.0274;-0.0108;0.0172
0000323078;9.9623;-15.5503;-0.2179;-0.0220;-0.0123;0.0164
0000323090;9.8402;-15.5982;-0.1580;-0.0167;-0.0137;0.0159
0000323099;9.8497;-15.6629;-0.1604;-0.0189;-0.0049;0.0201
0000323112;9.9551;-15.6844;-0.1939;-0.0171;-0.0053;0.0216
0000323121;9.7085;-15.6006;-0.1867;-0.0183;-0.0063;0.0172
0000323133;9.7276;-15.6581;-0.2634;-0.0144;-0.0140;0.0141
0000323142;9.8497;-15.6700;-0.2203;-0.0169;-0.0065;0.0200
0000323155;10.0916;-15.4905;-0.1724;-0.0203;-0.0132;0.0143
0000323164;9.8857;-15.6796;-0.1867;-0.0236;-0.0144;0.0189
0000323173;9.8114;-15.5910;-0.2035;-0.0313;-0.0069;0.0238
0000323185;10.0221;-15.5120;-0.1772;-0.0397;-0.0111;0.0288
0000323194;9.7875;-15.6605;-0.1891;-0.0386;-0.0171;0.0240
0000323263;9.7588;-15.8065;-0.2466;-0.0258;-0.0087;0.0360
0000323272;9.8306;-15.5479;-0.2179;-0.0305;-0.0043;0.0488
0000323284;9.8306;-15.5647;-0.2753;-0.0294;-0.0053;0.0481
0000323293;9.9048;-15.5264;-0.1604;-0.0365;-0.0039;0.0548
0000323306;9.7636;-15.5479;-0.2322;-0.0350;-0.0057;0.0568
0000323315;9.7372;-15.7323;-0.2586;-0.0456;-0.0001;0.0649
0000323327;9.7588;-15.5958;-0.2921;-0.0457;0.0027;0.0709
0000323336;9.8881;-15.5958;-0.3112;-0.0408;-0.0013;0.0671
0000323350;9.7612;-15.6198;-0.2634;-0.0450;0.0043;0.0753
0000323359;9.7540;-15.6389;-0.2274;-0.0428;0.0048;0.0718
0000323368;9.8306;-15.6150;-0.2179;-0.0384;0.0045;0.0715
0000323381;9.7205;-15.6485;-0.2035;-0.0380;0.0065;0.0739
0000323390;9.8162;-15.7323;-0.3160;-0.0438;0.0084;0.0773
0000323402;9.9335;-15.6054;-0.1915;-0.0472;0.0140;0.0797
0000323411;9.8306;-15.5863;-0.2729;-0.0412;0.0059;0.0771
0000323424;9.7995;-15.6150;-0.2346;-0.0422;0.0085;0.0859
0000323433;9.7707;-15.6461;-0.1891;-0.0485;0.0159;0.0975
0000323445;9.6917;-15.5934;-0.2035;-0.0530;0.0167;0.1049
0000323454;9.6510;-15.6126;-0.2370;-0.0537;0.0112;0.1054
0000323463;9.7157;-15.6341;-0.1963;-0.0621;0.0224;0.1171
0000323476;9.6319;-15.6557;-0.3208;-0.0689;0.0238;0.1302
0000323485;9.6582;-15.4211;-0.1987;-0.0624;0.0221;0.1312
0000323555;9.4116;-15.7706;-0.2729;-0.0813;0.0111;0.1567
0000323564;9.4212;-15.7922;-0.2418;-0.0831;0.0079;0.1587
0000323577;9.4284;-15.6940;-0.2107;-0.0813;-0.0025;0.1633
0000323586;9.4212;-15.6270;-0.2322;-0.0810;-0.0063;0.1736
0000323598;9.3853;-15.6988;-0.2131;-0.0822;-0.0156;0.1851
0000323607;9.2919;-15.7491;-0.2801;-0.0847;-0.0256;0.1916
0000323620;9.2703;-15.7922;-0.1915;-0.0837;-0.0297;0.2069
0000323629;9.5457;-15.6389;-0.2897;-0.0833;-0.0382;0.2124
0000323641;9.4691;-15.7012;-0.1867;-0.0815;-0.0353;0.2285
0000323650;9.2320;-15.8807;-0.2921;-0.0766;-0.0360;0.2406
0000323659;9.4451;-15.7179;-0.2562;-0.0794;-0.0348;0.2487
0000323672;9.4164;-15.7131;-0.3903;-0.0757;-0.0341;0.2585
0000323681;9.3901;-15.6820;-0.2753;-0.0825;-0.0361;0.2659
0000323693;9.3565;-15.6581;-0.3280;-0.0891;-0.0211;0.2858
0000323702;9.2751;-15.6413;-0.3328;-0.0905;-0.0167;0.2932
0000323715;9.2703;-15.8592;-0.3352;-0.1096;-0.0084;0.3038
0000323724;9.3063;-15.7945;-0.5100;-0.1222;-0.0020;0.3096
0000323736;9.2153;-15.7586;-0.3807;-0.1356;0.0069;0.3239
0000323745;9.3589;-15.6437;-0.4166;-0.1404;0.0164;0.3333
0000323758;9.1099;-15.7778;-0.5148;-0.1592;0.0248;0.3397
0000323767;9.1913;-15.6988;-0.5555;-0.1763;0.0397;0.3545
0000323776;9.3446;-15.5551;-0.6704;-0.1828;0.0441;0.3609
0000323846;9.3757;-15.4905;-0.5004;-0.2509;0.1713;0.3623
0000323855;9.2009;-15.5623;-0.6321;-0.2578;0.1800;0.3583
0000323868;9.0549;-15.5192;-0.5148;-0.2721;0.1970;0.3515
0000323877;9.0477;-15.7036;-0.6560;-0.2951;0.2118;0.3528
0000323889;8.8490;-15.6054;-0.6680;-0.3030;0.2201;0.3572
0000323898;8.8107;-15.6892;-0.6800;-0.3207;0.2232;0.3544
0000323911;8.4851;-15.8424;-0.6488;-0.3230;0.2154;0.3503
0000323920;8.2528;-15.8736;-0.6823;-0.3308;0.2109;0.3520
0000323932;7.9799;-16.1130;-0.6752;-0.3325;0.1848;0.3511
0000323941;8.1355;-15.9095;-0.7374;-0.3361;0.1703;0.3556
0000323950;8.0158;-16.0938;-0.7733;-0.3439;0.1633;0.3552
0000323963;7.9751;-16.0842;-0.7614;-0.3396;0.1508;0.3591
0000323972;7.9942;-16.1968;-0.8523;-0.3319;0.1419;0.3493
0000323984;7.8937;-16.2734;-1.0654;-0.3281;0.1316;0.3432
0000323993;7.8769;-16.3404;-0.9936;-0.3258;0.1198;0.3308
0000324006;7.6806;-16.3763;-0.8930;-0.3051;0.1045;0.3331
0000324015;7.6974;-16.5032;-1.0343;-0.2942;0.1018;0.3403
0000324027;7.8314;-16.2878;-0.8212;-0.2738;0.0866;0.3489
0000324036;7.6591;-16.3069;-0.9864;-0.2646;0.0730;0.3540
0000324049;7.5968;-16.3356;-1.0487;-0.2553;0.0580;0.3597
0000324058;7.4675;-16.3237;-1.0511;-0.2523;0.0398;0.3593
0000324067;7.5106;-15.9981;-1.0894;-0.2557;0.0241;0.3584
0000324137;7.2520;-16.2471;-1.3192;-0.2734;-0.0874;0.3016
0000324146;7.2472;-16.3189;-1.1468;-0.2617;-0.0926;0.3000
0000324159;7.2496;-16.2638;-1.2186;-0.2526;-0.0918;0.3010
0000324168;7.2664;-16.4075;-1.1899;-0.2546;-0.0930;0.3051
0000324180;7.2042;-16.3332;-1.1564;-0.2411;-0.0958;0.3071
0000324189;7.0270;-16.4960;-1.1827;-0.2204;-0.1031;0.3032
0000324202;7.0629;-16.2710;-1.2402;-0.2172;-0.1115;0.3043
0000324211;6.9839;-16.2064;-1.3838;-0.2021;-0.1226;0.3038
0000324223;6.9288;-16.2231;-1.5083;-0.1863;-0.1340;0.3131
0000324232;6.8666;-16.1345;-1.4988;-0.1693;-0.1432;0.3156
0000324245;6.9264;-16.2758;-1.4940;-0.1551;-0.1603;0.3112
0000324254;6.9599;-16.1034;-1.4772;-0.1499;-0.1741;0.3051
0000324263;6.8642;-16.1537;-1.6089;-0.1595;-0.1807;0.3016
0000324275;6.9671;-16.1872;-1.5347;-0.1680;-0.1929;0.2915
0000324284;6.9552;-16.1848;-1.5419;-0.1743;-0.2101;0.2801
0000324297;6.9336;-16.2566;-1.5251;-0.1851;-0.2184;0.2663
0000324306;6.9240;-16.2064;-1.6041;-0.1885;-0.2176;0.2690
0000324318;7.1012;-16.2925;-1.5897;-0.1760;-0.2152;0.2618
0000324327;7.1299;-16.1752;-1.6065;-0.1659;-0.2153;0.2527
0000324340;7.0916;-16.4194;-1.6496;-0.1552;-0.2109;0.2425
0000324349;7.1012;-16.2183;-1.6352;-0.1573;-0.1994;0.2361
0000324419;7.1682;-16.3045;-1.9824;-0.1404;-0.0995;0.1529
0000324428;7.1898;-16.3907;-2.0662;-0.1458;-0.0638;0.1238
0000324441;7.6040;-16.4769;-2.0279;-0.1637;0.0133;0.1022
0000324450;7.3670;-16.5224;-1.9944;-0.1723;0.0659;0.0986
0000324459;7.2496;-16.6110;-2.1308;-0.1748;0.1119;0.0987
0000324471;7.2042;-16.7546;-2.0949;-0.1544;0.1667;0.1190
0000324480;6.9887;-16.6493;-2.3296;-0.1364;0.2036;0.1446
0000324493;7.0557;-16.2949;-2.2482;-0.0885;0.2290;0.1619
0000324502;6.8570;-16.2159;-2.2529;-0.0536;0.2248;0.1623
0000324514;6.4739;-16.1489;-2.0782;-0.0285;0.2258;0.1545
0000324523;6.6104;-15.9741;-2.1117;-0.0133;0.2204;0.1415
0000324536;6.2752;-16.1249;-1.9992;-0.0044;0.2080;0.1073
0000324545;6.2369;-16.1513;-1.8531;0.0003;0.1821;0.0754
0000324554;6.2249;-16.0388;-1.7789;-0.0088;0.1737;0.0616
0000324566;6.3470;-16.0052;-1.8316;-0.0270;0.1567;0.0405
0000324575;6.4284;-16.1585;-1.7741;-0.0400;0.1532;0.0386
0000324588;6.5673;-16.2399;-1.7549;-0.0350;0.1416;0.0356
0000324597;7.0102;-16.2375;-1.8507;-0.0218;0.1636;0.0488
0000324609;7.1515;-16.1297;-1.9058;0.0025;0.2146;0.0769
0000324618;7.4915;-16.0651;-2.0279;0.0312;0.2629;0.0939
0000324631;7.5178;-16.3117;-1.8794;0.0825;0.3291;0.1215
0000324640;7.4986;-16.1010;-1.9369;0.1114;0.3625;0.1308
0000324710;6.4548;-16.5439;-1.6400;0.0829;0.4525;0.2181
0000324719;6.4356;-16.8288;-1.5682;0.1238;0.4357;0.2573
0000324728;6.3063;-16.9390;-1.5897;0.1659;0.4113;0.2866
0000324741;6.0525;-16.9629;-1.6281;0.2236;0.3668;0.3176
0000324750;5.8107;-17.0108;-1.6017;0.2642;0.3216;0.3140
0000324762;5.5019;-17.1353;-1.9441;0.3039;0.2348;0.2943
0000324771;5.3606;-16.9845;-2.1644;0.3287;0.1636;0.2735
0000324784;5.1332;-17.0084;-2.3320;0.3675;0.0464;0.2457
0000324793;5.3079;-16.7714;-2.4277;0.3934;-0.0252;0.2429
0000324805;5.1404;-16.7977;-2.5977;0.4297;-0.1046;0.2557
0000324814;5.3127;-16.6182;-2.5594;0.4694;-0.1548;0.2755
0000324823;5.5091;-16.5751;-2.6791;0.4996;-0.1844;0.3056
0000324837;5.8730;-16.6086;-2.6288;0.5556;-0.2006;0.3463
0000324846;6.1914;-16.5391;-2.5474;0.5773;-0.1884;0.3616
0000324859;6.2584;-16.6014;-2.3104;0.5970;-0.1502;0.3722
0000324868;6.4428;-16.5415;-2.2984;0.6338;-0.1472;0.3501
0000324880;6.3351;-16.5224;-2.0016;0.6616;-0.1488;0.3327
0000324889;6.1579;-16.5296;-1.7861;0.6698;-0.1520;0.3364
0000324902;6.0118;-16.1273;-1.6616;0.6708;-0.1843;0.3754
0000324911;5.8538;-16.1034;-1.6257;0.6527;-0.2040;0.4215
0000324923;5.9017;-16.0340;-1.3838;0.6183;-0.2449;0.4934
0000324932;5.8849;-16.0340;-1.2641;0.5957;-0.2863;0.5425
0000324941;5.8538;-16.1273;-1.1109;0.5710;-0.3333;0.5929
0000325010;5.1499;-16.9366;-0.2322;0.7103;-0.8463;0.7372
0000325019;5.4540;-16.7881;-0.1030;0.7316;-0.8767;0.7324
0000325031;5.5952;-16.7618;-0.0359;0.7558;-0.9405;0.7318
0000325040;6.1244;-16.5080;0.0742;0.7686;-0.9614;0.7350
0000325053;6.3207;-16.4841;0.0527;0.7606;-0.9577;0.7697
0000325062;6.4572;-16.5846;0.1772;0.7222;-0.9225;0.8098
0000325074;6.5697;-16.6636;0.2801;0.6456;-0.8238;0.8569
0000325083;6.4643;-16.8695;0.3496;0.5662;-0.7293;0.8843
0000325092;6.1076;-17.1952;0.3136;0.5179;-0.6367;0.8724
0000325105;5.9903;-17.5567;0.4238;0.5069;-0.5061;0.7942
0000325114;5.7030;-17.4992;0.3376;0.5472;-0.4076;0.7272
0000325126;5.6288;-17.4250;0.1772;0.6424;-0.2878;0.6211
0000325135;5.5976;-16.9294;0.1867;0.7281;-0.2157;0.5367
0000325148;5.5952;-15.9861;0.2897;0.8122;-0.1303;0.4487
0000325157;5.2050;-15.2798;0.4501;0.8001;-0.0858;0.4218
0000325169;4.4796;-14.6621;0.5866;0.7382;-0.0629;0.4073
0000325178;3.9121;-14.0516;0.5866;0.6495;-0.0739;0.3993
0000325187;3.4069;-13.4602;0.6416;0.5518;-0.0994;0.3957
0000325200;2.4924;-13.1442;0.6297;0.4012;-0.1845;0.3870
0000325209;2.3343;-12.8952;0.6584;0.2794;-0.2534;0.3804
0000325221;2.0830;-12.7779;0.6847;0.1046;-0.3571;0.3584
0000325230;2.1596;-13.0101;0.6536;-0.0301;-0.4329;0.3291
0000325299;3.5985;-16.2973;0.8021;-0.3579;-0.7629;0.0758
0000325308;3.5602;-16.4530;0.7614;-0.3226;-0.7678;0.0997
0000325320;3.6847;-16.4769;0.7805;-0.2793;-0.7931;0.1252
0000325329;3.8331;-16.5080;0.9409;-0.2622;-0.8082;0.1705
0000325342;3.8403;-16.4649;1.0558;-0.2601;-0.8395;0.2285
0000325351;3.8451;-16.4362;0.9768;-0.2681;-0.8679;0.2631
0000325360;3.9145;-16.6349;1.1037;-0.2635;-0.8994;0.2851
0000325372;3.8978;-16.8193;1.1684;-0.2465;-0.9334;0.2923
0000325381;4.0989;-16.9533;1.3024;-0.2314;-0.9465;0.2923
0000325394;4.1444;-17.1880;1.3144;-0.2016;-0.9607;0.2633
0000325403;4.4556;-16.9964;1.2522;-0.1599;-0.9554;0.2353
0000325415;4.5538;-17.2119;1.3479;-0.1106;-0.9212;0.1949
0000325424;4.7190;-17.0539;1.2785;-0.0644;-0.8928;0.1498
0000325437;4.7333;-17.0324;1.2498;-0.0013;-0.8304;0.0783
0000325446;4.7956;-16.8265;1.2402;0.0398;-0.7887;0.0254
0000325458;4.6208;-16.5152;1.3192;0.0839;-0.7320;-0.0396
0000325467;4.6639;-16.2087;1.2809;0.1108;-0.6881;-0.0882
0000325476;4.5442;-15.8281;1.3192;0.1135;-0.6550;-0.1140
0000325489;4.2521;-15.4977;1.3001;0.1081;-0.6166;-0.1472
0000325498;4.1875;-15.3229;1.3767;0.0859;-0.6070;-0.1636
0000325510;3.9552;-15.2750;1.4557;0.0674;-0.5939;-0.1644
0000325519;3.8930;-15.3732;1.4365;0.0608;-0.6027;-0.1627
0000325588;4.8387;-15.3037;1.2019;0.0055;-0.5380;-0.1881
0000325597;4.8866;-15.5719;1.3144;0.0245;-0.5111;-0.2077
0000325609;4.7836;-15.9143;1.6305;0.0831;-0.4671;-0.2158
0000325618;4.7716;-16.1848;1.8268;0.1491;-0.4205;-0.2032
0000325627;4.7812;-16.1824;2.0016;0.1984;-0.3941;-0.1884
0000325640;4.8890;-15.9861;2.2194;0.2727;-0.3724;-0.1416
0000325649;4.9584;-16.0292;2.1763;0.3067;-0.3645;-0.1143
0000325661;4.9871;-15.9167;2.2865;0.3200;-0.3275;-0.0837
0000325670;5.1571;-15.9981;2.4612;0.3289;-0.2902;-0.0747
0000325683;5.1954;-16.3931;2.6169;0.3400;-0.2280;-0.0795
0000325692;4.7357;-17.0563;2.6767;0.3416;-0.1873;-0.1045
0000325704;4.2689;-18.2366;3.3423;0.4375;-0.1472;-0.1533
0000325713;3.9624;-19.1680;3.8930;0.5625;-0.1270;-0.1884
0000325726;3.9193;-20.5973;4.9297;0.8198;-0.0588;-0.2282
0000325735;3.9193;-21.9261;5.3032;0.9321;0.0104;-0.2369
0000325744;4.4508;-22.5534;5.2050;1.0356;0.0863;-0.2196
0000325756;4.9704;-23.2980;4.7884;1.1562;0.1925;-0.1564
0000325765;5.4253;-23.0346;4.6160;1.2849;0.2787;-0.0910
0000325778;5.0159;-22.2086;4.5681;1.5062;0.3785;0.0296
0000325787;4.2042;-21.5143;4.5562;1.6439;0.4085;0.0699
0000325799;3.1651;-20.3244;4.2425;1.7653;0.4050;0.0586
0000325808;2.7414;-19.5654;3.9097;1.8523;0.3734;0.0087
0000325877;3.7852;-16.0603;3.2729;1.3817;0.1411;-0.0690
0000325886;3.8020;-16.0771;3.4477;1.3987;0.1180;-0.0568
0000325895;4.1084;-16.0052;3.4477;1.4123;0.1292;-0.0336
0000325907;4.7166;-15.5479;3.5267;1.4216;0.1296;-0.0020
0000325916;5.0254;-15.2726;3.5314;1.3956;0.1276;0.0143
0000325929;5.2744;-14.7866;3.5506;1.3468;0.1498;0.0277
0000325938;5.1691;-14.3006;3.5745;1.2925;0.1609;0.0270
0000325950;4.8052;-13.9654;3.7709;1.2177;0.1899;0.0088
0000325959;4.4101;-13.6517;3.7469;1.1381;0.2089;-0.0289
0000325972;4.0103;-13.3764;4.1228;0.9926;0.2507;-0.1203
0000325981;3.7924;-12.9814;4.4101;0.8911;0.2567;-0.2046
0000325990;3.6655;-12.9047;4.4532;0.7540;0.2888;-0.2883
0000326002;3.7733;-12.5839;4.4484;0.5812;0.3032;-0.3837
0000326011;3.2370;-12.5193;4.5035;0.4672;0.2770;-0.4085
0000326024;2.9018;-12.2679;4.4197;0.3861;0.2477;-0.3758
0000326033;3.1173;-12.0955;4.3527;0.3752;0.1986;-0.3167
0000326045;3.5051;-11.9183;4.6040;0.3777;0.1720;-0.2152
0000326054;3.7206;-11.7699;4.7812;0.3804;0.1506;-0.1447
0000326067;4.1851;-11.7531;4.8100;0.3323;0.1339;-0.0711
0000326076;4.0414;-12.1003;4.8961;0.2318;0.1239;-0.0292
0000326085;3.8906;-12.2703;5.0135;0.1371;0.0962;-0.0133
0000326097;3.5554;-12.5959;4.9991;0.0360;0.0742;0.0013
0000326106;3.2992;-12.8377;5.1188;-0.0011;0.0422;-0.0232
0000326175;3.3327;-14.1138;5.6671;-0.0085;-0.3792;-0.2369
0000326184;3.3279;-13.9534;5.5378;-0.0195;-0.4155;-0.2361
0000326196;3.7421;-13.7379;5.5330;-0.0442;-0.4706;-0.2509
0000326205;4.1779;-13.6206;5.5162;-0.0589;-0.4854;-0.2463
0000326218;4.5849;-13.8361;5.5091;-0.0702;-0.5127;-0.2459
0000326227;4.8052;-13.7092;5.4229;-0.0862;-0.5268;-0.2483
0000326239;4.9680;-13.8385;5.5689;-0.1003;-0.5217;-0.2261
0000326248;4.9728;-13.9031;5.6383;-0.1246;-0.4846;-0.1924
0000326257;4.8794;-14.1737;5.5426;-0.1303;-0.4579;-0.1680
0000326271;4.9488;-14.3532;5.7389;-0.1239;-0.4126;-0.1220
0000326280;5.0973;-14.4825;5.5952;-0.1415;-0.3881;-0.1127
0000326293;5.1547;-14.5759;5.5761;-0.1270;-0.3581;-0.0950
0000326302;5.1068;-14.6142;5.5976;-0.1223;-0.3479;-0.1017
0000326314;5.1380;-14.7435;5.5162;-0.1087;-0.3308;-0.1078
0000326323;5.0111;-14.7698;5.5952;-0.1054;-0.3300;-0.1087
0000326336;4.9775;-14.7914;5.4827;-0.1191;-0.3295;-0.0993
0000326345;4.7262;-14.6860;5.5689;-0.1466;-0.3295;-0.0866
0000326357;4.8890;-14.5759;5.5593;-0.1575;-0.3565;-0.0786
0000326366;4.9967;-14.3077;5.5162;-0.1929;-0.3663;-0.0604
0000326435;5.6599;-14.6429;5.0589;-0.3545;-0.4274;0.1058
0000326444;5.9520;-14.5160;4.9728;-0.3336;-0.4081;0.1074
0000326453;6.0310;-14.2192;5.0015;-0.2988;-0.3933;0.0818
0000326465;6.0932;-14.1210;4.7477;-0.2862;-0.3603;0.0474
0000326474;6.3710;-13.8600;4.6064;-0.3000;-0.3464;0.0153
0000326487;6.5098;-13.8505;4.6064;-0.3095;-0.3167;-0.0306
0000326496;6.4428;-13.9845;4.4676;-0.3016;-0.2851;-0.0478
0000326508;6.6439;-14.0276;4.5610;-0.3024;-0.2429;-0.0604
0000326517;6.7301;-13.9893;4.5993;-0.2999;-0.2017;-0.0678
0000326530;6.8618;-13.8840;4.3622;-0.2964;-0.1428;-0.0817
0000326539;6.8211;-13.8481;4.5131;-0.3072;-0.1049;-0.0850
0000326551;6.8043;-13.5608;4.2401;-0.3142;-0.0628;-0.0982
0000326560;6.7205;-13.6062;4.0606;-0.3254;-0.0334;-0.1031
0000326569;6.8211;-13.4147;3.9049;-0.3315;-0.0248;-0.1222
0000326582;6.6008;-13.1202;3.9361;-0.3244;-0.0159;-0.1475
0000326591;6.7038;-12.9766;3.7302;-0.3348;-0.0195;-0.1539
0000326603;6.3710;-12.8114;3.6320;-0.3433;-0.0274;-0.1420
0000326612;6.3279;-12.6773;3.5817;-0.3443;-0.0296;-0.1102
0000326625;6.1268;-12.7850;3.3926;-0.3817;-0.0193;-0.0337
0000326634;5.9927;-12.8425;3.3806;-0.4181;-0.0056;0.0059
0000326646;6.0980;-13.0460;3.4022;-0.4222;0.0376;0.0328
0000326655;6.0813;-13.0292;3.4500;-0.4062;0.0620;0.0380
0000326723;6.7660;-13.3333;3.1580;-0.4938;0.3683;-0.1366
0000326732;6.6726;-13.3261;3.3184;-0.4996;0.4183;-0.1403
0000326741;6.6559;-13.3884;3.2968;-0.5107;0.4670;-0.1487
0000326753;6.5864;-13.3764;3.5219;-0.5328;0.5301;-0.1588
0000326762;6.3015;-13.6446;3.4429;-0.5424;0.5566;-0.1707
0000326775;6.1124;-13.6996;3.4453;-0.5604;0.5805;-0.1847
0000326784;5.9424;-13.7451;3.5602;-0.5693;0.5841;-0.1977
0000326796;5.6144;-14.1090;3.4907;-0.5825;0.5770;-0.2124
0000326805;5.5019;-14.4227;3.4740;-0.6081;0.5809;-0.2165
0000326818;5.5857;-14.5208;3.4788;-0.5905;0.5605;-0.2306
0000326827;5.5498;-14.6214;3.6559;-0.6026;0.5512;-0.2349
0000326839;5.6551;-14.7435;3.4309;-0.6121;0.5272;-0.2493
0000326848;5.5402;-15.0619;3.5530;-0.6159;0.5000;-0.2766
0000326857;5.4755;-15.1744;3.3471;-0.6055;0.4824;-0.2944
0000326870;5.4899;-15.3971;3.4620;-0.5998;0.4466;-0.3272
0000326879;5.5186;-15.5503;3.3734;-0.5933;0.4282;-0.3405
0000326891;5.6479;-15.5264;3.4046;-0.5882;0.3960;-0.3553
0000326900;5.5713;-15.5599;3.1867;-0.5846;0.3685;-0.3592
0000326913;5.4971;-15.7538;3.4165;-0.5702;0.3252;-0.3617
0000326922;5.5689;-15.7634;3.3064;-0.5608;0.3066;-0.3480
0000326934;5.4612;-15.7730;3.3279;-0.5435;0.2747;-0.3243
0000326943;5.3151;-15.6892;3.3255;-0.5403;0.2537;-0.3075
0000327012;5.0685;-15.3851;2.8874;-0.4177;0.0658;-0.2006
0000327021;5.1667;-15.6078;2.9042;-0.4006;0.0356;-0.2234
0000327030;5.1523;-15.5312;2.7533;-0.3705;0.0153;-0.2418
0000327042;5.1188;-15.4953;2.7461;-0.3383;-0.0141;-0.2899
0000327051;5.0996;-15.6581;2.7916;-0.3192;-0.0228;-0.3231
0000327064;5.2098;-15.7419;2.6552;-0.2786;-0.0242;-0.3721
0000327073;5.4803;-15.7682;2.6911;-0.2518;-0.0222;-0.3973
0000327085;5.6862;-15.8831;2.8611;-0.2012;-0.0121;-0.4166
0000327094;5.6527;-16.0172;2.8060;-0.1627;0.0027;-0.4266
0000327107;6.0262;-15.9909;2.9521;-0.1276;0.0481;-0.4183
0000327116;6.0286;-16.2590;3.0478;-0.1014;0.0606;-0.4191
0000327128;6.2082;-15.9023;3.0526;-0.0749;0.0894;-0.4022
0000327137;6.0741;-15.7395;3.0430;-0.0803;0.1206;-0.3772
0000327146;5.9328;-15.5934;2.9497;-0.0993;0.1392;-0.3471
0000327159;5.6216;-15.4306;2.8706;-0.1323;0.1608;-0.2878
0000327168;5.5019;-15.2271;2.8276;-0.1522;0.1588;-0.2590
0000327180;5.1188;-15.3013;2.6983;-0.1693;0.1515;-0.1903
0000327189;4.7836;-15.3660;2.7174;-0.1685;0.1374;-0.1378
0000327202;4.7070;-15.4426;2.6145;-0.1751;0.1059;-0.0701
0000327211;4.5538;-15.6198;2.6193;-0.1888;0.0861;-0.0376
0000327223;4.7692;-15.7131;2.5043;-0.1839;0.0489;-0.0120
0000327232;4.6471;-15.8807;2.4756;-0.1919;0.0457;0.0128
0000327301;5.8107;-16.2782;2.6121;0.0767;0.0982;-0.0360
0000327310;5.7748;-16.1465;2.6528;0.1164;0.1244;-0.0516
0000327319;5.6719;-16.0028;2.7031;0.1287;0.1691;-0.0497
0000327333;5.6336;-15.8209;2.7438;0.1476;0.2294;-0.0476
0000327342;5.6623;-15.5719;2.6121;0.1679;0.2583;-0.0358
0000327355;5.6647;-15.4737;2.7725;0.1827;0.3007;-0.0129
0000327364;5.3079;-15.5910;2.6767;0.2086;0.3194;0.0017
0000327376;5.3271;-15.4761;2.6647;0.2318;0.3409;0.0187
0000327385;5.3463;-15.3636;2.5067;0.2390;0.3493;0.0414
0000327398;5.1834;-15.3133;2.2194;0.2242;0.3616;0.0667
0000327407;5.1787;-15.2870;2.0638;0.2056;0.3657;0.0747
0000327416;5.2984;-15.2870;1.8627;0.1633;0.3797;0.0790
0000327428;5.2361;-15.4570;1.7573;0.1124;0.3837;0.0839
0000327437;5.4085;-15.5527;1.5826;0.0679;0.3884;0.0741
0000327450;5.1787;-15.8736;1.5036;0.0140;0.4029;0.0678
0000327459;5.2481;-16.0076;1.4964;0.0029;0.4134;0.0642
0000327471;5.1882;-16.2399;1.6520;-0.0065;0.4339;0.0609
0000327480;5.2361;-16.4003;1.7071;0.0053;0.4434;0.0518
0000327489;5.2050;-16.4458;1.7621;0.0135;0.4626;0.0588
0000327502;5.1475;-16.6780;1.5682;0.0390;0.4791;0.0405
0000327511;5.1308;-16.7283;1.5634;0.0438;0.4991;0.0308
0000327581;4.7238;-15.5120;1.4174;0.2613;0.3780;-0.0580
0000327590;4.7118;-15.3923;1.5467;0.2380;0.3496;-0.0404
0000327603;4.6136;-15.2104;1.5993;0.1970;0.2940;-0.0237
0000327612;4.4365;-15.1170;1.5060;0.1645;0.2569;-0.0048
0000327624;4.4604;-15.2128;1.4940;0.1176;0.1919;0.0081
0000327633;4.3766;-15.1146;1.4940;0.0819;0.1455;0.0133
0000327642;4.4053;-15.2104;1.3910;0.0476;0.0974;0.0175
0000327655;4.2306;-15.3468;1.4820;0.0125;0.0341;0.0120
0000327664;4.1444;-15.4282;1.3982;0.0004;-0.0144;0.0053
0000327676;4.1420;-15.3229;1.3767;-0.0201;-0.0833;-0.0156
0000327685;4.0749;-15.3564;1.3599;-0.0460;-0.1266;-0.0337
0000327698;4.1492;-15.2966;1.3958;-0.0640;-0.1976;-0.0601
0000327707;4.1037;-15.4091;1.2881;-0.0915;-0.2414;-0.0737
0000327719;4.3838;-15.2439;1.3431;-0.1331;-0.2803;-0.0811
0000327728;4.5226;-15.4402;1.4317;-0.1464;-0.3016;-0.0877
0000327742;4.8794;-15.5456;1.4988;-0.1816;-0.3030;-0.0734
0000327751;5.0637;-15.8376;1.5634;-0.2009;-0.2968;-0.0673
0000327760;5.3822;-16.1680;1.6664;-0.2162;-0.2709;-0.0516
0000327773;5.8155;-16.5056;1.7837;-0.2352;-0.2212;-0.0201
0000327782;6.1316;-16.7379;1.8962;-0.2376;-0.1749;0.0063
0000327794;6.5050;-17.0491;2.1524;-0.2258;-0.1050;0.0425
0000327803;6.3997;-17.3292;2.4349;-0.1990;-0.0546;0.0675
0000327871;5.5258;-16.2040;2.6815;0.0589;0.3668;0.1430
0000327880;5.2577;-15.7945;2.5067;0.0502;0.3849;0.1215
0000327892;4.8147;-15.3947;2.4612;0.0157;0.3816;0.0878
0000327901;4.3934;-15.2630;2.4421;0.0048;0.3556;0.0725
0000327910;4.1396;-15.2966;2.5618;-0.0072;0.3264;0.0560
0000327923;3.7924;-15.2989;2.7078;-0.0056;0.2595;0.0433
0000327932;3.6296;-15.4857;2.8108;-0.0065;0.2144;0.0434
0000327944;3.9121;-15.5120;2.8539;-0.0036;0.1510;0.0330
0000327953;4.0438;-15.6078;2.9544;0.0000;0.1047;0.0175
0000327966;4.4915;-15.5695;3.0957;0.0103;0.0348;-0.0104
0000327975;4.8315;-15.3756;3.1651;0.0076;0.0000;-0.0312
0000327987;5.1068;-15.5432;3.2346;0.0145;-0.0238;-0.0618
0000327996;5.6527;-15.4187;3.4429;0.0195;-0.0272;-0.0763
0000328009;5.9280;-15.5049;3.2322;0.0133;-0.0053;-0.0750
0000328018;6.0956;-15.6940;3.1843;0.0131;0.0222;-0.0624
0000328027;6.3614;-15.6078;3.0311;0.0141;0.0486;-0.0608
0000328039;6.2704;-15.7826;2.9928;0.0253;0.0766;-0.0586
0000328048;6.1124;-15.7084;2.9329;0.0282;0.1094;-0.0610
0000328061;5.7006;-15.8544;3.0382;0.0566;0.1199;-0.0990
0000328070;5.2050;-16.0100;3.0909;0.0642;0.1215;-0.1138
0000328082;4.8866;-15.9430;3.1747;0.0869;0.0935;-0.1360
0000328091;4.6040;-15.7945;3.1819;0.0965;0.0602;-0.1540
0000328160;5.8275;-14.8488;3.5482;-0.0285;-0.1687;-0.0316
0000328169;6.0047;-14.9159;3.6943;-0.0440;-0.1723;-0.0218
0000328178;6.3997;-14.8656;3.7541;-0.0597;-0.1673;-0.0103
0000328190;6.6726;-14.6573;3.8762;-0.0794;-0.1478;0.0104
0000328199;6.9049;-14.4011;3.8595;-0.1003;-0.1230;0.0184
0000328212;6.8474;-14.4059;3.6320;-0.1423;-0.0790;0.0266
0000328221;6.7181;-14.5137;3.3495;-0.1779;-0.0501;0.0270
0000328233;6.5386;-15.0691;3.2322;-0.1989;-0.0088;0.0123
0000328242;6.7947;-15.0140;3.0382;-0.1990;0.0117;0.0048
0000328255;6.4620;-15.5432;3.0311;-0.1871;0.0452;-0.0107
0000328264;6.5457;-15.9406;2.9592;-0.1659;0.0598;-0.0228
0000328276;6.4332;-16.0795;2.8706;-0.1585;0.0962;-0.0276
0000328285;6.5864;-16.1273;2.8132;-0.1452;0.1172;-0.0394
0000328294;6.2824;-16.2662;2.7150;-0.1436;0.1383;-0.0540
0000328307;6.2010;-16.2423;2.7270;-0.1567;0.1573;-0.0810
0000328316;6.0310;-16.0747;2.6097;-0.1749;0.1773;-0.1051
0000328328;5.8083;-15.8472;2.5546;-0.1921;0.1835;-0.1320
0000328337;5.4588;-15.9382;2.5666;-0.2090;0.1933;-0.1302
0000328350;5.6575;-15.5096;2.6911;-0.2398;0.2000;-0.1180
0000328359;5.4827;-15.5599;2.4876;-0.2781;0.1883;-0.1108
0000328371;5.5952;-15.4570;2.3415;-0.3304;0.1745;-0.0899
0000328380;5.7030;-15.3947;2.2410;-0.3563;0.1484;-0.0759
0000328449;5.6407;-16.1106;2.0375;-0.2228;0.0458;-0.0289
0000328458;5.8802;-15.9454;2.0087;-0.1905;0.0434;-0.0409
0000328467;5.9137;-15.8855;1.9896;-0.1632;0.0610;-0.0458
0000328479;6.1459;-15.8640;1.9609;-0.1396;0.0894;-0.0504
0000328488;6.1435;-15.8376;1.9800;-0.1307;0.1179;-0.0472
0000328501;6.5266;-15.7969;2.0111;-0.1154;0.1561;-0.0548
0000328510;6.5505;-16.0364;2.0111;-0.1039;0.1772;-0.0702
0000328522;6.3015;-16.3045;1.8962;-0.0802;0.2096;-0.0723
0000328531;6.4332;-16.0675;1.8914;-0.0510;0.2228;-0.0838
0000328544;6.3207;-15.9957;1.6783;-0.0292;0.2527;-0.0786
0000328553;6.3303;-15.9861;1.6664;-0.0173;0.2714;-0.0798
0000328562;6.2800;-15.7802;1.5083;-0.0172;0.2935;-0.0640
0000328574;6.3710;-15.8281;1.6831;-0.0021;0.3122;-0.0516
0000328583;6.2489;-15.8640;1.5155;-0.0020;0.3263;-0.0396
0000328596;6.2656;-15.7467;1.5538;0.0191;0.3283;-0.0160
0000328605;6.0837;-15.8783;1.4581;0.0349;0.3277;0.0009
0000328617;6.0406;-15.9358;1.3767;0.0565;0.3167;0.0184
0000328626;5.8730;-16.1106;1.3168;0.0790;0.3024;0.0261
0000328639;5.9999;-16.1728;1.2258;0.0842;0.2892;0.0629
0000328648;5.9400;-16.3692;1.2186;0.1009;0.2759;0.0893
0000328657;5.8945;-16.5703;1.1947;0.1480;0.2585;0.1019
0000328669;6.2441;-16.4793;1.3623;0.1792;0.2558;0.1343
0000328678;6.3566;-16.5870;1.3671;0.2008;0.2573;0.1510
0000328747;6.3135;-15.3851;1.3982;0.0400;0.4021;0.0123
0000328756;6.2800;-15.3157;1.5490;0.0099;0.3816;-0.0234
0000328768;6.2345;-15.3109;1.8459;-0.0294;0.3464;-0.0545
0000328777;5.8227;-15.5839;1.7358;-0.0621;0.3102;-0.0698
0000328790;5.3343;-16.0412;1.6448;-0.1116;0.2470;-0.0950
0000328799;5.0374;-16.5032;1.7861;-0.1139;0.1856;-0.1143
0000328808;4.6352;-16.7690;1.9489;-0.0691;0.1142;-0.1308
0000328820;4.2713;-16.8504;2.4301;0.0101;0.0097;-0.1514
0000328829;4.0342;-16.6349;2.3200;0.0552;-0.0437;-0.1577
0000328842;4.0342;-16.2255;2.0853;0.0955;-0.1294;-0.1828
0000328851;4.3527;-15.9190;1.9465;0.1082;-0.1986;-0.2113
0000328863;4.5322;-16.2471;2.1644;0.0874;-0.2907;-0.2531
0000328872;5.0781;-16.4577;2.2194;0.0486;-0.3256;-0.2411
0000328885;5.4468;-17.0108;2.4732;0.0113;-0.3440;-0.2057
0000328894;5.6479;-17.2143;2.5187;0.0077;-0.3164;-0.1632
0000328906;5.7868;-17.3795;2.4493;0.0296;-0.2880;-0.1543
0000328915;5.7940;-17.0419;2.2434;0.0617;-0.2670;-0.1767
0000328924;5.9568;-16.8288;2.1069;0.0834;-0.2380;-0.2022
0000328937;6.1004;-16.6660;2.0111;0.1327;-0.1974;-0.2525
0000328946;6.1962;-16.3620;1.9082;0.1583;-0.1533;-0.2811
0000328958;6.3327;-16.2973;2.1117;0.1863;-0.0849;-0.3168
0000328967;6.2608;-16.3165;2.2865;0.2292;-0.0386;-0.3448
0000329036;5.6024;-14.7411;3.4069;0.5694;0.4876;-0.4647
0000329045;5.6671;-14.4682;3.2513;0.5316;0.5448;-0.4974
0000329057;5.9448;-14.0228;3.2298;0.4426;0.6149;-0.5171
0000329066;5.7868;-14.1162;3.0694;0.3833;0.6670;-0.5219
0000329079;5.5952;-14.1066;3.1053;0.2986;0.7135;-0.4956
0000329088;5.0278;-14.6262;3.0789;0.2539;0.7298;-0.4618
0000329097;4.5322;-14.9685;3.0454;0.2074;0.7384;-0.4061
0000329109;4.2808;-15.4953;2.9257;0.1747;0.7172;-0.3132
0000329118;3.7661;-15.9574;2.9592;0.1651;0.6860;-0.2316
0000329131;3.7397;-16.3620;2.8323;0.1506;0.6370;-0.1027
0000329140;3.7158;-16.7522;2.7869;0.1374;0.6050;-0.0156
0000329152;3.9792;-16.3979;2.6863;0.1323;0.5602;0.0644
0000329161;4.0079;-16.1393;2.5498;0.1218;0.5363;0.1074
0000329174;4.1252;-15.7227;2.5474;0.1092;0.5049;0.1339
0000329183;4.1659;-15.3684;2.5331;0.1005;0.4888;0.1432
0000329192;4.0941;-15.3660;2.6145;0.0925;0.4703;0.1459
0000329203;4.2449;-15.2463;2.5953;0.0871;0.4576;0.1244
0000329212;4.3910;-15.3157;2.5905;0.0818;0.4598;0.1154
0000329226;4.8004;-15.3229;2.6504;0.0954;0.4668;0.0881
0000329235;4.9009;-15.3995;2.6360;0.1111;0.4863;0.0665
0000329304;4.5849;-15.4139;2.4636;0.2200;0.6222;-0.1468
0000329313;4.4867;-15.4522;2.5019;0.2158;0.6121;-0.1720
0000329322;4.4365;-15.5910;2.5762;0.2130;0.5891;-0.1872
0000329334;4.3191;-15.5719;2.5522;0.1972;0.5598;-0.2125
0000329343;4.3455;-15.5216;2.4636;0.1892;0.5347;-0.2126
0000329356;4.3622;-15.4857;2.4325;0.1693;0.4940;-0.2248
0000329365;4.3646;-15.4594;2.4469;0.1584;0.4675;-0.2361
0000329377;4.5346;-15.5120;2.4660;0.1565;0.4473;-0.2430
0000329386;4.3455;-15.7323;2.4038;0.1605;0.4242;-0.2583
0000329399;4.2784;-15.6629;2.3774;0.1704;0.4080;-0.2702
0000329408;4.4149;-15.6389;2.4804;0.1827;0.3908;-0.2799
0000329417;4.3000;-15.8568;2.4828;0.1764;0.3824;-0.2867
0000329429;4.5705;-15.4737;2.2170;0.1697;0.3633;-0.3028
0000329438;4.5226;-15.4306;2.3128;0.1580;0.3388;-0.3228
0000329451;4.4604;-15.2750;2.1476;0.1172;0.3088;-0.3553
0000329460;4.5250;-15.4019;2.0327;0.0774;0.2912;-0.3774
0000329472;4.4245;-15.2295;1.9848;0.0337;0.2641;-0.4187
0000329481;4.5442;-15.2702;2.0518;-0.0059;0.2509;-0.4277
0000329494;4.6328;-15.4115;1.9106;-0.0436;0.2216;-0.4534
0000329503;4.8674;-15.4713;1.7526;-0.0604;0.2074;-0.4426
0000329515;5.1763;-15.5671;1.7909;-0.0713;0.1881;-0.4299
0000329524;5.6527;-15.3612;1.6975;-0.0961;0.1966;-0.4002
0000329533;5.9855;-15.2391;1.7310;-0.1310;0.2012;-0.3657
0000329602;5.1068;-16.3716;2.1021;-0.4342;0.3941;-0.2590
0000329611;4.9560;-17.3484;2.6887;-0.4072;0.4538;-0.2534
0000329623;5.2984;-18.8352;2.8730;-0.3521;0.5638;-0.2214
0000329632;5.6096;-19.4744;2.6959;-0.3114;0.6652;-0.2106
0000329645;5.9616;-19.9676;2.6815;-0.1986;0.7715;-0.2587
0000329654;5.9304;-19.6875;2.6456;-0.1059;0.8178;-0.3276
0000329666;5.7437;-18.3875;2.5211;-0.0268;0.8460;-0.4193
0000329675;5.1236;-17.4537;2.6743;-0.0211;0.8600;-0.4465
0000329684;4.5442;-16.7163;2.8994;-0.0533;0.8503;-0.4434
0000329697;3.9121;-15.7898;3.2178;-0.1022;0.7922;-0.4094
0000329706;3.5051;-15.5120;3.5003;-0.1388;0.7261;-0.3685
0000329718;2.9808;-14.9398;3.9289;-0.1683;0.6158;-0.2864
0000329727;2.8730;-14.5496;4.0701;-0.1808;0.5217;-0.2165
0000329740;3.1077;-13.9773;4.0414;-0.1828;0.4044;-0.1191
0000329749;3.5051;-13.8265;4.0821;-0.1724;0.3365;-0.0842
0000329761;4.7621;-13.7595;4.1994;-0.1356;0.2836;-0.0781
0000329770;5.7317;-13.9247;4.2210;-0.0973;0.2786;-0.1085
0000329783;6.8977;-14.3820;4.1348;-0.0624;0.3126;-0.1629
0000329792;7.6614;-14.6190;4.0725;-0.0362;0.3726;-0.2064
0000329801;8.0397;-15.2247;4.0677;-0.0270;0.4694;-0.2426
0000329813;8.2145;-15.7802;3.9025;-0.0197;0.6151;-0.2798
0000329822;8.3486;-15.8688;3.7493;-0.0077;0.7321;-0.2839
0000329891;5.0326;-15.7850;3.2010;-0.0107;0.9892;-0.5629
0000329900;4.7357;-15.6916;3.1532;-0.0161;0.9353;-0.5708
0000329912;4.7166;-15.6078;3.2058;-0.0121;0.8472;-0.5626
0000329921;5.0374;-15.5264;3.0885;-0.0035;0.7830;-0.5457
0000329934;5.4612;-15.3564;3.0215;0.0015;0.7175;-0.5103
0000329943;6.0142;-15.2319;3.0335;0.0061;0.6892;-0.4847
0000329955;6.8522;-15.0380;3.0574;0.0131;0.6848;-0.4616
0000329964;7.1132;-15.2654;2.9712;0.0051;0.6969;-0.4547
0000329973;7.2520;-15.3660;2.9497;-0.0140;0.7296;-0.4409
0000329986;7.6710;-15.3660;2.6145;-0.0556;0.7754;-0.4451
0000329995;7.5920;-15.6988;2.4325;-0.0657;0.8216;-0.4451
0000330007;7.4747;-15.9167;2.0949;-0.0741;0.8748;-0.4475
0000330016;7.2496;-16.3285;1.9513;-0.0779;0.9213;-0.4513
0000330029;6.7804;-16.6972;2.0470;-0.0365;0.9713;-0.4642
0000330038;6.8331;-16.8025;2.0662;0.0001;1.0011;-0.4779
0000330050;6.4428;-16.9773;2.2314;0.0659;1.0187;-0.5013
0000330059;6.3255;-16.8432;2.2075;0.1091;1.0227;-0.5253
0000330068;6.2632;-16.2590;2.2434;0.1290;1.0235;-0.5396
0000330081;6.0885;-15.7515;2.2338;0.1174;1.0124;-0.5666
0000330090;6.0166;-15.3588;2.0494;0.0778;0.9988;-0.5681
0000330102;5.9185;-15.1361;2.2051;0.0221;0.9669;-0.5718
0000330111;5.8849;-15.1433;2.2051;-0.0221;0.9280;-0.5730
0000330180;6.3470;-15.1673;1.4006;-0.4647;0.6891;-0.4554
0000330189;6.7109;-15.1146;1.1779;-0.5119;0.6997;-0.4227
0000330201;6.9480;-15.4522;0.9577;-0.5458;0.7506;-0.3535
0000330210;6.9743;-15.5120;0.7542;-0.5601;0.8188;-0.2809
0000330223;7.0868;-15.9621;0.6776;-0.5721;0.9280;-0.2018
0000330232;7.0102;-16.3045;0.7063;-0.5592;1.0090;-0.1727
0000330241;7.0940;-16.5368;0.8763;-0.5117;1.0925;-0.1426
0000330253;6.7900;-17.3460;1.7669;-0.3718;1.1834;-0.1298
0000330262;6.8690;-17.6022;2.8036;-0.2194;1.2392;-0.1533
0000330275;6.4787;-17.8631;3.4261;0.0128;1.2592;-0.2898
0000330284;5.7413;-17.6429;3.4213;0.1166;1.2297;-0.4181
0000330296;4.5753;-17.3604;3.3639;0.1709;1.1445;-0.5425
0000330305;3.9528;-16.9988;3.3303;0.1692;1.0512;-0.5975
0000330318;4.2425;-16.4841;3.3878;0.0879;0.9355;-0.5798
0000330327;4.4556;-16.5607;3.2537;-0.0003;0.8528;-0.5108
0000330336;4.8937;-16.4170;3.4093;-0.0815;0.7801;-0.4310
0000330348;5.8538;-16.4027;3.3279;-0.1226;0.7241;-0.3176
0000330357;6.2034;-16.6277;3.3519;-0.0821;0.7113;-0.2586
0000330370;6.8881;-16.6038;3.4261;-0.0111;0.7512;-0.2009
0000330379;7.1228;-16.6469;3.1891;0.0424;0.8148;-0.1621
0000330391;7.5369;-16.3859;3.1675;0.1370;0.9108;-0.1499
0000330400;7.6998;-16.2399;3.0406;0.1896;0.9951;-0.1479
0000330469;4.6448;-14.9039;2.6121;0.3750;1.3406;-0.0898
0000330478;4.2377;-15.1816;2.6767;0.3953;1.2897;-0.0814
0000330490;4.0031;-15.3516;2.5833;0.4321;1.1855;-0.0827
0000330499;3.4812;-15.7586;2.5786;0.4349;1.0925;-0.0683
0000330508;3.4836;-15.8281;2.6528;0.4446;0.9900;-0.0462
0000330521;3.4165;-16.0268;2.6145;0.4509;0.8395;0.0049
0000330530;3.7972;-15.8760;2.5211;0.4461;0.7530;0.0486
0000330542;4.0917;-15.8329;2.3607;0.4317;0.6516;0.0982
0000330551;4.4628;-15.8616;2.3439;0.4218;0.5978;0.1256
0000330564;5.1715;-15.6030;2.4565;0.4026;0.5736;0.1616
0000330573;5.3582;-15.7155;2.3894;0.3794;0.5830;0.1797
0000330582;5.8466;-15.5264;2.3487;0.3679;0.6111;0.1756
0000330594;5.9711;-15.7012;2.4804;0.3660;0.6582;0.1653
0000330603;6.2584;-15.5527;2.3487;0.3732;0.7129;0.1651
0000330616;6.1842;-15.6533;2.5953;0.3921;0.8042;0.1394
0000330625;6.1914;-15.4594;2.4876;0.4132;0.8716;0.1102
0000330637;6.0621;-15.2822;2.2721;0.4120;0.9738;0.0797
0000330646;5.8299;-15.1673;2.3367;0.4022;1.0459;0.0486
0000330660;5.8179;-15.0140;2.2913;0.3664;1.1478;-0.0117
0000330669;5.5593;-15.1409;2.1883;0.3347;1.2091;-0.0424
0000330678;5.1954;-15.1601;2.2218;0.3150;1.2576;-0.0823
0000330691;4.9009;-15.2654;2.1931;0.3072;1.3117;-0.1202
0000330700;4.7190;-15.3229;2.2338;0.2995;1.3319;-0.1432
0000330770;3.6152;-15.2032;2.0423;0.1928;1.1237;-0.4261
0000330779;3.9552;-15.1266;2.0470;0.1701;1.0858;-0.4327
0000330792;3.8403;-15.1888;1.9249;0.1192;1.0369;-0.4335
0000330801;4.3191;-14.8919;1.8100;0.0906;0.9918;-0.4371
0000330813;4.4101;-14.7842;1.5993;0.0290;0.9447;-0.4251
0000330822;4.3622;-14.6789;1.4006;-0.0264;0.9110;-0.4221
0000330831;4.5346;-14.5400;1.3144;-0.0978;0.8792;-0.4151
0000330844;4.7190;-14.1473;0.9697;-0.2060;0.8292;-0.4391
0000330853;4.7692;-14.2814;0.9026;-0.2766;0.7850;-0.4702
0000330865;4.9632;-14.2790;1.0750;-0.3503;0.7353;-0.5237
0000330874;4.7836;-14.9590;2.1476;-0.3481;0.7167;-0.5593
0000330887;4.2713;-16.2614;4.1156;-0.2571;0.7767;-0.5315
0000330896;4.5035;-17.6165;5.1954;-0.1724;0.8965;-0.4482
0000330908;5.5785;-18.9405;4.6184;-0.1775;1.1058;-0.3547
0000330917;6.9911;-19.5630;3.8906;-0.2288;1.2404;-0.3248
0000330930;8.9352;-19.3811;2.9377;-0.2871;1.3654;-0.3288
0000330939;8.4946;-18.5766;2.4062;-0.2789;1.4615;-0.3789
0000330948;7.3574;-17.5758;2.6576;-0.2553;1.5641;-0.4513
0000330960;5.4444;-16.5439;2.8611;-0.2230;1.6635;-0.5438
0000330969;4.1899;-16.1944;2.9281;-0.2001;1.6870;-0.5812
0000330982;3.1867;-15.7898;3.3040;-0.1343;1.6166;-0.5934
0000330991;2.7749;-15.6533;3.4979;-0.0637;1.5200;-0.5816
0000331061;6.3710;-14.4849;3.6464;0.0015;1.0086;-0.4775
0000331070;6.6798;-15.0523;3.3998;-0.0116;1.0774;-0.4827
0000331083;7.2832;-15.7802;3.1436;-0.0292;1.2068;-0.5552
0000331092;7.3957;-16.1130;2.9353;-0.0394;1.2855;-0.6363
0000331101;6.9384;-16.5655;2.8898;-0.0470;1.3680;-0.6965
0000331113;6.5697;-16.4482;2.8132;-0.0398;1.4370;-0.7582
0000331122;5.7940;-16.3380;2.7102;-0.0516;1.4679;-0.7691
0000331135;5.2864;-15.9550;2.4948;-0.0921;1.4564;-0.7883
0000331144;4.6855;-15.8376;2.4924;-0.1190;1.4182;-0.8018
0000331156;4.1444;-15.7922;2.4565;-0.1396;1.3400;-0.7943
0000331165;3.9720;-15.8712;2.6336;-0.1268;1.2793;-0.7767
0000331178;3.8618;-15.9478;2.6001;-0.0806;1.1787;-0.7428
0000331187;4.2234;-15.9406;2.7294;-0.0352;1.1151;-0.7272
0000331199;4.9608;-15.5719;2.5331;0.0163;1.0581;-0.7025
0000331208;5.5282;-15.3468;2.5570;0.0302;1.0351;-0.6759
0000331217;6.1148;-15.1577;2.4301;0.0298;1.0315;-0.6562
0000331230;6.6583;-15.1864;2.4541;0.0165;1.0593;-0.6297
0000331239;6.8259;-15.2606;2.3056;0.0087;1.0870;-0.6169
0000331251;7.1443;-15.4881;2.2458;-0.0132;1.1422;-0.5922
0000331260;7.2449;-15.8472;2.2936;-0.0252;1.1826;-0.5756
0000331273;6.8690;-16.2566;2.4062;0.0143;1.2023;-0.5722
0000331282;6.6008;-16.4913;2.4493;0.0614;1.1976;-0.5648
0000331352;3.7062;-14.5831;2.6288;0.2641;0.6396;-0.6095
0000331361;4.1755;-14.7483;2.7054;0.2312;0.5676;-0.6338
0000331370;4.6064;-14.6549;2.4972;0.1887;0.5096;-0.6514
0000331383;5.5522;-15.1505;2.5307;0.1275;0.4672;-0.6683
0000331392;6.0645;-15.3660;2.4900;0.0823;0.4543;-0.6765
0000331404;6.4236;-16.0340;2.3056;0.0253;0.4639;-0.6742
0000331413;6.6631;-16.4865;2.1261;-0.0207;0.4947;-0.6483
0000331426;6.6942;-16.7163;1.9609;-0.0521;0.5388;-0.5943
0000331435;6.6248;-17.0994;1.6305;-0.0605;0.5654;-0.5601
0000331447;6.6272;-17.1233;1.4988;-0.0421;0.6117;-0.4974
0000331456;6.6774;-17.1688;1.3599;-0.0125;0.6474;-0.4525
0000331469;6.4141;-17.1808;1.2210;0.0626;0.7023;-0.3888
0000331478;6.3279;-17.2478;1.2905;0.1188;0.7497;-0.3544
0000331487;6.2489;-17.0060;1.3671;0.1831;0.7877;-0.3210
0000331499;6.1076;-16.5607;1.3096;0.2470;0.8472;-0.3038
0000331508;6.1100;-16.2087;1.3695;0.2687;0.8827;-0.3011
0000331521;6.3949;-15.6629;1.2067;0.2657;0.9198;-0.3151
0000331530;6.4308;-15.4043;1.1923;0.2393;0.9443;-0.3325
0000331542;6.4691;-15.2223;1.1660;0.1875;0.9852;-0.3484
0000331551;6.7181;-15.1936;1.1851;0.1487;1.0241;-0.3581
0000331564;6.7373;-15.1050;1.0678;0.0963;1.0781;-0.3706
0000331573;6.7253;-15.0835;1.0439;0.0813;1.1147;-0.3966
0000331582;6.5505;-15.2870;1.0223;0.0774;1.1402;-0.4205
0000331652;2.3750;-17.4106;2.2338;0.6407;0.3567;-0.5004
0000331661;1.7214;-17.1497;2.3822;0.7095;0.1552;-0.4427
0000331674;0.8356;-16.5727;2.4828;0.7406;-0.1339;-0.3797
0000331683;0.5866;-16.1034;2.4804;0.7214;-0.3208;-0.3579
0000331695;1.5921;-15.1361;2.7509;0.6628;-0.5518;-0.3655
0000331704;2.7126;-14.8153;2.9616;0.5905;-0.6783;-0.3832
0000331717;4.6831;-14.3772;3.6296;0.4871;-0.7898;-0.4073
0000331726;6.2393;-14.5376;3.9887;0.4445;-0.8059;-0.4163
0000331735;7.3191;-14.9015;4.7333;0.4214;-0.7717;-0.4249
0000331747;8.5712;-15.5575;5.5043;0.4458;-0.6867;-0.4301
0000331756;9.2464;-15.7850;5.9903;0.5096;-0.6127;-0.4266
0000331769;9.5936;-15.0595;6.1651;0.5993;-0.4754;-0.3968
0000331778;9.3111;-14.0947;6.2465;0.6560;-0.3833;-0.3828
0000331790;8.8992;-12.7898;6.3279;0.6941;-0.2771;-0.3472
0000331799;8.2001;-11.8561;6.3710;0.7124;-0.2205;-0.3074
0000331812;7.2137;-10.9654;6.4045;0.7171;-0.1889;-0.1980
0000331821;6.6008;-10.3813;5.9089;0.6877;-0.1903;-0.1071
0000331833;5.9185;-10.1251;5.1930;0.6552;-0.2589;-0.0113
0000331842;5.0566;-10.2065;5.0494;0.6346;-0.3336;0.0175
0000331851;4.4724;-10.4483;4.6998;0.5582;-0.3964;0.0272
0000331864;4.0175;-10.9247;4.5203;0.4311;-0.5168;-0.0264
0000331873;3.9504;-11.3078;4.4412;0.3222;-0.5753;-0.0867
0000331942;8.9974;-13.5129;5.2385;0.7512;-0.2805;-0.5934
0000331951;9.4810;-12.7994;5.0494;0.7647;-0.1510;-0.6311
0000331964;9.4619;-12.0213;4.5873;0.6753;0.0568;-0.6618
0000331973;9.5265;-11.6478;4.1731;0.6011;0.1831;-0.6711
0000331985;9.5050;-11.3796;4.1252;0.5207;0.3517;-0.6636
0000331994;9.2129;-11.3749;4.2665;0.4794;0.4600;-0.6241
0000332007;8.5521;-11.1690;4.5107;0.4219;0.5677;-0.5709
0000332016;7.8793;-11.2288;4.8530;0.3981;0.5949;-0.5383
0000332025;6.7373;-11.3413;4.2282;0.3168;0.6149;-0.4899
0000332037;5.2720;-11.1091;3.0335;0.1593;0.6107;-0.4182
0000332046;4.4939;-11.4060;2.5474;0.0970;0.5915;-0.3468
0000332059;4.2018;-11.9566;2.1763;0.0727;0.5265;-0.2974
0000332068;4.3407;-12.4091;2.1452;0.1547;0.4413;-0.3103
0000332080;5.0087;-12.9454;2.5067;0.3107;0.3127;-0.3251
0000332089;5.7221;-13.2232;2.8946;0.4370;0.2344;-0.3361
0000332102;6.3590;-13.2878;3.5362;0.5921;0.1050;-0.3549
0000332111;6.5050;-12.8640;4.0031;0.6344;0.0211;-0.3564
0000332120;6.1794;-12.2942;4.0438;0.6066;-0.0400;-0.3268
0000332132;5.1547;-11.3198;3.1580;0.4319;-0.1018;-0.2558
0000332141;4.3670;-10.7955;3.2465;0.3320;-0.1400;-0.2072
0000332155;3.4548;-10.9008;3.2872;0.1267;-0.2164;-0.2361
0000332164;3.5338;-11.3389;3.0526;-0.0117;-0.3090;-0.3643
0000332233;6.6224;-13.5632;0.0551;-0.5693;-0.4586;-0.7324
0000332242;6.1363;-14.4155;0.8164;-0.6153;-0.4778;-0.7886
0000332254;5.9065;-15.4785;3.4620;-0.3944;-0.4413;-0.9017
0000332263;5.9999;-16.2087;4.2042;-0.1955;-0.4234;-1.0127
0000332276;7.4484;-16.5703;5.2792;0.2204;-0.4855;-1.1980
0000332285;8.7077;-16.4984;5.0973;0.4735;-0.5139;-1.2724
0000332294;9.8904;-15.9981;4.8626;0.5873;-0.5562;-1.2866
0000332306;10.4770;-15.6078;4.4388;0.5267;-0.6121;-1.1876
0000332315;10.2999;-15.2032;4.0749;0.4880;-0.6173;-1.0224
0000332328;9.1482;-14.3700;4.2784;0.5725;-0.6151;-0.7918
0000332337;8.5090;-13.4865;4.3646;0.6527;-0.6352;-0.7842
0000332349;8.5329;-12.3325;5.8227;0.7024;-0.7697;-0.9782
0000332358;8.5114;-12.0859;5.7413;0.5235;-0.9453;-1.3038
0000332371;8.3175;-12.0500;6.2680;0.0827;-1.1906;-1.7945
0000332380;8.0876;-13.1298;7.0006;-0.2634;-1.3506;-2.1208
0000332392;7.9559;-17.6165;7.6231;-0.7292;-1.4318;-2.4590
0000332401;8.3773;-20.8511;7.8841;-0.7570;-1.4529;-2.6099
0000332410;9.2871;-23.2549;7.7692;-0.5251;-1.4532;-2.7173
0000332423;9.8881;-25.8981;7.9152;0.0221;-1.5005;-2.7921
0000332432;9.2344;-26.2596;8.3390;0.5009;-1.5294;-2.8236
0000332444;7.3095;-24.3778;8.5665;1.0580;-1.6134;-2.9459
0000332453;6.1746;-21.6220;7.9871;1.3165;-1.7000;-3.0822
0000332522;15.8185;-17.6788;18.6844;4.3656;-2.0375;-4.1729
0000332531;23.7074;-18.2558;21.2126;4.3656;-2.7847;-4.3657
0000332543;34.9266;-9.4906;12.3445;4.3656;-3.9704;-4.3657
0000332552;32.1015;1.7789;12.4187;3.6310;-4.3657;-3.8083
0000332565;19.4984;5.8658;4.3958;1.5517;-3.6107;-2.1180
0000332574;16.6948;2.7222;1.9489;0.5641;-3.2456;-1.2654
0000332583;17.8320;1.8794;1.5107;0.1374;-2.7720;-0.7726
0000332595;21.6172;-0.3759;1.7310;0.2004;-1.9782;-0.6223
0000332604;24.0641;-0.0694;3.3758;0.7974;-1.3423;-0.6833
0000332617;27.6291;1.5395;0.8164;1.4261;-0.6522;-0.5228
0000332626;29.5373;3.1963;0.0838;0.9618;-0.3171;-0.0357
0000332638;29.5468;4.3455;1.2665;-0.2258;0.2662;0.7304
0000332647;28.1438;3.8858;1.5012;-0.9419;0.7572;0.9309
0000332660;20.8966;1.5538;1.9609;-1.4561;1.4365;0.7172
0000332669;15.0883;0.1532;1.6017;-1.5238;1.5912;0.5183
0000332678;10.5177;-0.7518;0.9002;-1.4942;1.2494;0.3078
0000332690;6.4763;-1.5682;0.6297;-1.3614;0.5612;0.0646
0000332699;4.8674;-2.4445;0.1867;-1.2300;0.0803;-0.0933
0000332712;4.2856;-3.6488;0.0670;-1.0268;-0.5337;-0.3400
0000332721;4.1013;-4.0797;0.2562;-0.8260;-0.9462;-0.5157
0000332733;4.3503;-4.0941;-0.1125;-0.6638;-1.5275;-0.7809
0000332742;4.3072;-4.4556;-0.5938;-0.5897;-1.9313;-0.9810
0000332810;29.7049;-0.7925;-4.3167;-0.5701;-3.5471;-2.0924
0000332819;45.6167;1.3575;-4.8937;-0.2165;-3.4344;-2.6175
0000332831;57.2717;0.5004;-9.2680;-0.4711;-4.3657;-3.1644
0000332840;33.3656;0.0503;-10.9702;-1.2769;-4.3657;-2.4411
0000332849;19.4744;3.2872;-3.5219;-1.4137;-3.3477;-1.7066
0000332862;9.2871;3.6990;-7.3717;-0.8427;-0.6522;-0.3528
0000332871;10.1754;4.0390;-10.2232;-0.7917;-0.1460;0.7209
0000332883;17.7195;1.4916;-10.5058;-1.3150;0.0727;1.4661
0000332892;19.2637;-0.9194;-9.2871;-1.6269;0.2983;1.6651
0000332905;17.1880;-3.7397;-6.5505;-1.7660;0.5609;1.7962
0000332914;15.7730;-4.6519;-5.6192;-1.7123;0.5893;1.7569
0000332926;14.1641;-5.7676;-5.1715;-1.5355;0.4525;1.5652
0000332935;13.0676;-6.5338;-5.0805;-1.4093;0.2919;1.4373
0000332948;12.8257;-7.2161;-4.7525;-1.2476;0.0789;1.3075
0000332957;13.0005;-7.6830;-4.3574;-1.1748;-0.0582;1.2524
0000332966;13.7595;-7.9104;-3.7613;-1.1206;-0.1231;1.2200
0000332978;15.5264;-8.5018;-2.7581;-0.9413;-0.1296;1.1177
0000332987;16.4290;-8.5808;-2.7366;-0.7903;-0.0865;1.0268
0000333000;17.4298;-8.3103;-2.7222;-0.6198;0.0077;0.9137
0000333009;17.3604;-8.4084;-2.9185;-0.5388;0.1195;0.8783
0000333021;17.3819;-8.0421;-3.3399;-0.4687;0.2619;0.8324
0000333030;17.3819;-8.2935;-3.3112;-0.4479;0.3421;0.8055
0000333099;16.2351;-9.0740;-1.3168;0.2141;0.4511;0.3439
0000333108;16.4673;-8.8083;-1.3743;0.2809;0.4382;0.2483
0000333120;16.4003;-8.7053;-1.5083;0.3143;0.4497;0.1290
0000333129;16.4721;-8.3246;-1.3838;0.3251;0.4867;0.0679
0000333138;16.8863;-8.0302;-1.1013;0.3541;0.5308;0.0508
0000333151;17.0635;-7.8243;-0.7590;0.4060;0.6169;0.0685
0000333160;17.2718;-7.5298;-0.6536;0.3773;0.6856;0.1184
0000333172;17.3699;-7.3502;-0.4932;0.3269;0.7627;0.1523
0000333181;16.9102;-7.1156;-0.7638;0.2278;0.7919;0.1832
0000333194;16.7020;-7.0318;-0.1652;0.1147;0.8030;0.1992
0000333203;16.5990;-7.2281;-0.0263;0.0183;0.7955;0.1941
0000333215;16.3332;-7.1635;-0.1460;-0.0867;0.7496;0.1709
0000333224;15.9550;-7.5154;0.1197;-0.1315;0.7020;0.1601
0000333233;15.7036;-7.6231;0.4022;-0.1572;0.6536;0.1579
0000333246;15.3899;-7.8410;0.6057;-0.1663;0.5680;0.1572
0000333255;15.5264;-8.2121;0.6752;-0.1605;0.5200;0.1427
0000333267;15.6772;-8.0278;0.6728;-0.1661;0.4591;0.1274
0000333276;15.4067;-8.2552;0.7374;-0.1719;0.4303;0.0999
0000333289;15.7323;-8.4467;0.7087;-0.1913;0.3842;0.0429
0000333298;15.5575;-8.6981;0.9122;-0.1940;0.3512;0.0043
0000333310;15.9334;-8.5712;0.8739;-0.1877;0.3032;-0.0594
0000333319;16.0914;-8.5545;1.0032;-0.1843;0.2759;-0.0885
0000333328;16.1465;-8.3797;0.9505;-0.1661;0.2415;-0.1057
0000333397;15.9693;-7.8075;0.6153;-0.0925;0.0007;-0.1318
0000333406;15.9885;-7.8530;0.6704;-0.0935;-0.0257;-0.1247
0000333418;15.9214;-7.9224;0.4046;-0.0925;-0.0496;-0.1168
0000333427;15.9190;-7.8003;0.3400;-0.0975;-0.0673;-0.1031
0000333440;16.1633;-7.7644;0.2849;-0.0873;-0.0778;-0.0982
0000333449;16.3763;-7.8314;0.2705;-0.0613;-0.0854;-0.0914
0000333461;16.3620;-7.8506;0.0862;-0.0566;-0.0717;-0.0847
0000333470;16.4841;-7.6231;0.1245;-0.0625;-0.0698;-0.0819
0000333483;16.3859;-7.6758;0.1820;-0.0605;-0.0568;-0.0793
0000333492;16.2135;-7.9631;0.1173;-0.0636;-0.0477;-0.0723
0000333504;16.1034;-7.8841;0.1317;-0.0629;-0.0350;-0.0670
0000333513;16.4123;-7.8075;0.1053;-0.0456;-0.0213;-0.0626
0000333522;16.2518;-7.7524;0.1365;-0.0292;-0.0250;-0.0645
0000333535;16.6517;-7.6399;0.1173;-0.0147;-0.0160;-0.0512
0000333544;16.6062;-7.6543;0.1484;-0.0097;-0.0011;-0.0412
0000333556;16.6948;-7.5968;0.1915;0.0032;0.0107;-0.0226
0000333565;16.3093;-7.7596;0.1341;0.0237;0.0172;-0.0085
0000333579;16.6301;-7.6662;0.1437;0.0241;0.0382;0.0168
0000333588;16.5846;-7.5250;0.1700;0.0278;0.0358;0.0200
0000333657;16.4266;-7.6806;0.7590;0.0181;0.0453;0.0024
0000333666;16.3237;-7.6399;0.9457;0.0152;0.0028;0.0012
0000333675;16.1992;-7.6303;0.9625;-0.0044;-0.0413;0.0053
0000333687;16.0651;-7.6088;0.7805;-0.0340;-0.1085;0.0064
0000333696;15.9454;-7.5010;0.6153;-0.0470;-0.1452;0.0200
0000333709;15.7634;-7.6064;0.2801;-0.0749;-0.1671;0.0572
0000333718;15.8975;-7.2880;0.0383;-0.0949;-0.1619;0.0733
0000333730;16.1393;-7.4699;-0.1532;-0.1156;-0.1164;0.0975
0000333739;16.3380;-7.6614;-0.2035;-0.1386;-0.0734;0.1092
0000333752;16.6924;-8.1187;0.0527;-0.1537;-0.0321;0.0901
0000333761;16.6062;-8.3534;0.1844;-0.1516;-0.0153;0.0558
0000333773;16.2590;-8.8083;0.2059;-0.0930;0.0063;0.0135
0000333782;16.3931;-8.8035;0.0790;-0.0252;0.0258;-0.0309
0000333791;16.3404;-8.7652;0.1293;0.0390;0.0572;-0.0699
0000333804;16.1824;-8.5042;0.3472;0.1063;0.0722;-0.1248
0000333813;16.3165;-8.1092;0.4190;0.1206;0.0693;-0.1459
0000333825;16.5751;-7.5992;0.6632;0.1223;0.0306;-0.1527
0000333834;16.5128;-7.3023;0.7015;0.1131;-0.0109;-0.1455
0000333847;16.5703;-7.2401;0.5124;0.0847;-0.0476;-0.0915
0000333856;16.4266;-7.0844;0.3926;0.0574;-0.0538;-0.0464
0000333868;16.3524;-6.9240;0.1125;0.0043;-0.0549;0.0171
0000333877;16.2782;-7.1850;0.0120;-0.0308;-0.0490;0.0418
0000333946;16.3189;-8.0517;0.3639;0.0397;0.0073;-0.0530
0000333955;16.4123;-7.9392;0.2107;0.0457;0.0152;-0.0624
0000333964;16.3452;-7.8338;0.3831;0.0457;0.0147;-0.0741
0000333976;16.5559;-7.4819;0.6536;0.0256;0.0023;-0.0750
0000333985;16.2686;-7.5872;0.7207;0.0084;-0.0233;-0.0739
0000333998;16.4123;-7.5896;0.6153;-0.0068;-0.0653;-0.0600
0000334007;16.3500;-7.3741;0.5626;-0.0180;-0.0874;-0.0432
0000334019;16.0842;-7.4412;0.3855;-0.0400;-0.0923;-0.0104
0000334028;16.1058;-7.4819;0.1748;-0.0520;-0.0933;0.0140
0000334041;16.0292;-7.6519;0.2035;-0.0634;-0.0745;0.0330
0000334050;16.3165;-7.7261;0.1844;-0.0785;-0.0533;0.0361
0000334062;16.3883;-7.9152;0.2897;-0.0661;-0.0393;0.0293
0000334071;16.4458;-8.0661;0.2370;-0.0430;-0.0369;0.0103
0000334080;16.4146;-8.2001;0.3567;-0.0246;-0.0292;0.0028
0000334093;16.2662;-8.0948;0.3232;0.0161;-0.0252;-0.0292
0000334102;16.1992;-7.9823;0.3017;0.0177;-0.0163;-0.0314
0000334114;16.2782;-7.8841;0.3017;0.0073;-0.0076;-0.0448
0000334123;16.2279;-7.9583;0.2945;0.0068;-0.0108;-0.0532
0000334136;16.1633;-7.8745;0.1484;0.0088;0.0055;-0.0560
0000334145;16.2710;-8.0541;0.2729;0.0149;0.0284;-0.0492
0000334157;16.4601;-7.8314;0.2801;0.0336;0.0393;-0.0569
0000334166;16.5798;-7.7428;0.5315;0.0369;0.0466;-0.0605
0000334175;16.3356;-7.7117;0.6297;0.0493;0.0199;-0.0727
0000334244;16.1872;-7.7835;0.3160;-0.0717;-0.0376;0.0489
0000334253;16.3428;-7.8506;0.2825;-0.0733;-0.0199;0.0512
0000334265;16.3189;-8.1307;0.3831;-0.0592;-0.0147;0.0376
0000334274;16.2854;-8.1283;0.3591;-0.0378;-0.0173;0.0116
0000334287;16.4362;-8.0278;0.3783;-0.0059;-0.0211;-0.0225
0000334296;16.2542;-8.0086;0.3950;0.0089;-0.0164;-0.0333
0000334308;16.2878;-7.9128;0.2897;0.0180;-0.0095;-0.0505
0000334317;16.1800;-7.7931;0.3472;0.0099;0.0009;-0.0546
0000334330;16.2566;-7.8530;0.4381;0.0177;0.0036;-0.0645
0000334339;16.3596;-7.7237;0.5387;0.0109;0.0057;-0.0597
0000334348;16.4194;-7.5920;0.4525;0.0056;-0.0113;-0.0689
0000334360;16.4266;-7.5776;0.5100;-0.0013;-0.0294;-0.0604
0000334369;16.5272;-7.4292;0.4022;-0.0075;-0.0356;-0.0404
0000334382;16.3356;-7.5896;0.3831;-0.0215;-0.0453;-0.0156
0000334391;16.2734;-7.5585;0.2610;-0.0286;-0.0477;-0.0041
0000334405;16.2638;-7.6351;0.3304;-0.0268;-0.0390;0.0107
0000334414;16.3189;-7.7692;0.3998;-0.0378;-0.0280;0.0204
0000334427;16.0890;-7.8650;0.3496;-0.0333;-0.0225;0.0097
0000334436;16.1872;-7.9607;0.4669;-0.0345;-0.0148;0.0119
0000334506;16.3692;-7.7620;0.2993;-0.0047;-0.0133;-0.0346
0000334515;16.2566;-7.8219;0.2945;-0.0099;0.0049;-0.0309
0000334524;16.4314;-7.7883;0.3496;-0.0121;0.0149;-0.0381
0000334537;16.3859;-7.8697;0.4214;-0.0029;0.0145;-0.0437
0000334546;16.4386;-7.7428;0.6728;-0.0051;0.0023;-0.0517
0000334558;16.3572;-7.7045;0.5986;-0.0065;-0.0209;-0.0486
0000334567;16.4769;-7.5824;0.5435;-0.0101;-0.0337;-0.0406
0000334580;16.4530;-7.4939;0.4286;-0.0116;-0.0485;-0.0220
0000334589;16.3787;-7.4891;0.4334;-0.0189;-0.0472;-0.0052
0000334601;16.3356;-7.4316;0.3208;-0.0352;-0.0338;0.0168
0000334610;16.2064;-7.6351;0.3519;-0.0293;-0.0308;0.0216
0000334623;16.1130;-7.9655;0.3472;-0.0284;-0.0204;0.0229
0000334632;16.1920;-7.9942;0.4405;-0.0220;-0.0111;0.0213
0000334641;16.1896;-7.9895;0.4525;-0.0057;-0.0233;0.0031
0000334653;16.2614;-7.9416;0.5028;0.0079;-0.0168;-0.0088
0000334662;16.2231;-7.8817;0.5387;0.0191;-0.0276;-0.0192
0000334675;16.1800;-7.8721;0.4836;0.0237;-0.0426;-0.0306
0000334684;16.2949;-7.6998;0.4884;0.0145;-0.0414;-0.0328
0000334696;16.3548;-7.7237;0.4525;0.0107;-0.0533;-0.0338
0000334705;16.2471;-7.7955;0.3759;0.0083;-0.0500;-0.0300
0000334718;16.3572;-7.6351;0.4477;0.0025;-0.0392;-0.0226
0000334727;16.3644;-7.7093;0.4190;0.0027;-0.0397;-0.0268
0000334797;16.3309;-7.6734;0.2011;-0.0484;-0.0565;0.0322
0000334806;16.2949;-7.7692;0.1652;-0.0558;-0.0425;0.0357
0000334815;16.2040;-7.8530;0.2586;-0.0560;-0.0289;0.0318
0000334828;16.2973;-8.0397;0.3926;-0.0337;-0.0180;0.0100
0000334837;16.3883;-8.1475;0.4094;-0.0179;-0.0076;-0.0045
0000334849;16.2901;-8.0972;0.3903;0.0119;-0.0067;-0.0312
0000334858;16.1202;-7.9655;0.3424;0.0253;-0.0045;-0.0449
0000334871;16.5511;-7.5513;0.3017;0.0168;-0.0005;-0.0526
0000334880;16.3021;-7.7357;0.2921;0.0053;0.0048;-0.0493
0000334892;16.2901;-7.5369;0.3759;0.0005;0.0000;-0.0334
0000334901;16.4721;-7.5561;0.4334;-0.0044;-0.0005;-0.0272
0000334914;16.4003;-7.8099;0.4812;-0.0100;0.0019;-0.0237
0000334923;16.3093;-7.8913;0.5100;-0.0080;0.0055;-0.0181
0000334932;16.2566;-7.7333;0.5650;-0.0072;0.0041;-0.0183
0000334944;15.9981;-7.8937;0.6369;-0.0025;-0.0216;-0.0312
0000334953;16.1441;-7.6662;0.5890;-0.0148;-0.0280;-0.0242
0000334966;16.1848;-7.6231;0.5267;-0.0209;-0.0466;-0.0168
0000334975;16.1202;-7.6806;0.4932;-0.0196;-0.0670;-0.0149
0000334987;16.2423;-7.6279;0.3615;-0.0292;-0.0659;0.0009
