time;acc_x;acc_y;acc_z;gyro_x;gyro_y;gyro_z
0000191108;6.6655;-4.4460;9.3158;0.0256;-0.0361;-0.1187
0000191117;6.7636;-4.2904;9.2416;0.0346;-0.0376;-0.1214
0000191125;6.8331;-4.3287;9.2273;0.0300;-0.0325;-0.1139
0000191133;6.6894;-4.4341;9.1746;0.0237;-0.0329;-0.1198
0000191142;6.8307;-4.3718;9.2560;0.0145;-0.0361;-0.1119
0000191150;6.6679;-4.3574;9.2680;0.0139;-0.0436;-0.1207
0000191161;6.7277;-4.4053;9.2632;0.0156;-0.0464;-0.1175
0000191169;6.8714;-4.4293;9.2847;0.0093;-0.0405;-0.1138
0000191177;6.7493;-4.3527;9.1746;0.0125;-0.0373;-0.1176
0000191188;6.7373;-4.2617;9.1913;0.0097;-0.0350;-0.1159
0000191196;6.7516;-4.2306;9.2751;0.0081;-0.0408;-0.1278
0000191207;6.6056;-4.4005;9.3206;0.0012;-0.0340;-0.1219
0000191215;6.7636;-4.2904;9.3350;-0.0023;-0.0361;-0.1278
0000191226;6.7469;-4.4173;9.4523;0.0005;-0.0262;-0.1291
0000191234;6.8307;-4.3167;9.4499;0.0061;-0.0242;-0.1291
0000191245;6.7493;-4.4628;9.4332;0.0317;-0.0317;-0.1452
0000191253;6.8378;-4.2353;9.3422;0.0329;-0.0316;-0.1387
0000191261;6.7014;-4.2832;9.1985;0.0309;-0.0304;-0.1420
0000191272;6.6511;-4.3000;9.1028;0.0246;-0.0342;-0.1508
0000191280;6.7947;-4.3215;8.9974;0.0139;-0.0389;-0.1577
0000191291;6.7493;-4.3718;9.1147;0.0049;-0.0396;-0.1639
0000191299;6.6942;-4.3790;9.1554;-0.0029;-0.0358;-0.1635
0000191352;6.6248;-4.3239;9.3015;-0.0115;-0.0449;-0.2062
0000191360;6.4380;-4.3383;9.3063;-0.0179;-0.0424;-0.2033
0000191371;6.6152;-4.2306;9.2680;-0.0137;-0.0450;-0.2113
0000191379;6.7684;-4.2521;9.3158;-0.0089;-0.0536;-0.2162
0000191387;6.4332;-4.5035;9.3518;-0.0116;-0.0492;-0.2065
0000191398;6.5194;-4.3072;9.2344;-0.0151;-0.0556;-0.2065
0000191406;6.5864;-4.3024;9.1889;-0.0167;-0.0497;-0.2018
0000191417;6.6319;-4.3335;9.1650;-0.0236;-0.0528;-0.1941
0000191425;6.5481;-4.3144;9.1387;-0.0236;-0.0574;-0.1943
0000191436;6.5745;-4.2234;9.2033;-0.0336;-0.0506;-0.1835
0000191444;6.5529;-4.1252;9.2536;-0.0309;-0.0534;-0.1780
0000191455;6.5218;-4.2904;9.1913;-0.0438;-0.0496;-0.1660
0000191463;6.5027;-4.3622;9.2488;-0.0426;-0.0557;-0.1667
0000191474;6.5314;-4.3622;9.2847;-0.0402;-0.0438;-0.1564
0000191482;6.4643;-4.2784;9.3470;-0.0352;-0.0469;-0.1551
0000191490;6.4763;-4.2832;9.2703;-0.0386;-0.0385;-0.1419
0000191501;6.3734;-4.3886;9.2392;-0.0348;-0.0345;-0.1362
0000191509;6.3590;-4.3910;9.2392;-0.0369;-0.0386;-0.1356
0000191520;6.3614;-4.2425;9.3350;-0.0412;-0.0432;-0.1278
0000191528;6.4428;-4.2186;9.2560;-0.0448;-0.0364;-0.1144
0000191539;6.3829;-4.2114;9.2727;-0.0516;-0.0366;-0.0998
0000191547;6.3901;-4.2904;9.2536;-0.0566;-0.0300;-0.0887
0000191600;6.5481;-4.3024;9.2703;-0.0496;-0.0302;-0.0525
0000191608;6.4907;-4.2689;9.3446;-0.0532;-0.0261;-0.0481
0000191619;6.6032;-4.2186;9.3350;-0.0514;-0.0256;-0.0474
0000191627;6.5960;-4.3024;9.3972;-0.0388;-0.0322;-0.0412
0000191635;6.5697;-4.2114;9.3398;-0.0384;-0.0237;-0.0294
0000191646;6.6008;-4.2329;9.3230;-0.0284;-0.0350;-0.0272
0000191654;6.5434;-4.2856;9.4260;-0.0293;-0.0230;-0.0232
0000191665;6.6272;-4.3120;9.3709;-0.0177;-0.0262;-0.0254
0000191673;6.6391;-4.2018;9.2871;-0.0240;-0.0250;-0.0236
0000191684;6.5553;-4.3670;9.3278;-0.0173;-0.0286;-0.0297
0000191692;6.6463;-4.3574;9.2632;-0.0184;-0.0304;-0.0273
0000191703;6.5386;-4.3000;9.2225;-0.0241;-0.0308;-0.0282
0000191711;6.5314;-4.3958;9.3278;-0.0290;-0.0261;-0.0272
0000191722;6.5745;-4.2737;9.2536;-0.0342;-0.0228;-0.0272
0000191730;6.6439;-4.2401;9.2201;-0.0326;-0.0184;-0.0304
0000191738;6.4955;-4.2258;9.2320;-0.0353;-0.0211;-0.0277
0000191749;6.6990;-4.2665;9.3158;-0.0346;-0.0180;-0.0273
0000191757;6.5625;-4.3096;9.2009;-0.0285;-0.0222;-0.0330
0000191768;6.4811;-4.3958;9.2368;-0.0321;-0.0274;-0.0310
0000191776;6.4380;-4.3622;9.2751;-0.0405;-0.0269;-0.0254
0000191787;6.3542;-4.4772;9.2296;-0.0453;-0.0268;-0.0230
0000191795;6.5649;-4.2928;9.2967;-0.0454;-0.0285;-0.0273
0000191848;6.6104;-4.3814;9.3374;0.0028;-0.0159;-0.0516
0000191856;6.7086;-4.2617;9.1626;-0.0052;-0.0152;-0.0526
0000191867;6.6798;-4.4005;9.2225;-0.0143;-0.0185;-0.0580
0000191875;6.5410;-4.5155;9.1650;-0.0213;-0.0211;-0.0636
0000191883;6.6655;-4.2832;9.2129;-0.0266;-0.0238;-0.0637
0000191894;6.5553;-4.4197;9.2512;-0.0253;-0.0252;-0.0665
0000191902;6.6679;-4.3263;9.2656;-0.0282;-0.0212;-0.0634
0000191913;6.6894;-4.3670;9.2584;-0.0233;-0.0320;-0.0663
0000191921;6.6343;-4.3503;9.3877;-0.0217;-0.0277;-0.0709
0000191932;6.5912;-4.4388;9.3326;-0.0111;-0.0293;-0.0725
0000191940;6.4667;-4.4484;9.3398;-0.0069;-0.0207;-0.0673
0000191951;6.5074;-4.3694;9.3565;0.0040;-0.0179;-0.0703
0000191959;6.4811;-4.3622;9.2799;0.0103;-0.0218;-0.0711
0000191967;6.6942;-4.3120;9.2775;0.0107;-0.0207;-0.0648
0000191978;6.5314;-4.2114;9.2584;0.0160;-0.0237;-0.0682
0000191986;6.5673;-4.4436;9.2584;0.0051;-0.0157;-0.0588
0000191997;6.5146;-4.3838;9.2296;0.0031;-0.0188;-0.0604
0000192005;6.5434;-4.3766;9.1794;0.0016;-0.0225;-0.0663
0000192016;6.5218;-4.3120;9.2775;-0.0011;-0.0207;-0.0605
0000192024;6.5362;-4.3072;9.3637;0.0035;-0.0200;-0.0564
0000192035;6.2872;-4.4221;9.3326;0.0071;-0.0071;-0.0524
0000192043;6.3039;-4.4484;9.4906;0.0144;-0.0083;-0.0513
0000192051;6.2249;-4.4819;9.4523;0.0132;-0.0049;-0.0445
0000192102;6.3039;-4.4772;9.2871;0.0742;0.0023;-0.0075
0000192110;6.4189;-4.4628;9.1315;0.0649;0.0067;-0.0011
0000192121;6.3638;-4.3287;9.0884;0.0598;0.0127;-0.0031
0000192129;6.3446;-4.3718;9.1411;0.0514;0.0149;-0.0005
0000192140;6.2130;-4.4556;9.1004;0.0384;0.0281;0.0024
0000192148;6.0310;-4.3048;9.0788;0.0207;0.0349;0.0108
0000192159;6.0621;-4.1779;9.1195;0.0064;0.0352;0.0203
0000192167;6.0214;-4.4341;9.2105;0.0005;0.0224;0.0229
0000192175;6.0406;-4.2832;9.2775;-0.0131;0.0294;0.0365
0000192186;6.0789;-4.4460;9.3422;-0.0316;0.0318;0.0517
0000192194;6.1435;-4.4915;9.3182;-0.0278;0.0332;0.0542
0000192205;5.9376;-4.6567;9.4212;-0.0273;0.0382;0.0620
0000192213;6.0310;-4.5322;9.3637;-0.0250;0.0464;0.0726
0000192224;6.3135;-4.5849;9.4858;-0.0168;0.0504;0.0746
0000192232;6.3925;-4.5490;9.3302;-0.0116;0.0558;0.0843
0000192240;6.4715;-4.5370;9.3518;-0.0039;0.0529;0.0777
0000192251;6.4787;-4.3574;9.2201;-0.0029;0.0468;0.0791
0000192259;6.3925;-4.3263;9.1794;-0.0049;0.0344;0.0731
0000192270;6.4524;-4.3934;9.0884;-0.0169;0.0272;0.0617
0000192278;6.6655;-4.4197;9.1339;-0.0221;0.0121;0.0489
0000192289;6.4643;-4.4269;9.1459;-0.0385;0.0036;0.0438
0000192297;6.3183;-4.4843;9.2656;-0.0458;0.0011;0.0378
0000192350;6.2824;-4.2401;9.4020;-0.0368;-0.0023;0.0296
0000192358;6.2441;-4.3215;9.2967;-0.0266;-0.0069;0.0326
0000192366;6.2130;-4.2497;9.2656;-0.0284;-0.0049;0.0317
0000192377;6.2584;-4.2329;9.1650;-0.0282;-0.0084;0.0346
0000192385;6.1866;-4.3024;9.2799;-0.0249;-0.0151;0.0340
0000192396;6.4452;-4.1803;9.2225;-0.0294;-0.0111;0.0314
0000192404;6.2872;-4.3551;9.3039;-0.0365;-0.0097;0.0408
0000192415;6.1770;-4.4867;9.2751;-0.0401;-0.0071;0.0424
0000192423;6.3015;-4.3862;9.3230;-0.0400;-0.0103;0.0434
0000192434;6.2417;-4.3383;9.3111;-0.0308;-0.0222;0.0409
0000192442;6.1435;-4.5035;9.2177;-0.0348;-0.0188;0.0498
0000192450;6.1220;-4.2808;9.3374;-0.0270;-0.0261;0.0493
0000192461;5.8873;-4.4867;9.2680;-0.0309;-0.0265;0.0597
0000192469;6.1268;-4.4987;9.3541;-0.0252;-0.0349;0.0665
0000192480;6.0956;-4.4293;9.3374;-0.0212;-0.0246;0.0738
0000192488;6.1268;-4.3981;9.2967;-0.0201;-0.0199;0.0862
0000192499;6.2082;-4.4053;9.2991;-0.0199;-0.0192;0.0901
0000192507;6.4236;-4.4101;9.1626;-0.0200;-0.0225;0.0891
0000192518;6.1699;-4.3838;9.3039;-0.0233;-0.0195;0.0927
0000192526;6.2968;-4.2617;9.1626;-0.0240;-0.0274;0.0939
0000192534;6.2632;-4.3287;9.2536;-0.0258;-0.0294;0.0922
0000192587;6.2896;-4.4149;9.2656;-0.0573;-0.0386;0.0822
0000192595;6.4572;-4.3311;9.2201;-0.0526;-0.0522;0.0715
0000192606;6.3375;-4.4556;9.2703;-0.0536;-0.0540;0.0746
0000192614;6.4428;-4.2952;9.2177;-0.0496;-0.0610;0.0730
0000192625;6.4500;-4.3574;9.3158;-0.0480;-0.0654;0.0707
0000192633;6.6319;-4.2066;9.2871;-0.0530;-0.0662;0.0706
0000192644;6.2656;-4.5274;9.2584;-0.0532;-0.0690;0.0652
0000192652;6.2560;-4.5586;9.2512;-0.0514;-0.0711;0.0630
0000192660;6.5529;-4.3934;9.2632;-0.0490;-0.0739;0.0640
0000192671;6.3398;-4.4149;9.2991;-0.0534;-0.0781;0.0545
0000192679;6.6870;-4.3958;9.3398;-0.0582;-0.0742;0.0554
0000192690;6.4165;-4.6136;9.2632;-0.0614;-0.0781;0.0529
0000192698;6.5146;-4.4963;9.3422;-0.0562;-0.0853;0.0478
0000192709;6.5697;-4.3527;9.2871;-0.0540;-0.0862;0.0448
0000192717;6.4260;-4.5610;9.4044;-0.0542;-0.0827;0.0426
0000192728;6.6248;-4.2401;9.3158;-0.0514;-0.0815;0.0405
0000192736;6.6726;-4.3862;9.3302;-0.0454;-0.0845;0.0464
0000192744;6.3398;-4.5274;9.3158;-0.0480;-0.0818;0.0421
0000192755;6.4931;-4.4412;9.3733;-0.0372;-0.0881;0.0392
0000192763;6.3279;-4.5011;9.4164;-0.0453;-0.0813;0.0410
0000192774;6.4308;-4.5107;9.4068;-0.0438;-0.0851;0.0404
0000192782;6.6870;-4.3407;9.3087;-0.0461;-0.0879;0.0353
0000192835;6.6559;-4.5466;9.4763;-0.0248;-0.0866;0.0380
0000192843;6.8450;-4.4293;9.4810;-0.0252;-0.0838;0.0393
0000192854;6.8642;-4.3694;9.4595;-0.0084;-0.0854;0.0402
0000192862;6.7277;-4.5729;9.4595;0.0047;-0.0933;0.0373
0000192870;6.7900;-4.4460;9.3805;0.0117;-0.0899;0.0341
0000192881;6.7253;-4.4819;9.3781;0.0131;-0.0821;0.0377
0000192889;7.0581;-4.2856;9.3254;0.0125;-0.0870;0.0338
0000192900;6.8115;-4.5514;9.2464;0.0013;-0.0815;0.0390
0000192908;6.6439;-4.5801;9.2751;-0.0080;-0.0771;0.0381
0000192919;6.9456;-4.3934;9.2536;-0.0127;-0.0867;0.0390
0000192927;7.0246;-4.3886;9.2727;-0.0159;-0.0959;0.0309
0000192938;6.9192;-4.3551;9.2560;-0.0161;-0.0994;0.0306
0000192946;6.8187;-4.3934;9.3613;-0.0165;-0.0954;0.0332
0000192954;6.9408;-4.2976;9.3829;-0.0064;-0.0993;0.0337
0000192965;6.7062;-4.5059;9.3134;0.0003;-0.0978;0.0340
0000192973;6.8881;-4.4772;9.3901;-0.0041;-0.1017;0.0356
0000192984;6.9599;-4.5418;9.3781;-0.0055;-0.0974;0.0313
0000192992;6.9863;-4.5586;9.3685;-0.0065;-0.0982;0.0324
0000193003;6.9983;-4.6376;9.3613;0.0052;-0.0977;0.0249
0000193011;7.1419;-4.4388;9.3326;0.0063;-0.1030;0.0201
0000193022;7.0509;-4.6112;9.2296;0.0005;-0.1053;0.0164
0000193030;6.8331;-4.5753;9.1889;-0.0041;-0.1006;0.0181
0000193038;6.9216;-4.6831;9.1482;-0.0075;-0.1096;0.0057
0000193091;7.2018;-4.5969;9.3111;-0.0393;-0.0843;-0.0425
0000193099;7.2305;-4.4412;9.2488;-0.0358;-0.0931;-0.0545
0000193110;7.1658;-4.5394;9.2895;-0.0474;-0.0905;-0.0605
0000193118;6.9887;-4.6400;9.3326;-0.0490;-0.0831;-0.0616
0000193129;7.2401;-4.5705;9.2799;-0.0536;-0.0855;-0.0711
0000193137;7.1204;-4.4317;9.3374;-0.0556;-0.0790;-0.0770
0000193148;7.0533;-4.5849;9.2991;-0.0525;-0.0773;-0.0822
0000193156;7.0198;-4.5418;9.3685;-0.0513;-0.0722;-0.0849
0000193164;7.1060;-4.6855;9.2919;-0.0530;-0.0670;-0.0882
0000193175;7.1898;-4.6591;9.3182;-0.0517;-0.0681;-0.0955
0000193183;7.1204;-4.5633;9.5505;-0.0400;-0.0794;-0.1111
0000193194;7.3478;-4.6400;9.3996;-0.0386;-0.0721;-0.1190
0000193202;7.1156;-4.6160;9.5289;-0.0346;-0.0803;-0.1275
0000193213;7.1754;-4.5993;9.5217;-0.0241;-0.0793;-0.1382
0000193221;7.1922;-4.5562;9.4547;-0.0177;-0.0779;-0.1400
0000193232;6.9839;-4.6208;9.3326;-0.0045;-0.0791;-0.1472
0000193240;6.9935;-4.5945;9.3637;-0.0068;-0.0757;-0.1439
0000193251;6.9719;-4.5370;9.2703;-0.0023;-0.0723;-0.1362
0000193259;6.8139;-4.6376;9.3039;0.0025;-0.0710;-0.1423
0000193267;6.9288;-4.6280;9.2751;0.0083;-0.0654;-0.1432
0000193278;6.9073;-4.5921;9.1698;0.0019;-0.0638;-0.1390
0000193286;7.0102;-4.5059;9.2153;-0.0119;-0.0532;-0.1295
0000193339;7.0988;-4.4484;9.4212;0.0068;-0.0269;-0.1170
0000193347;7.1156;-4.4556;9.3398;0.0060;-0.0171;-0.1108
0000193358;6.9719;-4.4460;9.3661;0.0127;-0.0155;-0.1098
0000193366;6.9240;-4.6783;9.3230;0.0131;-0.0108;-0.1095
0000193377;6.9145;-4.4580;9.2847;0.0031;-0.0041;-0.0997
0000193385;7.0868;-4.4508;9.2799;0.0041;-0.0060;-0.1061
0000193393;6.9168;-4.4484;9.2847;0.0008;-0.0029;-0.1021
0000193404;6.9671;-4.4939;9.2632;0.0012;0.0044;-0.0965
0000193412;7.0054;-4.4077;9.3302;-0.0015;0.0109;-0.0977
0000193423;6.9719;-4.5035;9.2895;-0.0015;0.0131;-0.0998
0000193431;7.1778;-4.3886;9.2847;0.0020;0.0149;-0.1005
0000193442;7.1898;-4.3383;9.2751;0.0096;0.0183;-0.1090
0000193450;7.0605;-4.5059;9.3733;0.0208;0.0237;-0.1107
0000193461;7.1587;-4.3838;9.3518;0.0234;0.0161;-0.1203
0000193469;7.0557;-4.2904;9.2129;0.0238;0.0132;-0.1260
0000193477;6.8857;-4.5083;9.2033;0.0167;0.0141;-0.1258
0000193488;6.7924;-4.5921;9.2129;0.0035;0.0149;-0.1247
0000193496;6.7636;-4.4963;9.1985;0.0029;0.0108;-0.1283
0000193507;6.8354;-4.3814;9.2081;-0.0089;0.0177;-0.1191
0000193515;6.9695;-4.5203;9.2632;-0.0117;0.0160;-0.1236
0000193526;6.8618;-4.6256;9.3470;-0.0091;0.0087;-0.1306
0000193534;6.9049;-4.4412;9.2296;-0.0129;0.0101;-0.1291
0000193587;6.9097;-4.5394;9.5265;0.0269;0.0129;-0.1431
0000193595;6.9240;-4.5370;9.3613;0.0333;0.0191;-0.1418
0000193603;6.9097;-4.5274;9.3350;0.0381;0.0147;-0.1514
0000193614;6.9288;-4.5011;9.1889;0.0400;0.0064;-0.1601
0000193622;6.9097;-4.5155;9.1459;0.0358;0.0044;-0.1644
0000193633;6.7924;-4.4628;9.1147;0.0216;-0.0023;-0.1739
0000193641;6.6702;-4.5873;9.1291;0.0091;0.0087;-0.1687
0000193652;6.6942;-4.3503;9.2033;-0.0039;-0.0007;-0.1755
0000193660;6.8738;-4.3551;9.1842;-0.0145;0.0064;-0.1709
0000193668;6.7253;-4.4101;9.2536;-0.0123;-0.0033;-0.1756
0000193679;6.8905;-4.4676;9.3326;-0.0119;0.0055;-0.1701
0000193687;6.8019;-4.4484;9.3470;-0.0089;0.0063;-0.1744
0000193698;6.7804;-4.4891;9.2680;-0.0004;0.0049;-0.1843
0000193706;6.6798;-4.5370;9.3470;0.0100;-0.0032;-0.1905
0000193717;6.5170;-4.6615;9.3470;0.0061;0.0033;-0.1901
0000193725;6.7924;-4.5011;9.3589;0.0143;-0.0019;-0.1965
0000193736;6.4931;-4.6878;9.3206;0.0076;0.0040;-0.1996
0000193744;6.3782;-4.6639;9.2895;0.0112;-0.0032;-0.1996
0000193752;6.2848;-4.6567;9.3446;0.0031;0.0020;-0.1970
0000193763;6.2082;-4.5705;9.2368;-0.0084;-0.0060;-0.1893
0000193771;6.5146;-4.4149;9.1794;-0.0262;-0.0060;-0.1788
0000193782;6.3375;-4.4867;9.1459;-0.0317;0.0028;-0.1732
0000193790;6.4165;-4.5107;9.0956;-0.0385;0.0055;-0.1691
0000193844;6.2513;-4.4412;9.3158;-0.0334;0.0374;-0.1444
0000193852;6.3662;-4.4963;9.3565;-0.0301;0.0329;-0.1472
0000193863;6.2656;-4.5155;9.3446;-0.0344;0.0352;-0.1444
0000193871;6.5170;-4.3287;9.2680;-0.0385;0.0478;-0.1392
0000193882;6.4452;-4.4053;9.3326;-0.0440;0.0608;-0.1316
0000193890;6.4476;-4.3838;9.3518;-0.0456;0.0573;-0.1382
0000193898;6.3614;-4.4293;9.3063;-0.0401;0.0582;-0.1376
0000193909;6.3135;-4.5657;9.2680;-0.0374;0.0606;-0.1388
0000193917;6.3710;-4.4676;9.2464;-0.0385;0.0666;-0.1360
0000193928;6.2537;-4.6064;9.2703;-0.0357;0.0671;-0.1324
0000193936;6.4715;-4.3790;9.2344;-0.0322;0.0642;-0.1355
0000193947;6.5793;-4.3287;9.2775;-0.0304;0.0658;-0.1408
0000193955;6.6200;-4.5274;9.2680;-0.0325;0.0750;-0.1344
0000193966;6.5960;-4.2976;9.3326;-0.0350;0.0790;-0.1398
0000193974;6.5625;-4.4149;9.3709;-0.0404;0.0805;-0.1464
0000193982;6.4907;-4.4365;9.3063;-0.0404;0.0821;-0.1548
0000193993;6.5122;-4.4077;9.3494;-0.0384;0.0839;-0.1506
0000194001;6.5194;-4.4221;9.3350;-0.0310;0.0786;-0.1643
0000194012;6.5697;-4.3167;9.3087;-0.0328;0.0842;-0.1611
0000194020;6.6056;-4.3239;9.3111;-0.0262;0.0861;-0.1616
0000194031;6.4715;-4.4388;9.3637;-0.0205;0.0889;-0.1645
0000194039;6.3734;-4.3455;9.4284;-0.0092;0.0891;-0.1689
0000194093;6.3159;-4.4317;9.4619;-0.0063;0.1623;-0.1426
0000194101;6.3422;-4.5825;9.4284;0.0020;0.1641;-0.1400
0000194109;6.4189;-4.4915;9.4332;0.0056;0.1671;-0.1319
0000194120;6.4189;-4.4460;9.3925;0.0121;0.1733;-0.1264
0000194128;6.3398;-4.4341;9.2823;0.0148;0.1747;-0.1190
0000194139;6.4620;-4.5011;9.2201;0.0119;0.1820;-0.1135
0000194147;6.3351;-4.4341;9.2823;0.0097;0.1964;-0.1023
0000194158;6.4428;-4.4125;9.1842;0.0135;0.2061;-0.1006
0000194166;6.4811;-4.2593;9.2057;0.0041;0.2217;-0.0930
0000194174;6.4715;-4.4173;9.1961;0.0045;0.2264;-0.0909
0000194185;6.5434;-4.3886;9.1937;0.0068;0.2264;-0.0849
0000194193;6.2920;-4.5610;9.1818;0.0017;0.2310;-0.0814
0000194204;6.3111;-4.4604;9.1387;-0.0059;0.2402;-0.0671
0000194212;6.2656;-4.4149;9.2225;-0.0020;0.2419;-0.0641
0000194223;6.3231;-4.4293;9.1075;-0.0087;0.2546;-0.0493
0000194231;6.3159;-4.5035;9.0716;-0.0081;0.2614;-0.0450
0000194242;6.2776;-4.5418;9.1770;-0.0120;0.2691;-0.0298
0000194250;6.2082;-4.5107;9.1363;-0.0217;0.2802;-0.0269
0000194258;6.1531;-4.3814;9.1435;-0.0245;0.2840;-0.0230
0000194269;6.2920;-4.3287;9.1794;-0.0277;0.2938;-0.0180
0000194277;6.2345;-4.4005;9.1913;-0.0212;0.2923;-0.0241
0000194288;6.5793;-4.3455;9.1028;-0.0083;0.2892;-0.0230
0000194296;6.5362;-4.3072;8.9902;0.0000;0.2802;-0.0213
0000194350;6.3542;-4.3551;8.8801;-0.0224;0.2798;0.0105
0000194358;6.1148;-4.4484;8.7436;-0.0357;0.2939;0.0324
0000194369;6.0885;-4.1300;8.8705;-0.0389;0.2978;0.0514
0000194377;6.0813;-4.2832;8.8083;-0.0282;0.3086;0.0626
0000194385;5.7604;-4.3431;8.7508;-0.0218;0.3317;0.0825
0000194396;5.9137;-4.1468;8.6431;-0.0242;0.3488;0.1079
0000194404;5.8514;-4.0701;8.5497;-0.0282;0.3567;0.1286
0000194415;5.6048;-4.0845;8.4420;-0.0504;0.3728;0.1681
0000194423;5.7748;-4.0270;8.3941;-0.0614;0.3793;0.1949
0000194434;5.8227;-3.8116;8.2432;-0.0718;0.3960;0.2342
0000194442;5.7988;-3.9265;8.2121;-0.0665;0.4078;0.2514
0000194450;5.9185;-3.9361;8.0661;-0.0536;0.4190;0.2738
0000194461;5.9831;-3.9241;7.9511;-0.0254;0.4367;0.2926
0000194469;6.0908;-3.9528;7.8410;0.0055;0.4489;0.2956
0000194480;6.0454;-3.9073;7.6495;0.0353;0.4658;0.3184
0000194488;6.1052;-3.6966;7.5872;0.0598;0.4632;0.3254
0000194499;6.0142;-3.6799;7.3813;0.0967;0.4596;0.3400
0000194507;5.6958;-3.6033;7.3622;0.1218;0.4570;0.3577
0000194518;5.4348;-3.5961;7.1874;0.1640;0.4394;0.3754
0000194526;5.4372;-3.5674;7.1611;0.2022;0.4385;0.4158
0000194534;5.3774;-3.5291;6.9408;0.2542;0.4265;0.4302
0000194545;5.3391;-3.8954;6.3997;0.3365;0.4409;0.4562
0000194553;5.2888;-4.1851;6.1507;0.4082;0.4679;0.4531
0000194607;6.3135;-5.0542;3.6775;0.3992;0.6334;0.4506
0000194615;6.0406;-5.1978;3.5650;0.3138;0.5938;0.4668
0000194626;5.6838;-4.9847;3.4931;0.1945;0.5456;0.5123
0000194634;5.4181;-4.7980;3.5291;0.1259;0.5424;0.5501
0000194642;5.1978;-4.7285;3.6751;0.0913;0.5532;0.5790
0000194653;5.1906;-4.6519;3.8164;0.1017;0.6167;0.6117
0000194661;5.2625;-5.0589;3.8930;0.1344;0.6827;0.6283
0000194672;5.7581;-5.5976;3.8571;0.1848;0.7870;0.6099
0000194680;6.1531;-6.0238;3.9002;0.2209;0.8419;0.5772
0000194691;7.1204;-6.0789;3.7709;0.2629;0.8789;0.4942
0000194699;7.9775;-5.8083;3.9433;0.2637;0.8896;0.3964
0000194707;8.9184;-5.9735;4.0438;0.2510;0.8679;0.2749
0000194718;10.1778;-6.9360;4.0486;0.1564;0.8056;0.1267
0000194726;10.6063;-7.2880;4.0773;0.0400;0.7747;0.0245
0000194737;10.7093;-7.2329;3.9911;-0.1107;0.7629;-0.1043
0000194745;10.5584;-7.0150;4.0749;-0.2061;0.7228;-0.1872
0000194756;9.7468;-6.6918;4.4700;-0.3022;0.5650;-0.2778
0000194764;8.4563;-6.6750;5.1691;-0.3792;0.5405;-0.3592
0000194772;7.4148;-6.4835;5.3151;-0.4226;0.5610;-0.4286
0000194783;6.2704;-5.7988;5.8155;-0.4189;0.7171;-0.5392
0000194791;5.9256;-5.5091;6.2393;-0.4207;0.8555;-0.5961
0000194802;5.2625;-5.7940;6.6439;-0.4366;0.9954;-0.6238
0000194810;4.7190;-5.9544;6.8546;-0.4465;1.0324;-0.6275
0000194860;4.9536;-2.5642;9.1937;-0.5044;1.0099;-0.4775
0000194868;3.8834;4.3718;10.6734;-0.4054;1.1786;-0.1515
0000194879;-2.2146;15.8017;14.7459;-0.2850;1.3732;0.5872
0000194887;-9.7492;13.0292;17.7578;-0.5403;1.3695;0.9569
0000194898;-14.5400;-0.5602;17.3915;-0.5425;1.7183;1.1624
0000194906;-14.0252;-8.7293;14.2407;0.0449;2.3004;1.1831
0000194914;-12.0811;-9.7516;14.8345;0.3572;3.0427;1.1247
0000194925;-0.2059;-10.3621;11.0564;0.2272;3.5898;0.9213
0000194933;5.8299;-11.2911;12.1290;-0.0778;3.4705;0.7458
0000194944;10.8409;-12.1985;12.4858;-0.5971;3.0499;0.4489
0000194952;13.5464;-9.8521;12.7970;-0.9605;2.7660;0.0504
0000194963;14.8105;-5.5402;11.7483;-0.9551;2.6568;-0.4506
0000194971;14.8081;-5.3534;10.9654;-0.5304;2.7379;-0.8587
0000194982;14.7842;-5.3367;10.1418;0.1188;2.9617;-1.4129
0000194990;14.7555;-4.2329;10.1418;0.3734;2.9820;-1.6647
0000195001;13.8361;-4.8243;9.3853;0.5637;2.7499;-1.9203
0000195009;13.4770;-6.2201;8.0972;0.6259;2.5526;-1.9850
0000195017;12.7826;-6.9959;6.6655;0.6071;2.4590;-2.0956
0000195028;11.4084;-7.7045;5.4157;0.4299;2.4613;-2.3045
0000195036;10.6566;-8.0900;4.3670;0.2883;2.5090;-2.4849
0000195047;8.6048;-8.0709;3.2992;0.1019;2.5448;-2.7729
0000195055;7.4699;-7.2951;1.9896;-0.0029;2.5294;-2.9439
0000195108;-10.5034;-5.2960;-1.1540;0.1600;2.3595;-1.4729
0000195116;-22.4409;-0.3639;0.2131;-0.2900;2.5207;-1.1474
0000195127;-74.9241;-12.6581;0.3567;-0.1523;4.3656;-3.5400
0000195135;-78.4532;-18.3827;2.6887;0.6267;4.3656;-4.3657
0000195143;-78.4532;-16.2734;5.0015;1.3824;4.3656;-4.3657
0000195154;-43.1435;-6.3566;-0.3089;0.2774;4.3656;-3.8750
0000195162;-9.2632;-5.8778;0.4980;-0.3067;4.3656;-2.6890
0000195173;3.0550;-5.1547;3.3615;-2.1782;4.3656;-0.6785
0000195181;3.8642;-10.3094;6.2848;-3.9885;3.7034;0.4870
0000195192;1.7142;-13.8648;5.4827;-4.3657;1.8720;1.2890
0000195200;-0.6057;-13.6853;3.1556;-4.3657;0.9586;1.4915
0000195211;-2.1117;-9.6558;4.0247;-4.3657;0.2689;1.5723
0000195219;-2.6145;-7.8482;4.9488;-3.7912;0.1880;1.5444
0000195230;-3.6727;-8.6814;7.6279;-2.8630;0.4455;1.4742
0000195238;-4.2138;-10.7476;8.5880;-2.1437;0.7325;1.3650
0000195246;-4.0510;-11.0804;9.2560;-1.4437;0.8693;1.2505
0000195257;-4.7381;-8.7029;8.2696;-0.2840;0.7750;1.0800
0000195265;-4.8650;-7.1922;6.8402;0.6524;0.5834;0.9675
0000195276;-4.1635;-6.1268;4.6160;1.7393;0.1120;0.9289
0000195284;-3.0885;-6.3949;2.9544;2.3768;-0.1923;0.9765
0000195295;-2.5379;-7.5154;0.8930;3.0225;-0.4811;1.1021
0000195303;-2.4277;-8.5641;-0.1844;3.3248;-0.6403;1.0750
0000195356;-5.9448;-8.5090;-6.0597;4.3656;-0.1673;0.1600
0000195364;-5.1547;-9.4427;-6.3566;4.3656;0.2112;0.0400
0000195372;-4.0630;-10.2687;-6.3351;4.3656;0.6987;-0.0429
0000195383;-2.2865;-11.0038;-6.0214;4.3656;1.3003;-0.1499
0000195391;-1.0175;-11.8082;-5.1404;4.3656;1.6084;-0.2466
0000195402;1.0726;-12.0117;-3.9911;4.3656;1.7126;-0.3589
0000195410;2.4038;-11.7100;-3.8834;4.3656;1.5832;-0.3579
0000195421;3.6248;-10.7787;-4.4963;4.3656;1.1703;-0.2621
0000195429;4.4580;-9.8043;-4.7932;4.3656;0.8196;-0.1689
0000195440;4.9823;-9.5505;-5.7293;4.2138;0.4243;-0.0929
0000195448;4.6471;-9.6223;-5.9640;3.6956;0.2133;-0.0953
0000195459;3.6751;-10.2951;-6.0932;2.9203;-0.0316;-0.2325
0000195467;2.2913;-10.6853;-5.9256;2.3442;-0.1671;-0.3726
0000195475;1.0774;-10.8002;-6.1316;1.7563;-0.2513;-0.4896
0000195486;-0.1676;-10.5536;-6.2034;1.0641;-0.4162;-0.5416
0000195494;-1.0487;-10.5489;-6.3159;0.6179;-0.5296;-0.5496
0000195505;-1.8411;-10.6183;-5.9304;0.0883;-0.6173;-0.5207
0000195513;-2.4014;-10.7212;-5.7964;-0.2240;-0.6374;-0.5133
0000195524;-2.9161;-11.0109;-5.2481;-0.6348;-0.5942;-0.5071
0000195532;-3.2729;-10.9798;-4.8698;-0.8938;-0.5473;-0.4902
0000195543;-3.7661;-10.8505;-4.4293;-1.2564;-0.4727;-0.4523
0000195551;-4.0965;-10.5728;-4.0845;-1.5123;-0.4450;-0.4133
0000195604;-4.7381;-10.2256;-2.5307;-2.6461;-0.7027;0.0092
0000195612;-3.9959;-9.8234;-2.3128;-2.7244;-0.7723;0.0677
0000195623;-3.9744;-9.3805;-2.3511;-2.8465;-0.9374;0.1507
0000195631;-3.5961;-9.1363;-2.0782;-2.9166;-1.0196;0.2012
0000195642;-3.6248;-8.9974;-1.8723;-3.0439;-1.1138;0.2567
0000195650;-4.4484;-8.3486;-1.8220;-3.1400;-1.1294;0.3210
0000195658;-5.8035;-7.5896;-1.2091;-3.2415;-1.2001;0.3834
0000195669;-6.1316;-7.4005;-0.5555;-3.4779;-1.3796;0.5412
0000195677;-5.5545;-7.6758;-0.0910;-3.6592;-1.5463;0.6342
0000195688;-4.3766;-8.0134;-0.0359;-3.8802;-1.7265;0.6940
0000195696;-3.8140;-8.4348;0.1676;-4.0051;-1.8073;0.6999
0000195707;-2.8778;-8.5808;0.0718;-4.1198;-1.8854;0.6167
0000195715;-2.6432;-8.5808;0.1700;-4.1315;-1.8859;0.5670
0000195726;-2.1859;-8.4803;0.6249;-4.0730;-2.0090;0.4894
0000195734;-2.2960;-8.7939;1.0415;-3.9923;-2.1035;0.4049
0000195745;-2.2697;-9.1195;1.6999;-3.7261;-2.1847;0.2718
0000195753;-2.4181;-8.7293;2.1715;-3.4559;-2.2143;0.2446
0000195761;-2.6839;-8.2696;2.8922;-3.1998;-2.2412;0.2635
0000195772;-3.2058;-7.6375;3.7326;-2.9816;-2.2435;0.2574
0000195780;-3.7014;-7.3502;4.1515;-2.8911;-2.1309;0.2021
0000195791;-4.1683;-7.0461;5.0613;-2.8647;-1.9180;0.0917
0000195799;-4.4915;-7.1108;5.4109;-2.7963;-1.7099;0.0266
0000195852;-4.4796;-7.4986;6.9767;-0.0268;-0.1771;0.0425
0000195860;-3.9720;-7.1970;6.4620;0.2567;-0.0065;0.0955
0000195871;-3.3255;-7.7548;5.4995;0.5288;0.1006;0.1547
0000195879;-2.9042;-7.9487;4.9201;0.6516;0.1090;0.1683
0000195890;-1.8794;-7.7213;4.1108;0.6753;0.0787;0.1763
0000195898;-1.4868;-7.7524;3.1939;0.6704;0.0428;0.1419
0000195906;-0.8954;-7.6160;3.0215;0.6303;-0.0249;0.0809
0000195917;-0.4980;-8.3462;2.7749;0.5384;-0.1202;-0.0189
0000195925;-0.2155;-8.2265;2.5379;0.4487;-0.1808;-0.0835
0000195936;0.2418;-7.9942;2.4612;0.2494;-0.3234;-0.2213
0000195944;-0.1676;-8.0996;2.4301;0.0895;-0.3718;-0.3175
0000195955;-1.0104;-7.6614;2.3080;-0.0947;-0.3475;-0.4022
0000195963;-2.1859;-7.5058;2.4205;-0.1444;-0.3102;-0.4187
0000195974;-3.3375;-8.0014;2.9521;-0.1422;-0.2991;-0.4092
0000195982;-3.8690;-8.3989;3.2825;-0.1065;-0.2956;-0.3924
0000195990;-3.9600;-8.2504;3.4405;-0.0842;-0.2731;-0.3492
0000196001;-3.8618;-8.1379;3.6392;-0.0502;-0.2415;-0.3142
0000196009;-3.5530;-8.1810;3.7182;-0.0226;-0.2037;-0.2908
0000196020;-3.1603;-8.1499;3.7158;0.0598;-0.1707;-0.2777
0000196028;-2.9185;-8.1355;3.6990;0.1174;-0.1294;-0.2547
0000196039;-2.4972;-7.6638;3.6224;0.1835;-0.0830;-0.2541
0000196047;-2.5067;-7.3765;3.5003;0.2085;-0.0358;-0.2557
0000196100;-3.6895;-7.6160;3.1771;0.1252;0.2348;-0.2188
0000196108;-3.9720;-8.0541;3.2992;0.0757;0.2277;-0.2647
0000196121;-2.6073;-7.5609;3.0813;0.0193;0.2415;-0.3292
0000196130;-1.4820;-7.1802;2.9736;0.0199;0.2992;-0.4056
0000196139;-1.4820;-7.4986;2.9090;0.0833;0.3305;-0.4903
0000196151;-2.3463;-7.8937;2.9521;0.1737;0.3367;-0.6110
0000196160;-2.7964;-8.1882;3.1220;0.2240;0.3452;-0.6698
0000196172;-3.4524;-8.4563;2.9928;0.2762;0.3309;-0.7143
0000196181;-3.7110;-8.7460;2.9209;0.3132;0.3244;-0.6837
0000196195;-3.3686;-8.8753;2.6743;0.3749;0.3027;-0.5825
0000196204;-3.3184;-8.9663;2.5738;0.4171;0.2611;-0.5207
0000196216;-3.0957;-9.1530;2.2553;0.4542;0.2170;-0.4219
0000196225;-2.6145;-8.8490;2.1620;0.4547;0.1940;-0.3608
0000196234;-2.5379;-8.6598;1.8603;0.4429;0.1559;-0.3269
0000196245;-2.3894;-8.3366;1.9585;0.3940;0.1102;-0.3412
0000196254;-2.4972;-8.0661;1.8268;0.3293;0.1168;-0.3444
0000196266;-3.0574;-8.3342;1.9920;0.2386;0.0925;-0.3665
0000196275;-2.8515;-8.3366;1.9824;0.1889;0.0665;-0.3853
0000196330;-2.9161;-8.5880;2.1691;-0.0317;0.0657;-0.2835
0000196339;-3.3758;-8.8370;2.1883;-0.0257;0.0458;-0.2499
0000196351;-3.5698;-8.9376;2.2170;-0.0173;0.0277;-0.2037
0000196360;-3.3734;-9.1004;2.2721;-0.0232;0.0112;-0.1647
0000196371;-2.9640;-8.8849;2.1284;-0.0494;-0.0135;-0.1274
0000196380;-2.8132;-8.8394;2.0853;-0.0667;-0.0361;-0.1123
0000196389;-2.7078;-8.7891;2.1835;-0.0945;-0.0394;-0.0957
0000196401;-2.9090;-8.8657;2.2098;-0.1172;-0.0554;-0.0819
0000196410;-2.8180;-8.8705;2.2434;-0.1254;-0.0814;-0.0813
0000196421;-2.8012;-8.9256;2.2625;-0.1359;-0.0935;-0.0675
0000196430;-2.8826;-8.9783;2.3655;-0.1292;-0.1065;-0.0473
0000196442;-2.9353;-9.0812;2.4469;-0.1110;-0.1226;-0.0264
0000196451;-3.0742;-9.1889;2.4780;-0.0855;-0.1387;-0.0100
0000196462;-2.9281;-9.0644;2.5235;-0.0606;-0.1450;0.0028
0000196471;-2.8419;-8.8657;2.5450;-0.0377;-0.1466;0.0152
0000196483;-2.9281;-8.9591;2.5977;-0.0213;-0.1444;0.0181
0000196492;-2.7845;-8.8418;2.5498;-0.0085;-0.1384;0.0213
0000196501;-2.8874;-8.8011;2.5953;-0.0107;-0.1336;0.0265
0000196512;-2.8539;-8.8705;2.6719;-0.0112;-0.1214;0.0261
0000196521;-2.6839;-8.7724;2.5905;-0.0159;-0.1112;0.0286
0000196533;-2.8036;-8.7293;2.7007;-0.0222;-0.0982;0.0274
0000196542;-2.9904;-8.9280;2.6767;-0.0285;-0.0858;0.0184
0000196596;-2.7461;-8.8370;2.7438;-0.0213;-0.0217;0.0216
0000196605;-2.6504;-8.7819;2.6791;-0.0217;-0.0129;0.0176
0000196617;-2.9113;-8.8969;2.6791;-0.0147;-0.0011;0.0144
0000196626;-2.6983;-8.8178;2.6624;-0.0116;0.0065;0.0249
0000196637;-2.9137;-8.8849;2.5809;-0.0157;0.0179;0.0389
0000196646;-2.8539;-8.9184;2.6600;-0.0165;0.0225;0.0464
0000196655;-2.8587;-8.8801;2.5546;-0.0197;0.0250;0.0545
0000196667;-2.9640;-8.8945;2.5666;-0.0220;0.0282;0.0655
0000196676;-2.7701;-8.7676;2.5379;-0.0301;0.0361;0.0785
0000196687;-2.9808;-8.8657;2.5211;-0.0218;0.0346;0.0835
0000196696;-2.7821;-8.7317;2.4636;-0.0203;0.0322;0.0838
0000196708;-2.8347;-8.7795;2.5546;-0.0175;0.0366;0.0847
0000196717;-3.0311;-8.7628;2.4421;-0.0215;0.0341;0.0891
0000196728;-2.8730;-8.8394;2.5426;-0.0141;0.0272;0.0831
0000196737;-2.7390;-8.6072;2.4565;-0.0160;0.0254;0.0906
0000196746;-3.1268;-8.8657;2.4421;-0.0125;0.0234;0.0831
0000196758;-2.7892;-8.7149;2.4086;-0.0081;0.0168;0.0838
0000196767;-2.8922;-8.6407;2.3894;0.0023;0.0089;0.0814
0000196778;-2.8323;-8.6455;2.4181;0.0028;-0.0031;0.0775
0000196787;-2.7869;-8.5521;2.3200;-0.0024;-0.0047;0.0781
0000196799;-2.8659;-8.6503;2.3607;-0.0019;-0.0143;0.0697
0000196808;-2.6600;-8.4683;2.3870;0.0059;-0.0241;0.0648
0000196862;-2.7964;-8.4731;2.4469;-0.0097;-0.0468;0.0281
0000196871;-2.6360;-8.4683;2.4253;0.0009;-0.0577;0.0155
0000196880;-2.8347;-8.4539;2.4038;-0.0044;-0.0520;0.0156
0000196892;-2.7749;-8.4779;2.3415;-0.0068;-0.0602;0.0083
0000196901;-2.8347;-8.5880;2.3727;-0.0039;-0.0671;-0.0052
0000196912;-2.7246;-8.4563;2.4301;-0.0200;-0.0565;-0.0063
0000196921;-2.7318;-8.5281;2.5259;-0.0191;-0.0533;-0.0152
0000196933;-2.6863;-8.3366;2.5786;-0.0168;-0.0481;-0.0218
0000196942;-2.9281;-8.5952;2.5786;-0.0151;-0.0442;-0.0277
0000196953;-2.8754;-8.5425;2.6025;-0.0063;-0.0381;-0.0318
0000196962;-2.7964;-8.5712;2.5666;-0.0035;-0.0309;-0.0345
0000196974;-2.7509;-8.4803;2.5019;0.0040;-0.0272;-0.0344
0000196983;-2.9257;-8.8131;2.5307;0.0063;-0.0260;-0.0430
0000196994;-2.9090;-8.5856;2.4804;0.0063;-0.0237;-0.0416
0000197003;-2.9664;-8.6191;2.5115;0.0047;-0.0300;-0.0496
0000197012;-2.8539;-8.5449;2.4301;-0.0029;-0.0298;-0.0473
0000197024;-2.9521;-8.6646;2.4301;-0.0029;-0.0365;-0.0482
0000197033;-2.7294;-8.6550;2.4062;-0.0112;-0.0280;-0.0424
0000197044;-2.9616;-8.6526;2.4493;-0.0065;-0.0349;-0.0465
0000197053;-2.7557;-8.6215;2.5187;-0.0132;-0.0204;-0.0413
0000197065;-2.9497;-8.5952;2.5235;-0.0067;-0.0167;-0.0410
0000197074;-2.8515;-8.6838;2.4565;0.0025;-0.0215;-0.0441
0000197128;-2.8611;-8.6933;2.3822;-0.0023;-0.0053;-0.0385
0000197137;-2.8084;-8.7125;2.4852;-0.0013;-0.0132;-0.0412
0000197149;-2.7533;-8.7125;2.4445;-0.0032;-0.0133;-0.0346
0000197158;-3.0023;-8.7125;2.3822;-0.0112;-0.0173;-0.0302
0000197167;-3.0119;-8.7939;2.3343;-0.0161;-0.0209;-0.0208
0000197178;-2.8970;-8.6359;2.4756;-0.0188;-0.0256;-0.0153
0000197187;-2.9257;-8.7795;2.4852;-0.0216;-0.0236;-0.0108
0000197199;-2.9497;-8.7149;2.5115;-0.0234;-0.0221;-0.0041
0000197208;-2.8659;-8.7340;2.4636;-0.0212;-0.0229;0.0023
0000197219;-2.7414;-8.5258;2.4086;-0.0145;-0.0220;0.0047
0000197228;-2.8419;-8.6024;2.4493;-0.0157;-0.0193;-0.0005
0000197240;-2.8180;-8.7053;2.4732;-0.0109;-0.0228;0.0019
0000197249;-2.7198;-8.6311;2.4565;-0.0124;-0.0181;0.0092
0000197260;-2.8922;-8.6718;2.4588;-0.0088;-0.0230;0.0071
0000197269;-2.9377;-8.6790;2.4445;-0.0083;-0.0310;0.0092
0000197281;-2.8587;-8.5617;2.3415;-0.0121;-0.0257;0.0141
0000197290;-2.8491;-8.5593;2.3415;-0.0159;-0.0228;0.0159
0000197299;-2.7916;-8.5377;2.4493;-0.0107;-0.0253;0.0152
0000197310;-2.9066;-8.6455;2.4325;-0.0077;-0.0326;0.0149
0000197319;-2.9592;-8.7364;2.4301;-0.0173;-0.0302;0.0115
0000197331;-2.5762;-8.4994;2.4445;-0.0084;-0.0353;0.0107
0000197340;-2.9305;-8.6910;2.4804;-0.0181;-0.0276;0.0139
0000197395;-2.7174;-8.5473;2.4612;-0.0060;-0.0357;0.0001
0000197404;-2.8515;-8.5856;2.4660;-0.0124;-0.0268;0.0008
0000197416;-2.8084;-8.5880;2.4900;-0.0152;-0.0270;-0.0053
0000197425;-2.7509;-8.3534;2.4780;-0.0172;-0.0256;-0.0132
0000197436;-2.8108;-8.4970;2.4157;-0.0081;-0.0365;-0.0272
0000197445;-2.8419;-8.5760;2.4612;-0.0124;-0.0329;-0.0242
0000197454;-2.9042;-8.6479;2.3822;-0.0088;-0.0362;-0.0286
0000197466;-2.6624;-8.4132;2.4229;-0.0117;-0.0406;-0.0401
0000197475;-2.7054;-8.4659;2.4924;-0.0144;-0.0397;-0.0410
0000197486;-2.8084;-8.5401;2.4445;-0.0176;-0.0318;-0.0440
0000197495;-2.9928;-8.6407;2.4924;-0.0164;-0.0254;-0.0369
0000197507;-2.8419;-8.6407;2.5594;-0.0109;-0.0238;-0.0438
0000197516;-2.6647;-8.6095;2.5857;-0.0144;-0.0196;-0.0494
0000197527;-2.7964;-8.5856;2.6121;-0.0105;-0.0149;-0.0506
0000197536;-2.9161;-8.8083;2.4636;-0.0157;-0.0101;-0.0434
0000197549;-2.9999;-8.6694;2.4708;-0.0184;-0.0020;-0.0229
0000197558;-3.0502;-8.8011;2.5379;-0.0151;-0.0016;-0.0111
0000197567;-3.1053;-8.8825;2.4708;-0.0204;-0.0037;0.0051
0000197579;-2.9137;-8.7795;2.5091;-0.0199;0.0041;0.0230
0000197588;-3.0478;-8.8083;2.5857;-0.0121;-0.0015;0.0298
0000197599;-2.9449;-8.6933;2.4900;-0.0133;0.0024;0.0366
0000197608;-3.0718;-8.8011;2.6217;-0.0145;0.0091;0.0536
0000197662;-2.8659;-8.7795;2.5139;0.0155;0.0490;0.1013
0000197671;-2.9760;-8.7676;2.5402;0.0261;0.0502;0.1100
0000197682;-3.1843;-8.9040;2.4948;0.0364;0.0565;0.1294
0000197691;-3.1077;-8.7724;2.5379;0.0458;0.0588;0.1320
0000197700;-3.0095;-8.6670;2.5115;0.0608;0.0600;0.1471
0000197712;-2.9544;-8.5210;2.4014;0.0630;0.0594;0.1528
0000197721;-2.8802;-8.4683;2.3415;0.0617;0.0646;0.1560
0000197732;-2.8659;-8.4252;2.2122;0.0518;0.0640;0.1631
0000197741;-2.8156;-8.3701;2.2386;0.0485;0.0550;0.1519
0000197753;-3.0191;-8.4563;2.2146;0.0349;0.0476;0.1588
0000197762;-2.9209;-8.4084;2.1428;0.0197;0.0389;0.1524
0000197773;-2.9736;-8.4587;2.0901;0.0036;0.0285;0.1553
0000197782;-2.9616;-8.2504;2.1404;-0.0296;0.0240;0.1533
0000197791;-3.0789;-8.5258;2.1644;-0.0438;0.0132;0.1568
0000197803;-2.9880;-8.3869;2.1045;-0.0617;-0.0091;0.1487
0000197812;-3.0023;-8.2121;2.1141;-0.0710;-0.0163;0.1492
0000197823;-2.9664;-8.3414;2.1308;-0.0827;-0.0234;0.1475
0000197832;-2.9784;-8.3199;2.1931;-0.0758;-0.0429;0.1330
0000197844;-2.9736;-8.2097;2.1668;-0.0761;-0.0569;0.1259
0000197853;-2.8683;-8.0014;2.0901;-0.0777;-0.0689;0.1126
0000197864;-3.0335;-8.0828;2.1524;-0.0633;-0.0921;0.0914
0000197873;-2.7845;-8.0445;2.0830;-0.0637;-0.0977;0.0793
0000197928;-3.0406;-8.2432;2.2338;-0.1139;-0.1939;0.0147
0000197937;-2.9975;-8.2121;2.2601;-0.1419;-0.1883;0.0143
0000197946;-3.0287;-8.1642;2.3080;-0.1600;-0.1943;0.0027
0000197957;-2.8970;-8.2001;2.3487;-0.1888;-0.1881;-0.0087
0000197966;-2.7605;-8.1139;2.4205;-0.2038;-0.1748;-0.0112
0000197978;-2.7222;-8.1618;2.4684;-0.1924;-0.1679;-0.0336
0000197987;-2.4086;-7.9344;2.5402;-0.1863;-0.1600;-0.0482
0000197998;-2.3415;-7.9990;2.5881;-0.1565;-0.1511;-0.0726
0000198007;-2.4253;-8.0780;2.7725;-0.1284;-0.1486;-0.0930
0000198019;-2.6145;-8.2361;2.8299;-0.0799;-0.1338;-0.1088
0000198028;-2.7653;-8.1930;2.8611;-0.0578;-0.1163;-0.1180
0000198039;-2.8156;-8.3175;2.8276;-0.0220;-0.0941;-0.1366
0000198048;-2.8276;-8.3007;2.8036;-0.0064;-0.0666;-0.1398
0000198057;-2.7701;-8.2552;2.7007;0.0188;-0.0548;-0.1545
0000198069;-2.8539;-8.3797;2.6073;0.0314;-0.0433;-0.1761
0000198078;-2.7892;-8.2361;2.5833;0.0456;-0.0493;-0.1997
0000198089;-2.8922;-8.2815;2.4588;0.0373;-0.0485;-0.2030
0000198098;-2.9521;-8.4228;2.4660;0.0278;-0.0505;-0.2018
0000198110;-2.9425;-8.3390;2.4277;0.0103;-0.0628;-0.2134
0000198119;-2.9281;-8.6024;2.4517;0.0035;-0.0667;-0.2192
0000198130;-2.6600;-8.3701;2.4804;-0.0195;-0.0642;-0.2165
0000198139;-2.7773;-8.5593;2.4900;-0.0241;-0.0645;-0.2225
0000198193;-2.8587;-8.6335;2.4349;-0.0569;-0.0694;-0.2160
0000198202;-2.8108;-8.6455;2.4541;-0.0464;-0.0802;-0.2116
0000198211;-2.8204;-8.6742;2.4660;-0.0364;-0.0887;-0.2134
0000198222;-2.8395;-8.7604;2.4397;-0.0320;-0.0911;-0.2032
0000198231;-2.9113;-8.7724;2.5043;-0.0304;-0.0991;-0.2001
0000198243;-3.0071;-8.8011;2.4972;-0.0318;-0.1041;-0.1881
0000198252;-2.8563;-8.8609;2.5642;-0.0320;-0.0995;-0.1724
0000198263;-2.8874;-8.8681;2.5929;-0.0362;-0.0989;-0.1585
0000198272;-2.8635;-9.0285;2.6624;-0.0297;-0.1065;-0.1559
0000198284;-2.7366;-8.8298;2.5833;-0.0244;-0.1071;-0.1564
0000198293;-2.9042;-8.9711;2.5786;-0.0218;-0.0981;-0.1491
0000198304;-2.7414;-8.8969;2.6671;-0.0187;-0.0942;-0.1403
0000198313;-2.6743;-8.7532;2.6887;-0.0145;-0.0918;-0.1396
0000198325;-2.8443;-8.8681;2.6815;-0.0089;-0.0882;-0.1294
0000198334;-2.6791;-8.7436;2.6408;-0.0121;-0.0790;-0.1276
0000198343;-2.7869;-8.8370;2.6217;-0.0077;-0.0841;-0.1266
0000198354;-2.7174;-8.8155;2.6671;-0.0165;-0.0725;-0.1126
0000198363;-2.6911;-8.8825;2.7150;-0.0135;-0.0799;-0.1178
0000198375;-2.5426;-8.7676;2.6169;-0.0139;-0.0762;-0.1104
0000198384;-2.7869;-8.8705;2.6743;-0.0193;-0.0754;-0.1059
0000198395;-2.8850;-8.9136;2.6528;-0.0262;-0.0783;-0.1123
0000198404;-2.7174;-8.9759;2.6695;-0.0266;-0.0763;-0.1077
0000198458;-2.5331;-8.6910;2.6695;-0.0241;-0.0622;-0.0906
0000198467;-2.7749;-8.9926;2.8635;-0.0274;-0.0504;-0.0829
0000198478;-2.7653;-9.0453;2.6743;-0.0277;-0.0469;-0.0786
0000198487;-2.7031;-8.9208;2.6360;-0.0230;-0.0526;-0.0754
0000198499;-2.6863;-8.9878;2.6647;-0.0250;-0.0485;-0.0679
0000198508;-2.7557;-9.0860;2.6935;-0.0164;-0.0560;-0.0698
0000198517;-2.5881;-8.9495;2.6528;-0.0161;-0.0537;-0.0667
0000198528;-2.7198;-9.0644;2.6408;-0.0167;-0.0598;-0.0577
0000198537;-2.5594;-8.8849;2.6049;-0.0266;-0.0484;-0.0574
0000198549;-2.8204;-9.0525;2.7605;-0.0163;-0.0584;-0.0621
0000198558;-2.7078;-9.0094;2.6504;-0.0222;-0.0477;-0.0574
0000198569;-2.6145;-9.0453;2.6935;-0.0222;-0.0577;-0.0609
0000198578;-2.5881;-8.9639;2.7198;-0.0177;-0.0584;-0.0646
0000198590;-2.7366;-8.9974;2.6791;-0.0160;-0.0565;-0.0618
0000198599;-2.5690;-8.8969;2.6815;-0.0152;-0.0578;-0.0622
0000198610;-2.8323;-9.1411;2.6073;-0.0163;-0.0569;-0.0646
0000198619;-2.6624;-8.9854;2.6815;-0.0225;-0.0505;-0.0576
0000198631;-2.7605;-8.9902;2.6911;-0.0204;-0.0493;-0.0569
0000198640;-2.5331;-8.8873;2.7102;-0.0151;-0.0542;-0.0592
0000198649;-2.6863;-9.1028;2.7461;-0.0199;-0.0516;-0.0552
0000198660;-2.6647;-9.1075;2.7054;-0.0211;-0.0454;-0.0521
0000198669;-2.7461;-9.0956;2.8060;-0.0173;-0.0393;-0.0421
0000198723;-2.5881;-9.0022;2.6576;-0.0189;-0.0276;-0.0316
0000198732;-2.6743;-9.0022;2.7485;-0.0197;-0.0245;-0.0272
0000198743;-2.6983;-9.1267;2.7150;-0.0165;-0.0249;-0.0222
0000198752;-2.6647;-8.9998;2.7509;-0.0133;-0.0288;-0.0221
0000198764;-2.7054;-9.2440;2.7054;-0.0183;-0.0274;-0.0201
0000198773;-2.6647;-9.0549;2.6767;-0.0248;-0.0213;-0.0155
0000198784;-2.8276;-9.2584;2.7174;-0.0173;-0.0204;-0.0144
0000198793;-2.7126;-9.1937;2.7533;-0.0124;-0.0282;-0.0155
0000198805;-2.6671;-9.0860;2.7031;-0.0141;-0.0238;-0.0077
0000198814;-2.7964;-9.1099;2.6695;-0.0101;-0.0317;-0.0088
0000198823;-2.7102;-9.1674;2.7078;-0.0073;-0.0294;-0.0048
0000198834;-2.6025;-9.0621;2.7749;-0.0091;-0.0273;-0.0011
0000198843;-2.8060;-9.2177;2.7007;-0.0140;-0.0278;0.0056
0000198856;-2.6073;-9.0214;2.8012;-0.0120;-0.0245;0.0031
0000198865;-2.6145;-9.0932;2.6887;-0.0105;-0.0216;0.0085
0000198877;-2.6025;-9.1315;2.7246;-0.0067;-0.0205;0.0076
0000198886;-2.5738;-8.9160;2.6911;-0.0140;-0.0136;0.0083
0000198897;-2.6336;-8.9064;2.6887;-0.0107;-0.0212;0.0052
0000198906;-2.6312;-9.0932;2.6480;-0.0097;-0.0187;0.0124
0000198960;-2.6193;-8.8705;2.7318;-0.0068;-0.0244;0.0068
