time;acc_x;acc_y;acc_z;gyro_x;gyro_y;gyro_z
0000466030;6.0286;-6.1004;9.5840;-0.0749;-0.0188;-0.2499
0000466039;6.1004;-6.0118;9.6822;-0.0729;-0.0043;-0.2450
0000466047;6.1268;-5.9927;9.7133;-0.0649;0.0000;-0.2450
0000466055;6.1938;-5.9400;9.7492;-0.0529;-0.0025;-0.2493
0000466063;6.1962;-5.9687;9.9288;-0.0462;0.0019;-0.2470
0000466071;6.3398;-5.9328;9.8545;-0.0310;0.0029;-0.2583
0000466079;6.3231;-5.8059;9.8881;-0.0084;-0.0017;-0.2606
0000466087;6.3255;-6.0047;9.7564;0.0056;-0.0112;-0.2621
0000466095;6.2848;-6.0214;9.8019;0.0297;-0.0179;-0.2587
0000466103;6.3494;-6.0190;9.7396;0.0565;-0.0314;-0.2614
0000466111;6.0549;-6.2369;9.7276;0.0663;-0.0374;-0.2490
0000466119;6.0956;-6.2177;9.7276;0.0838;-0.0364;-0.2373
0000466127;5.9065;-6.3590;9.7468;0.0914;-0.0418;-0.2169
0000466135;5.7988;-6.3925;9.6893;0.1037;-0.0504;-0.1941
0000466143;5.8155;-6.4715;9.6510;0.1038;-0.0430;-0.1563
0000466151;5.7174;-6.4165;9.7205;0.1143;-0.0488;-0.1327
0000466159;5.6431;-6.3303;9.6678;0.1310;-0.0613;-0.1073
0000466167;5.6407;-6.5386;9.6151;0.1284;-0.0628;-0.0694
0000466175;5.4468;-6.5960;9.5193;0.1262;-0.0847;-0.0378
0000466183;5.6264;-6.4356;9.5481;0.1347;-0.1019;-0.0083
0000466191;5.3870;-6.6870;9.5481;0.1346;-0.1151;0.0246
0000466199;5.7054;-6.4691;9.5936;0.1367;-0.1276;0.0545
0000466207;5.6767;-6.4667;9.6271;0.1502;-0.1338;0.0797
0000466215;5.7221;-6.5266;9.7492;0.1608;-0.1304;0.0958
0000466223;5.9544;-6.4428;9.7300;0.1498;-0.1172;0.1207
0000466231;6.0980;-6.5170;9.7348;0.1531;-0.1057;0.1264
0000466239;6.2680;-6.4117;9.8641;0.1583;-0.0927;0.1407
0000466247;6.2872;-6.4260;9.8976;0.1648;-0.0705;0.1476
0000466255;6.4332;-6.4500;9.7683;0.1880;-0.0714;0.1406
0000466263;6.5481;-6.4979;9.6726;0.1990;-0.0628;0.1423
0000466271;6.6702;-6.4907;9.5696;0.2089;-0.0572;0.1380
0000466279;6.5098;-6.6679;9.3685;0.2129;-0.0561;0.1308
0000466287;6.5841;-6.5888;9.3063;0.2074;-0.0661;0.1182
0000466295;6.4667;-6.5697;9.0836;0.1937;-0.0687;0.1111
0000466303;6.4548;-6.5242;9.1195;0.1616;-0.0610;0.1111
0000466311;6.4428;-6.5841;9.1506;0.1338;-0.0605;0.1038
0000466319;6.3351;-6.6367;9.1099;0.1078;-0.0537;0.1009
0000466327;6.2704;-6.7445;9.1961;0.0838;-0.0430;0.1069
0000466335;6.3183;-6.4883;9.3039;0.0695;-0.0406;0.1085
0000466343;6.0813;-6.6439;9.3374;0.0585;-0.0356;0.1172
0000466351;5.9568;-6.6248;9.4906;0.0537;-0.0310;0.1350
0000466359;5.7533;-6.7708;9.4116;0.0532;-0.0384;0.1391
0000466367;5.7030;-6.9576;9.5337;0.0604;-0.0490;0.1532
0000466375;5.7245;-6.9240;9.5864;0.0677;-0.0496;0.1756
0000466383;5.6910;-6.8259;9.5888;0.0683;-0.0557;0.1905
0000466391;5.7245;-6.8522;9.4930;0.0773;-0.0730;0.1962
0000466399;5.5857;-7.1419;9.6079;0.0731;-0.0726;0.2248
0000466407;5.6192;-7.1922;9.4116;0.0693;-0.0683;0.2502
0000466415;5.5498;-7.1635;9.4308;0.0747;-0.0811;0.2737
0000466423;5.5857;-6.9528;9.2560;0.0683;-0.0815;0.2968
0000466431;5.4708;-7.0485;9.3518;0.0532;-0.0710;0.3183
0000466439;5.5091;-7.1371;9.2225;0.0362;-0.0731;0.3351
0000466447;5.4324;-7.2089;9.0549;0.0080;-0.0691;0.3457
0000466455;5.5019;-7.2377;8.8801;-0.0153;-0.0743;0.3673
0000466463;5.5952;-7.1228;8.8346;-0.0526;-0.0842;0.3817
0000466471;5.5426;-7.1778;8.7005;-0.0830;-0.1059;0.3981
0000466479;5.5929;-7.2281;8.6574;-0.1254;-0.1136;0.4178
0000466487;5.5498;-7.2113;8.5425;-0.1478;-0.1231;0.4295
0000466495;5.5785;-7.2664;8.7149;-0.1791;-0.1503;0.4323
0000466503;5.6934;-7.1922;8.7436;-0.2088;-0.1589;0.4365
0000466511;5.9975;-6.8785;8.6503;-0.2365;-0.1848;0.4306
0000466519;5.8849;-7.0797;8.8729;-0.2625;-0.1976;0.4165
0000466527;6.3015;-6.7636;9.1411;-0.2686;-0.2033;0.3997
0000466535;6.5481;-6.6248;9.4715;-0.2759;-0.1974;0.3730
0000466543;7.1275;-6.2920;9.8641;-0.2786;-0.1853;0.3412
0000466551;7.9464;-5.5354;10.3860;-0.2581;-0.1548;0.2879
0000466559;8.5593;-5.3702;10.6255;-0.2594;-0.0589;0.2316
0000466567;9.1099;-5.0542;10.9463;-0.2866;0.0843;0.1745
0000466575;9.3182;-5.4324;11.1354;-0.3367;0.2806;0.1462
0000466583;9.0285;-5.6575;10.9654;-0.3536;0.4369;0.1176
0000466591;8.1211;-6.0621;10.8457;-0.2926;0.5045;0.0822
0000466599;7.0222;-6.3398;10.5321;-0.2073;0.4907;0.0705
0000466622;4.7716;-6.1172;9.5768;-0.0246;0.2505;0.1116
0000466630;4.2521;-6.0813;9.2081;0.0011;0.1696;0.1503
0000466638;3.8307;-6.1555;8.8466;0.0103;0.1128;0.2076
0000466646;3.8140;-6.1411;8.6503;0.0157;0.0738;0.2864
0000466654;4.0534;-6.1292;8.3582;-0.0049;0.0726;0.3836
0000466662;4.3790;-5.9592;8.2097;-0.0482;0.0943;0.4790
0000466670;4.7980;-6.0837;8.2600;-0.1053;0.1182;0.5604
0000466678;5.6168;-5.8945;8.3893;-0.1811;0.1584;0.6375
0000466686;5.8897;-6.1004;8.7269;-0.2678;0.1868;0.6931
0000466694;6.4380;-5.9161;8.9854;-0.3369;0.2093;0.7201
0000466702;6.9192;-5.9568;9.3781;-0.3941;0.2137;0.7374
0000466710;7.1587;-6.0142;9.7252;-0.4263;0.1919;0.7233
0000466718;7.4603;-5.9855;10.1682;-0.4467;0.1647;0.7083
0000466726;7.5848;-6.1603;10.4579;-0.4433;0.1120;0.6845
0000466734;7.5298;-6.2656;10.7500;-0.4274;0.0516;0.6571
0000466742;7.6806;-6.1076;10.8912;-0.3945;-0.0237;0.6322
0000466750;7.7189;-6.1555;11.1091;-0.3447;-0.0797;0.6183
0000466758;7.5346;-6.1124;11.0684;-0.2895;-0.1311;0.6054
0000466766;7.4651;-6.0382;10.9678;-0.2186;-0.1757;0.5923
0000466774;7.0868;-6.0047;10.9271;-0.1411;-0.2156;0.6021
0000466782;7.3047;-5.7988;10.8409;-0.0679;-0.2614;0.6013
0000466790;7.5322;-5.4899;10.5369;-0.0035;-0.2914;0.6141
0000466798;7.3167;-5.5665;10.4459;0.0628;-0.3268;0.6127
0000466806;7.6902;-5.4755;10.2520;0.1098;-0.3425;0.6158
0000466814;7.8937;-5.2840;10.0628;0.1544;-0.3516;0.6171
0000466822;7.8554;-5.1882;9.7851;0.2008;-0.3615;0.6174
0000466830;8.2073;-5.0326;9.6750;0.2465;-0.3664;0.6037
0000466838;7.9320;-5.4420;9.7013;0.2831;-0.3603;0.5903
0000466846;8.0206;-5.2816;9.5241;0.3190;-0.3608;0.5665
0000466854;8.1355;-5.4205;9.5361;0.3463;-0.3444;0.5423
0000466862;7.9990;-5.5354;9.3565;0.3579;-0.3357;0.5161
0000466870;8.3103;-5.4420;9.2751;0.3528;-0.3171;0.4935
0000466878;8.2337;-5.5043;9.1482;0.3420;-0.2992;0.4648
0000466886;8.3079;-5.6216;9.1626;0.3260;-0.2846;0.4435
0000466894;8.2289;-5.7461;8.9567;0.3079;-0.2789;0.4138
0000466902;8.4851;-5.7221;8.9280;0.2761;-0.2617;0.4033
0000466910;8.6263;-5.6168;8.8562;0.2457;-0.2634;0.3812
0000466918;8.4994;-5.9137;8.8250;0.2000;-0.2587;0.3717
0000466926;8.3869;-6.1411;8.7891;0.1498;-0.2634;0.3624
0000466934;8.4348;-6.0454;8.9376;0.0965;-0.2610;0.3461
0000466942;8.3701;-6.1339;8.9854;0.0630;-0.2683;0.3256
0000466950;8.1786;-6.0669;9.0118;0.0381;-0.2534;0.3135
0000466958;8.1092;-6.2273;9.1866;0.0236;-0.2479;0.2966
0000466966;8.0517;-6.2225;9.2392;0.0107;-0.2326;0.2975
0000466974;8.0014;-6.0262;9.2943;0.0068;-0.2154;0.3016
0000466982;7.8051;-5.9280;9.3805;0.0145;-0.1974;0.3019
0000466990;7.6686;-5.9472;9.4619;0.0222;-0.1711;0.3167
0000466998;7.6327;-5.9041;9.5050;0.0422;-0.1655;0.3182
0000467006;7.8266;-5.7341;9.5122;0.0604;-0.1470;0.3356
0000467014;7.4555;-5.9280;9.5337;0.0862;-0.1287;0.3423
0000467022;7.7357;-5.7509;9.4691;0.1135;-0.1180;0.3487
0000467030;7.7285;-5.9280;9.4355;0.1331;-0.0961;0.3529
0000467038;7.7381;-5.8466;9.2775;0.1511;-0.0698;0.3515
0000467046;7.7668;-5.9161;9.2296;0.1775;-0.0549;0.3455
0000467054;7.8817;-5.9185;9.1028;0.1841;-0.0294;0.3389
0000467062;8.2097;-5.9448;9.1051;0.1873;-0.0113;0.3254
0000467070;8.0565;-6.0214;8.9878;0.1940;-0.0001;0.2964
0000467078;8.2073;-6.0478;8.8753;0.1839;0.0164;0.2803
0000467086;8.6191;-5.8419;8.8681;0.1636;0.0277;0.2531
0000467094;8.6024;-5.8897;8.7963;0.1431;0.0305;0.2301
0000467102;8.5928;-6.0118;8.8562;0.1143;0.0461;0.2068
0000467110;8.4946;-5.9999;8.8657;0.0929;0.0533;0.1763
0000467118;8.2217;-6.1603;8.9663;0.0710;0.0597;0.1589
0000467126;8.2935;-6.1220;9.1315;0.0412;0.0646;0.1388
0000467134;8.1714;-6.1004;9.3518;0.0217;0.0681;0.1318
0000467142;7.9703;-6.0382;9.3733;0.0139;0.0698;0.1260
0000467150;7.8314;-6.1555;9.4834;0.0056;0.0803;0.1251
0000467158;7.6399;-6.1076;9.5864;0.0152;0.0917;0.1284
0000467166;7.6662;-6.0047;9.6558;0.0309;0.0937;0.1298
0000467174;7.5106;-6.0454;9.6678;0.0509;0.1029;0.1378
0000467182;7.5034;-5.9304;9.5648;0.0715;0.1099;0.1407
0000467190;7.6112;-5.9424;9.4786;0.0813;0.1214;0.1466
0000467198;7.5034;-5.9520;9.3589;0.0823;0.1339;0.1545
0000467264;7.5178;-5.8586;9.1650;0.0079;0.2024;0.1895
0000467272;7.3813;-5.8395;9.3063;0.0077;0.2012;0.1909
0000467280;7.3406;-5.7916;9.3182;0.0144;0.2114;0.2072
0000467288;7.2425;-5.7437;9.4212;0.0177;0.2188;0.2196
0000467296;7.2377;-5.5545;9.5433;0.0362;0.2153;0.2364
0000467304;6.9911;-5.3774;9.6582;0.0517;0.2193;0.2610
0000467312;6.8785;-5.3534;9.8402;0.0568;0.2133;0.2898
0000467320;6.6679;-5.3917;9.9671;0.0709;0.2038;0.3082
0000467328;6.4500;-5.4205;10.1418;0.0990;0.1831;0.3335
0000467336;6.4189;-5.3199;10.2208;0.1412;0.1695;0.3547
0000467344;6.5960;-5.0350;10.3214;0.1811;0.1625;0.3825
0000467352;6.5673;-5.0877;10.3573;0.2189;0.1455;0.4078
0000467360;6.6128;-5.1068;10.3334;0.2706;0.1292;0.4263
0000467368;6.8522;-4.8578;10.2400;0.3026;0.1260;0.4630
0000467376;6.7971;-5.0733;10.1203;0.3224;0.1230;0.4974
0000467384;6.7828;-5.1284;10.0796;0.3365;0.1226;0.5139
0000467392;6.6846;-5.4205;9.9431;0.3224;0.1051;0.5055
0000467400;6.7828;-5.7533;9.8450;0.2545;0.0655;0.4726
0000467408;7.0198;-5.9711;9.7923;0.1668;-0.0059;0.4269
0000467416;7.2688;-5.9041;9.6774;0.0810;-0.0830;0.3909
0000467424;7.4436;-5.8897;9.8162;0.0207;-0.1680;0.3456
0000467432;7.8961;-5.7724;9.6079;0.0088;-0.2120;0.2972
0000467440;7.9966;-6.0382;9.5026;0.0366;-0.2041;0.2344
0000467448;8.0158;-6.2489;9.2249;0.0777;-0.1601;0.1709
0000467456;8.0493;-6.5338;8.9040;0.1207;-0.1112;0.0931
0000467464;8.2504;-6.6463;8.7747;0.1314;-0.0572;0.0245
0000467472;8.4874;-6.5290;8.6311;0.1264;-0.0234;-0.0456
0000467480;8.5186;-6.5697;8.5449;0.0919;0.0155;-0.1046
0000467488;8.5258;-6.4907;8.5377;0.0558;0.0418;-0.1688
0000467496;8.1786;-6.5601;8.7077;0.0218;0.0558;-0.2360
0000467504;8.1379;-6.5290;8.7580;-0.0059;0.0602;-0.2996
0000467512;7.6998;-6.6990;8.9974;-0.0302;0.0638;-0.3495
0000467520;7.4627;-6.6295;9.2129;-0.0486;0.0638;-0.3848
0000467528;7.0629;-6.5864;9.5146;-0.0456;0.0400;-0.4066
0000467536;6.5936;-6.7157;9.7923;-0.0428;0.0242;-0.4069
0000467544;6.4141;-6.8115;9.8067;-0.0373;0.0057;-0.4037
0000467552;5.9759;-6.8785;9.9551;-0.0249;-0.0215;-0.4028
0000467560;5.9256;-6.9216;10.0868;0.0019;-0.0374;-0.3936
0000467568;5.6790;-7.1754;9.9216;0.0184;-0.0494;-0.3873
0000467576;5.8682;-7.0701;9.8833;0.0426;-0.0626;-0.3826
0000467584;5.8634;-7.2257;9.5744;0.0590;-0.0771;-0.3687
0000467592;5.8969;-7.2377;9.4451;0.0719;-0.0783;-0.3599
0000467600;5.9448;-7.2113;9.2344;0.0626;-0.0791;-0.3425
0000467608;5.9065;-7.2544;9.1195;0.0388;-0.0671;-0.3239
0000467616;5.8849;-7.3095;9.0094;0.0124;-0.0558;-0.3124
0000467624;5.8442;-7.3215;8.9591;-0.0211;-0.0390;-0.2940
0000467632;5.6647;-7.3310;8.9232;-0.0670;-0.0107;-0.2721
0000467640;5.4779;-7.3310;8.9974;-0.1171;0.0109;-0.2451
0000467648;5.5210;-7.1706;9.1315;-0.1547;0.0301;-0.2117
0000467656;5.1787;-7.2856;9.1626;-0.1961;0.0525;-0.1681
0000467664;5.2505;-7.0629;9.3302;-0.2158;0.0638;-0.1326
0000467672;4.8914;-7.1994;9.3877;-0.2352;0.0839;-0.0849
0000467680;4.9440;-7.3358;9.4523;-0.2490;0.0889;-0.0538
0000467688;5.2960;-7.1994;9.4020;-0.2613;0.0934;-0.0172
0000467696;5.4851;-7.2688;9.3518;-0.2713;0.0867;-0.0007
0000467704;5.8466;-7.1251;9.3087;-0.2734;0.0815;0.0151
0000467712;5.8562;-7.4005;9.3398;-0.2775;0.0791;0.0207
0000467720;5.9472;-7.4364;9.4116;-0.2785;0.0666;0.0238
0000467728;6.0549;-7.4962;9.2009;-0.2790;0.0494;0.0224
0000467736;6.1794;-7.3933;9.3134;-0.2847;0.0521;0.0286
0000467744;6.2656;-7.3885;9.3709;-0.2834;0.0490;0.0201
0000467752;6.2225;-7.4124;9.3901;-0.2754;0.0401;0.0156
0000467760;6.1603;-7.5202;9.4260;-0.2763;0.0404;0.0208
0000467768;6.2417;-7.4651;9.5577;-0.2666;0.0312;0.0236
0000467776;6.1196;-7.4508;9.6391;-0.2514;0.0233;0.0290
0000467784;5.9975;-7.4867;9.6319;-0.2415;0.0161;0.0508
0000467792;5.8227;-7.4172;9.6367;-0.2310;0.0059;0.0678
0000467800;5.7078;-7.4531;9.5433;-0.2170;-0.0043;0.0859
0000467808;5.7102;-7.4579;9.5577;-0.2193;-0.0250;0.1035
0000467816;5.3343;-7.6710;9.4810;-0.2082;-0.0494;0.1188
0000467824;5.5282;-7.5058;9.4188;-0.2122;-0.0605;0.1376
0000467832;5.4779;-7.4819;9.4092;-0.2112;-0.0853;0.1587
0000467840;5.5665;-7.3239;9.3709;-0.2085;-0.0961;0.1801
0000467906;5.4300;-7.5298;9.6391;-0.1286;-0.1849;0.3673
0000467914;5.5809;-7.4220;9.5193;-0.1100;-0.2092;0.3797
0000467922;5.4588;-7.5441;9.4906;-0.0866;-0.2205;0.4009
0000467930;5.5737;-7.4005;9.5050;-0.0500;-0.2390;0.4122
0000467938;5.7078;-7.5513;9.6055;-0.0348;-0.2423;0.4255
0000467946;5.7389;-7.5968;9.5241;-0.0276;-0.2413;0.4315
0000467954;5.8658;-7.5489;9.4882;-0.0242;-0.2413;0.4369
0000467962;5.9448;-7.3526;9.5409;-0.0172;-0.2206;0.4531
0000467970;6.0238;-7.1682;9.5864;-0.0301;-0.2042;0.4639
0000467978;6.2896;-7.1060;9.7923;-0.0316;-0.1988;0.4691
0000467986;6.2656;-6.9240;9.9599;-0.0276;-0.1861;0.4822
0000467994;6.3494;-6.8354;9.9838;-0.0037;-0.1833;0.4790
0000468002;6.1914;-6.7325;10.1730;0.0372;-0.1663;0.4943
0000468010;6.3494;-6.7086;10.2759;0.0863;-0.1540;0.4995
0000468018;6.1675;-6.5841;10.4555;0.1247;-0.1478;0.5215
0000468026;6.2249;-6.5386;10.5943;0.1732;-0.1399;0.5297
0000468034;6.3398;-6.3398;10.6829;0.2419;-0.1300;0.5272
0000468042;6.3470;-6.2201;10.6973;0.3030;-0.0973;0.5248
0000468050;6.2417;-6.1172;10.7188;0.3511;-0.0602;0.5169
0000468058;6.6008;-5.7461;10.7069;0.3918;-0.0164;0.5004
0000468066;6.6463;-5.7006;10.5369;0.4294;0.0281;0.4815
0000468074;6.7804;-5.5952;10.5082;0.4431;0.0775;0.4692
0000468082;6.9839;-5.5833;10.2304;0.4674;0.0993;0.4467
0000468090;7.1395;-5.5115;9.9240;0.4702;0.1066;0.4265
0000468098;7.1611;-5.4995;9.4691;0.4698;0.0789;0.4014
0000468106;7.1228;-5.6216;9.5553;0.4695;0.0548;0.3789
0000468114;6.9911;-5.7796;8.8418;0.4375;0.0048;0.3569
0000468122;6.7277;-5.7940;8.6215;0.3948;-0.0281;0.3421
0000468130;6.8067;-5.6767;8.4252;0.3456;-0.0448;0.3307
0000468138;6.5769;-5.9879;8.2983;0.2887;-0.0596;0.3191
0000468146;6.6463;-6.0693;8.4252;0.2234;-0.0614;0.3127
0000468154;6.5194;-6.1675;8.5210;0.1623;-0.0689;0.2948
0000468162;6.8833;-6.0765;8.8011;0.1095;-0.0609;0.2746
0000468170;7.1994;-6.0669;9.2105;0.0763;-0.0763;0.2338
0000468178;7.6447;-5.9520;9.5912;0.0734;-0.0835;0.1915
0000468186;7.8578;-6.1387;9.9886;0.0911;-0.0873;0.1250
0000468194;8.2097;-6.0406;10.3262;0.1190;-0.0799;0.0525
0000468202;8.4252;-6.0501;10.6255;0.1599;-0.0642;-0.0248
0000468210;8.7460;-6.1723;10.6925;0.2306;-0.0516;-0.1228
0000468218;8.7173;-6.3973;10.7021;0.3115;-0.0160;-0.2224
0000468226;8.7556;-6.3446;10.7188;0.3930;0.0108;-0.3391
0000468234;8.7915;-6.4620;10.5943;0.4804;0.0270;-0.4632
0000468242;8.8011;-6.5027;10.3621;0.5420;0.0400;-0.5828
0000468250;8.7484;-6.2537;10.0700;0.5997;0.0352;-0.7020
0000468258;8.5904;-6.2968;9.8114;0.6524;0.0281;-0.8175
0000468266;8.5808;-6.2489;9.4403;0.6860;0.0349;-0.9222
0000468274;8.3677;-6.1794;9.0812;0.7149;0.0354;-1.0196
0000468282;8.2193;-6.2153;8.7891;0.7147;0.0500;-1.1028
0000468290;7.9033;-6.3255;8.6000;0.6976;0.0727;-1.1844
0000468298;7.9272;-6.1986;8.3294;0.6808;0.0885;-1.2650
0000468306;7.8889;-5.9975;8.2073;0.6526;0.1062;-1.3238
0000468314;7.7524;-5.9807;8.1044;0.6271;0.1244;-1.3893
0000468322;7.6614;-5.7916;8.0373;0.5893;0.1382;-1.4385
0000468330;7.5609;-5.9735;7.9464;0.5554;0.1378;-1.4911
0000468338;7.6591;-5.9161;7.8482;0.5272;0.1367;-1.5493
0000468346;7.5034;-6.2153;7.9176;0.4964;0.1412;-1.6046
0000468354;7.8099;-5.9256;7.9583;0.4779;0.1536;-1.6646
0000468362;7.8171;-6.2968;8.0038;0.4706;0.1531;-1.7135
0000468370;7.8865;-6.2608;7.9464;0.4481;0.1677;-1.7954
0000468378;8.2073;-6.3207;7.9942;0.4359;0.1736;-1.8848
0000468386;8.4874;-6.3087;7.8697;0.4293;0.1667;-1.9726
0000468394;8.5784;-6.3997;7.7979;0.4351;0.1482;-2.0751
0000468402;8.7843;-6.3973;7.7405;0.4243;0.1419;-2.1554
0000468410;8.7795;-6.3063;7.6447;0.4226;0.1344;-2.2382
0000468418;8.8873;-6.4739;7.6184;0.4291;0.1371;-2.3181
0000468426;8.6622;-6.4189;7.4268;0.4438;0.1560;-2.3730
0000468434;8.4300;-6.4021;7.3717;0.4667;0.1827;-2.4050
0000468442;8.5880;-6.5529;7.2784;0.4542;0.1952;-2.4437
0000468450;8.2815;-6.6679;7.0078;0.4518;0.1832;-2.4712
0000468458;7.8985;-6.6846;6.9384;0.4620;0.1962;-2.4752
0000468466;7.7740;-6.7229;6.7157;0.4775;0.2038;-2.4781
0000468474;7.5705;-7.0126;6.7493;0.4683;0.2298;-2.4750
0000468541;7.4005;-7.0629;7.0749;0.2441;0.2478;-2.6614
0000468549;7.3143;-6.9384;7.1730;0.2362;0.2442;-2.6740
0000468557;7.1778;-6.9288;7.2903;0.2297;0.2583;-2.6689
0000468565;6.9145;-6.9504;7.3454;0.2457;0.2501;-2.6677
0000468573;6.7373;-6.9671;7.5226;0.2738;0.2453;-2.6528
0000468581;6.9480;-6.7062;7.5178;0.3008;0.2345;-2.6426
0000468589;6.9097;-6.6200;7.6279;0.3385;0.2105;-2.6516
0000468597;7.1347;-6.5074;7.5585;0.3794;0.1783;-2.6418
0000468605;7.5609;-6.3877;7.5202;0.4128;0.1422;-2.6424
0000468613;8.0325;-6.3614;7.3310;0.4638;0.0917;-2.6626
0000468621;8.2121;-6.3853;7.3287;0.5019;0.0584;-2.6696
0000468629;8.7987;-6.3782;7.0916;0.5356;0.0270;-2.7169
0000468637;9.0022;-6.4524;6.8091;0.5704;0.0125;-2.7633
0000468645;9.2727;-6.5218;6.3853;0.5973;0.0168;-2.8100
0000468653;9.7252;-6.5864;6.1531;0.5953;0.0540;-2.8290
0000468661;9.9288;-6.6272;5.8514;0.5994;0.0935;-2.8398
0000468669;10.1131;-6.5721;5.5474;0.6110;0.1533;-2.8336
0000468677;9.8450;-6.7564;5.2265;0.6237;0.2016;-2.8170
0000468685;9.3996;-6.8283;5.0589;0.6312;0.2361;-2.8214
0000468693;8.6670;-7.1778;4.7956;0.6038;0.2697;-2.8037
0000468701;8.4228;-7.1635;4.5514;0.5685;0.2862;-2.7836
0000468709;7.8434;-7.5202;4.4365;0.5208;0.3063;-2.7559
0000468717;7.2233;-7.4723;4.4819;0.4846;0.3102;-2.7244
0000468725;6.8594;-7.5800;4.4724;0.4750;0.3191;-2.6905
0000468733;6.0908;-7.9224;4.8171;0.4579;0.3513;-2.6434
0000468741;5.4516;-8.4156;4.8914;0.4040;0.3981;-2.6033
0000468749;4.9919;-8.8226;4.8961;0.3599;0.4739;-2.5814
0000468757;4.6448;-9.0956;5.0206;0.3182;0.5379;-2.5936
0000468765;4.4652;-9.1985;5.1236;0.3064;0.5860;-2.6092
0000468773;4.4077;-9.2440;5.3582;0.3187;0.6098;-2.6131
0000468781;3.9552;-9.3661;5.6623;0.3540;0.6150;-2.6057
0000468789;3.6536;-8.5808;6.4356;0.4339;0.6298;-2.5520
0000468797;2.9951;-6.1675;7.7045;0.6675;0.6703;-2.4445
0000468805;2.0470;-1.0080;10.1993;1.1310;0.7241;-2.1815
0000468813;0.3687;7.4531;13.8098;1.7453;0.7573;-1.7277
0000468821;-2.9209;9.4954;18.1026;2.0763;0.7907;-1.0359
0000468829;-10.3669;7.8721;23.7553;1.3679;0.8799;-0.7009
0000468837;-18.6436;3.6200;28.0600;-0.3604;1.2196;-0.4358
0000468845;-21.8375;-0.5698;26.1495;-0.7161;1.6822;0.2232
0000468853;-20.4537;-3.0957;23.0849;0.5448;1.8078;0.8572
0000468861;-13.0987;-2.2362;21.0809;1.5900;1.7632;0.9998
0000468869;-5.4420;-1.5850;19.3691;1.4885;1.9361;0.7413
0000468877;1.5371;-0.3735;18.2893;0.9907;2.2688;0.4616
0000468885;6.9695;-0.6225;18.2917;0.5301;2.7107;0.2457
0000468893;10.5082;-3.4285;18.2486;0.3379;2.9735;0.0542
0000468901;11.9423;-6.3710;17.9876;0.4393;2.9745;-0.1976
0000468909;12.3349;-8.1762;18.1576;0.7206;2.8683;-0.5208
0000468917;10.4339;-9.2009;17.6022;1.1746;2.8530;-0.8879
0000468925;8.0517;-10.3717;16.1537;1.8278;3.0000;-1.1291
0000468933;6.4643;-11.8633;14.0396;2.3086;3.1413;-1.1527
0000468941;5.8730;-12.9550;11.8752;2.6032;3.2365;-1.0311
0000468949;5.8107;-13.5991;9.7516;2.7182;3.2806;-0.8164
0000468957;6.1842;-13.6637;8.3725;2.8126;3.2644;-0.5853
0000468965;7.3765;-12.5384;7.2449;2.7867;3.1038;-0.4096
0000468973;8.7795;-12.7515;6.0885;2.7339;2.8611;-0.2831
0000468981;9.4930;-13.1226;4.9033;2.6688;2.5879;-0.3379
0000468989;8.8466;-13.4602;3.8331;2.5695;2.5174;-0.6259
0000468997;8.8202;-14.1282;2.6911;2.5067;2.5980;-0.9820
0000469005;8.9304;-14.1114;1.6735;2.4800;2.7500;-1.3785
0000469013;9.0525;-13.9558;1.0918;2.5178;2.9419;-1.8025
0000469021;9.2871;-13.5847;0.4501;2.6308;3.1443;-2.1778
0000469029;9.6893;-13.4722;-0.2514;2.8073;3.3632;-2.4505
0000469037;10.1682;-13.2950;0.0000;3.0040;3.5745;-2.6362
0000469045;10.6135;-12.8233;-0.5291;3.1006;3.7121;-2.7079
0000469053;11.3030;-11.7124;-0.7997;3.1034;3.8196;-2.6317
0000469061;11.4754;-10.4890;-0.6201;2.9314;3.8413;-2.3811
0000469069;12.1290;-9.1650;-0.9936;2.8278;3.8300;-2.0953
0000469077;12.6222;-6.1124;-1.1468;2.8591;3.7764;-1.7483
0000469085;13.2328;-2.9856;-2.0686;3.1537;3.6989;-1.4578
0000469093;12.9526;-0.5411;-2.7533;3.7635;3.5337;-1.3873
0000469101;11.7627;-0.9673;-3.2968;4.3656;3.2900;-1.5186
0000469109;9.6103;-1.6616;-3.7661;4.3656;2.8829;-1.8186
0000469117;7.4388;-1.2522;-4.8243;4.3656;2.2958;-2.3811
0000469183;-23.2357;-6.3877;-7.3981;3.8217;-1.6101;-1.1580
0000469191;-49.7802;-11.0421;-12.5432;3.2608;0.8528;-4.2438
0000469199;-78.4532;-28.4264;-27.3011;4.2034;4.3656;-4.3657
0000469207;-78.4532;-23.3985;-31.8070;4.3656;4.3656;-4.3657
0000469215;-78.4532;-39.9808;-36.6241;2.3850;4.3656;-4.3657
0000469223;-13.8098;-17.9278;-28.8310;1.7902;3.2416;-4.3657
0000469231;13.1849;-0.6177;4.3814;2.7903;0.4359;-4.3136
0000469239;19.2637;16.1848;-15.5120;3.3417;-1.1127;-1.0003
0000469247;16.8552;11.4467;-11.7771;3.1818;-3.2899;1.4361
0000469255;15.4713;2.1356;-2.5522;1.5126;-3.2347;2.1737
0000469263;9.3326;-4.2641;0.4142;-1.1660;-2.4050;2.1468
0000469271;4.6088;-5.8371;-4.1899;-3.5574;-1.8870;1.3484
0000469279;0.1508;-6.2608;-5.1044;-4.3657;-0.9270;0.2326
0000469287;-2.5331;-8.1427;-4.7453;-4.3657;0.0140;-0.5576
0000469295;-3.5865;-10.2927;-3.7709;-4.3657;0.5486;-0.9310
0000469303;-3.3279;-11.7747;-2.9808;-4.3657;0.5812;-0.9455
0000469311;-3.2106;-12.9838;-2.6480;-4.3211;0.2399;-0.7738
0000469319;-3.4572;-13.3381;-2.7198;-3.6368;-0.3577;-0.6217
0000469327;-3.7110;-13.1777;-2.5115;-2.8762;-0.9125;-0.5173
0000469335;-3.4620;-11.8010;-2.6719;-2.1032;-1.2886;-0.4834
0000469343;-4.0845;-11.5568;-2.3296;-1.4522;-1.4727;-0.5013
0000469351;-3.5386;-10.6901;-2.2936;-0.9970;-1.4862;-0.5490
0000469359;-3.0502;-10.1730;-2.0039;-0.7488;-1.3895;-0.4991
0000469367;-2.6240;-6.7086;-1.9489;-0.7020;-1.2981;-0.3782
0000469375;-1.4150;-10.0916;-1.2043;-0.7088;-1.1141;-0.2866
0000469383;-1.0008;-10.7787;-2.4995;-0.7753;-1.0036;-0.3480
0000469391;-0.5914;-12.2416;-1.9345;-0.8063;-0.8571;-0.5428
0000469399;-0.6129;-12.8257;-2.6743;-0.8055;-0.6587;-0.8470
0000469407;-1.2857;-13.3501;-2.2242;-0.8056;-0.4696;-1.1696
0000469415;-1.2522;-12.7132;-2.8587;-0.8152;-0.2242;-1.4990
0000469423;-1.5730;-13.1537;-4.2617;-0.8897;0.0310;-1.8082
0000469431;-1.0918;-12.1889;-4.7094;-0.9657;0.2236;-1.9488
0000469439;2.8515;-7.0892;-5.5162;-1.0745;0.2839;-1.8065
0000469447;-1.6975;-11.3605;-5.5186;-1.2554;0.3557;-1.6851
0000469455;-1.5921;-11.0445;-5.0470;-1.3925;0.2406;-1.5756
0000469463;-2.0423;-10.9678;-6.3782;-1.4865;0.0829;-1.4517
0000469471;-3.2058;-11.9614;-6.3829;-1.5203;-0.0293;-1.4100
0000469479;-2.8826;-11.9327;-5.8634;-1.5050;-0.1182;-1.3498
0000469487;-4.2186;-12.0285;-6.1603;-1.4703;-0.2450;-1.4169
0000469495;-3.4309;-11.9231;-5.0087;-1.4353;-0.3845;-1.1551
0000469503;-2.7366;-11.9423;-4.9321;-1.4125;-0.6563;-1.0805
0000469511;-2.0590;-11.9590;-4.2114;-1.2809;-0.7817;-0.9453
0000469519;-1.9632;-11.9351;-3.7852;-1.1306;-0.9481;-0.9423
0000469527;-2.1261;-12.1889;-3.2633;-0.9336;-1.0880;-0.9587
0000469535;-1.8579;-11.8896;-3.1747;-0.7945;-1.1704;-0.8327
0000469543;-2.2314;-12.0620;-2.5187;-0.7083;-1.2180;-0.7995
0000469551;-1.9297;-11.8513;-2.2721;-0.6243;-1.2481;-0.7770
0000469559;-2.1237;-12.3876;-1.5419;-0.5524;-1.2016;-0.7846
0000469567;-2.1787;-12.3780;-1.1468;-0.4599;-1.1584;-0.7089
0000469575;-1.8962;-11.6095;-0.8308;-0.2951;-1.1314;-0.6390
0000469583;-2.0542;-12.2272;-0.5938;-0.1899;-1.0427;-0.6003
0000469591;-1.9010;-11.4515;-0.3208;-0.0120;-0.9910;-0.5586
0000469599;-2.1261;-11.6933;-0.3998;0.0841;-0.8717;-0.5109
0000469607;-2.2984;-11.5999;-0.2322;0.1681;-0.8150;-0.4916
0000469615;-2.5881;-11.2743;-0.3184;0.2469;-0.7737;-0.4838
0000469623;-2.8443;-11.1761;-0.5363;0.3015;-0.7234;-0.4489
0000469631;-2.8922;-10.9607;-0.4788;0.3327;-0.6904;-0.4241
0000469639;-3.0143;-10.9295;-0.4812;0.3607;-0.6827;-0.4106
0000469647;-3.2561;-11.0804;-0.6249;0.3737;-0.7069;-0.4167
0000469655;-3.2154;-10.6877;-0.7039;0.3798;-0.7204;-0.4502
0000469663;-2.5163;-10.4507;-0.8404;0.3948;-0.7524;-0.4531
0000469671;-2.3774;-10.9032;-0.7111;0.4150;-0.7963;-0.4535
0000469679;-2.5738;-11.0899;-0.4070;0.4254;-0.8372;-0.4515
0000469687;-2.6624;-10.9678;-0.4381;0.4463;-0.8565;-0.4270
0000469695;-2.6600;-10.9798;-0.2227;0.4583;-0.8599;-0.3854
0000469703;-2.5043;-10.8457;-0.1269;0.4738;-0.8609;-0.3453
0000469711;-2.6025;-11.0373;-0.0503;0.4922;-0.8740;-0.3299
0000469719;-2.5546;-11.0373;0.1413;0.5112;-0.8438;-0.2987
0000469781;-2.2936;-11.2791;0.7494;0.5990;-0.8144;-0.1395
0000469789;-2.4828;-11.3916;0.6823;0.6014;-0.8131;-0.1026
0000469797;-2.4205;-11.3964;0.7398;0.6126;-0.8070;-0.0705
0000469805;-2.4301;-11.3413;0.9768;0.6121;-0.8139;-0.0386
0000469813;-2.2242;-11.1594;1.1396;0.5965;-0.8051;0.0100
0000469821;-2.2122;-11.1522;1.2857;0.5813;-0.7954;0.0261
0000469829;-2.0853;-11.1498;1.4365;0.5609;-0.7925;0.0481
0000469837;-2.2913;-11.1929;1.7214;0.5486;-0.7572;0.0566
0000469845;-2.3008;-11.0301;1.7621;0.5175;-0.7189;0.0617
0000469853;-2.2242;-11.0349;1.9513;0.4960;-0.6726;0.0774
0000469861;-2.2577;-10.9798;1.9872;0.4648;-0.6211;0.0981
0000469869;-2.0494;-11.0229;2.1859;0.4321;-0.5588;0.1047
0000469877;-2.1715;-10.8481;2.2721;0.4009;-0.5028;0.0942
0000469885;-2.2793;-11.0109;2.3224;0.3724;-0.4423;0.0915
0000469893;-2.3008;-10.9535;2.2841;0.3355;-0.4052;0.0803
0000469901;-2.1141;-10.6805;2.1787;0.3032;-0.3639;0.0742
0000469909;-2.2290;-10.7188;2.1787;0.2635;-0.3305;0.0695
0000469917;-2.2601;-10.6805;2.1117;0.2325;-0.2922;0.0588
0000469925;-2.3391;-10.6710;2.2721;0.1924;-0.2622;0.0562
0000469933;-2.2865;-10.6207;2.2122;0.1635;-0.2377;0.0438
0000469941;-2.1859;-10.5225;2.1141;0.1432;-0.2014;0.0324
0000469949;-2.3008;-10.6422;2.1572;0.1238;-0.1792;0.0213
0000469957;-2.2889;-10.6111;2.0614;0.1041;-0.1547;0.0105
0000469965;-2.1380;-10.4627;2.1021;0.0845;-0.1430;-0.0064
0000469973;-2.3104;-10.5800;2.1021;0.0655;-0.1259;-0.0203
0000469981;-2.2122;-10.5058;2.1644;0.0416;-0.1047;-0.0302
0000469989;-1.9872;-10.3358;2.0423;0.0261;-0.0955;-0.0488
0000469997;-2.1476;-10.5824;2.0351;0.0075;-0.0737;-0.0586
0000470005;-2.1644;-10.4890;1.9632;0.0004;-0.0681;-0.0789
0000470013;-2.2673;-10.5943;1.9968;-0.0052;-0.0648;-0.0901
0000470021;-2.2458;-10.5608;1.8627;-0.0107;-0.0554;-0.0981
0000470029;-2.1428;-10.5058;1.8483;-0.0104;-0.0604;-0.1168
0000470037;-2.1763;-10.4818;1.7549;-0.0057;-0.0670;-0.1263
0000470045;-2.3415;-10.6159;1.8555;-0.0093;-0.0822;-0.1358
0000470053;-2.2769;-10.6614;1.7382;-0.0049;-0.0947;-0.1560
0000470061;-2.2338;-10.7739;1.8459;-0.0013;-0.1022;-0.1609
0000470069;-2.2482;-10.7859;1.8411;-0.0045;-0.1106;-0.1612
0000470077;-2.5426;-11.0804;1.8004;-0.0055;-0.1210;-0.1592
0000470085;-2.3343;-11.1091;1.9561;0.0067;-0.1294;-0.1482
0000470093;-2.5426;-11.2168;1.9393;0.0097;-0.1187;-0.1283
0000470101;-2.1404;-10.9032;1.8387;0.0234;-0.1323;-0.1187
0000470109;-2.0806;-10.8314;1.7430;0.0253;-0.1376;-0.1011
0000470117;-2.2913;-10.8194;1.7071;0.0460;-0.1603;-0.1010
0000470125;-2.2386;-10.7356;1.6520;0.0612;-0.1935;-0.1234
0000470133;-2.2505;-10.4890;1.5036;0.0789;-0.2158;-0.1435
0000470141;-2.2889;-10.6135;1.5299;0.0807;-0.2522;-0.1636
0000470149;-2.1787;-10.4722;1.4892;0.1090;-0.2936;-0.1962
0000470157;-2.0255;-10.5489;1.5969;0.1202;-0.3164;-0.2154
0000470165;-1.9896;-10.4962;1.9082;0.1211;-0.3307;-0.2473
0000470173;-2.1739;-10.6326;2.0590;0.1200;-0.3301;-0.2534
0000470181;-2.3008;-10.9439;2.1380;0.1296;-0.3139;-0.2617
0000470189;-2.1308;-11.0923;2.2027;0.1415;-0.2976;-0.2513
0000470197;-2.1141;-10.9535;2.1691;0.1729;-0.2813;-0.2378
0000470205;-2.1787;-11.0540;2.0159;0.1945;-0.2821;-0.2234
0000470213;-1.9082;-10.9583;1.8675;0.2128;-0.2785;-0.2049
0000470221;-2.0853;-11.1690;1.8747;0.2333;-0.2926;-0.1919
0000470229;-2.0399;-10.9343;2.0183;0.2538;-0.3140;-0.1604
0000470237;-2.0423;-10.5393;1.7645;0.2902;-0.3046;-0.1331
0000470245;-1.8387;-9.5888;1.5897;0.3271;-0.3087;-0.1210
0000470253;-1.7669;-8.9016;1.5036;0.3353;-0.3408;-0.1426
0000470261;-1.9632;-8.9280;1.6975;0.3110;-0.3928;-0.2269
0000470269;-2.4301;-9.8282;2.3703;0.2714;-0.4072;-0.3210
0000470277;-3.1651;-11.0995;3.1244;0.2246;-0.4002;-0.4161
0000470285;-2.9904;-11.9662;3.5099;0.2297;-0.3695;-0.4478
0000470293;-2.3200;-12.5241;3.3423;0.2567;-0.3028;-0.4203
0000470301;-1.6712;-12.6581;3.0694;0.2769;-0.2399;-0.2911
0000470309;-1.2594;-12.2535;2.7892;0.2867;-0.1919;-0.1541
0000470317;-1.1684;-12.2631;2.9832;0.2554;-0.1490;-0.0200
0000470325;-1.0080;-11.6382;2.9928;0.2300;-0.1412;0.0485
0000470435;-1.8651;-10.6350;2.3846;-0.0091;-0.1406;-0.1176
0000470443;-1.9297;-10.6183;2.4876;-0.0087;-0.1502;-0.1458
0000470451;-1.9106;-10.7476;2.4157;-0.0053;-0.1607;-0.1843
0000470459;-1.9369;-10.7404;2.5450;0.0008;-0.1780;-0.2069
0000470467;-1.9321;-10.8888;2.5522;0.0081;-0.1787;-0.2296
0000470475;-1.6831;-10.8864;2.5594;0.0127;-0.1796;-0.2268
0000470483;-1.8100;-11.1306;2.6480;0.0155;-0.1689;-0.2130
0000470491;-1.8244;-11.1690;2.7964;0.0120;-0.1571;-0.2069
0000470499;-1.8890;-11.1426;2.8754;0.0181;-0.1502;-0.2034
0000470507;-1.8986;-11.1713;2.8156;0.0101;-0.1392;-0.1951
0000470515;-1.6712;-11.1402;2.7390;0.0057;-0.1196;-0.1804
0000470523;-1.6903;-11.2360;2.7964;0.0117;-0.1099;-0.1816
0000470531;-1.7262;-11.3820;2.7150;0.0169;-0.0999;-0.1593
0000470539;-1.8292;-11.5185;2.8371;0.0179;-0.0935;-0.1346
0000470547;-1.7382;-11.3749;2.7821;0.0229;-0.0882;-0.1120
0000470555;-1.7909;-11.3796;2.7940;0.0413;-0.0911;-0.0862
0000470563;-1.8124;-11.4347;2.8515;0.0334;-0.0915;-0.0735
0000470571;-1.8028;-11.3509;2.8563;0.0309;-0.0833;-0.0549
0000470579;-1.6831;-11.2767;2.8276;0.0349;-0.0846;-0.0546
0000470587;-1.6640;-11.4108;2.8299;0.0280;-0.0730;-0.0465
0000470595;-1.5610;-11.2240;2.8754;0.0230;-0.0753;-0.0434
0000470603;-1.5778;-11.3988;2.9137;0.0318;-0.0725;-0.0441
0000470611;-1.5730;-11.3006;2.9090;0.0232;-0.0588;-0.0377
0000470619;-1.4724;-11.3413;2.9353;0.0163;-0.0556;-0.0330
0000470627;-1.5012;-11.4251;2.9521;0.0137;-0.0520;-0.0312
0000470635;-1.3982;-11.5185;2.9497;0.0104;-0.0418;-0.0226
0000470643;-1.6855;-11.6262;3.1101;-0.0041;-0.0310;-0.0055
0000470651;-1.8268;-11.7436;2.9688;-0.0081;-0.0278;0.0049
0000470659;-1.5921;-11.4371;2.8994;-0.0047;-0.0257;0.0061
0000470667;-1.6903;-11.3988;2.9832;-0.0116;-0.0144;0.0244
0000470675;-1.7262;-11.3868;2.8706;-0.0201;-0.0045;0.0333
0000470683;-1.4557;-11.3174;2.9856;-0.0139;-0.0025;0.0332
0000470691;-1.6568;-11.2527;2.8539;-0.0179;0.0032;0.0436
0000470699;-1.7238;-11.3054;2.8299;-0.0128;-0.0003;0.0436
0000470707;-1.5921;-11.2791;2.7533;-0.0179;0.0057;0.0568
0000470715;-1.6448;-11.1905;2.7557;-0.0209;0.0093;0.0667
0000470723;-1.7526;-11.4515;2.8252;-0.0117;0.0012;0.0628
0000470731;-1.7837;-11.3198;2.6983;-0.0167;0.0084;0.0785
0000470739;-1.6376;-11.2911;2.8635;-0.0127;0.0057;0.0803
0000470747;-1.6592;-11.4012;2.8180;-0.0048;0.0075;0.0863
0000470755;-1.7382;-11.3126;2.9209;-0.0084;0.0115;0.0975
0000470763;-1.7190;-11.2001;2.7629;-0.0107;0.0111;0.0974
0000470771;-1.5802;-11.0684;2.7964;-0.0067;0.0109;0.0978
0000470779;-1.8220;-11.2767;2.8180;-0.0101;0.0109;0.0941
0000470787;-1.7262;-11.1187;2.8132;-0.0128;0.0183;0.0966
0000470795;-1.6975;-11.1666;2.7749;-0.0140;0.0156;0.0975
0000470803;-1.6975;-11.1690;2.7270;-0.0124;0.0212;0.0966
0000470811;-1.7957;-11.2025;2.8778;-0.0188;0.0168;0.0951
0000470819;-1.7310;-11.0468;2.7533;-0.0228;0.0304;0.0999
0000470827;-1.6376;-11.1115;2.8467;-0.0262;0.0316;0.1038
0000470835;-1.8459;-11.1785;2.7988;-0.0258;0.0358;0.1006
0000470843;-1.8148;-11.0277;2.8659;-0.0293;0.0372;0.1013
0000470851;-1.7909;-11.0971;2.7629;-0.0317;0.0389;0.1005
0000470859;-1.8699;-11.1378;2.8156;-0.0288;0.0360;0.0926
0000470867;-1.6712;-11.0349;2.7126;-0.0421;0.0453;0.0919
0000470875;-1.7047;-11.0349;2.7749;-0.0489;0.0482;0.0846
0000470883;-1.7238;-10.9559;2.8299;-0.0494;0.0485;0.0718
0000470891;-1.7765;-11.0325;2.6839;-0.0517;0.0485;0.0711
0000470899;-1.8507;-11.0301;2.6911;-0.0594;0.0585;0.0718
0000470907;-1.8603;-11.1043;2.6935;-0.0553;0.0546;0.0657
0000470915;-1.9178;-11.1282;2.6576;-0.0518;0.0520;0.0596
0000470923;-1.8723;-11.0277;2.6193;-0.0573;0.0526;0.0592
0000470931;-1.8411;-10.8984;2.5331;-0.0573;0.0500;0.0516
0000470939;-1.8292;-11.0277;2.5953;-0.0644;0.0529;0.0493
0000470947;-1.8340;-10.9702;2.6815;-0.0636;0.0490;0.0385
0000470955;-1.7765;-10.8314;2.5977;-0.0576;0.0468;0.0240
0000470963;-1.9058;-10.8673;2.6264;-0.0659;0.0536;0.0264
0000470971;-1.8076;-10.9463;2.6025;-0.0670;0.0504;0.0117
0000470979;-1.8100;-10.8362;2.5881;-0.0584;0.0484;0.0003
0000470987;-1.6951;-10.8529;2.5498;-0.0646;0.0462;-0.0029
0000471051;-1.7693;-11.1474;2.4157;-0.0434;0.0120;-0.0188
0000471061;-1.8866;-11.0325;2.4541;-0.0444;0.0051;-0.0188
0000471070;-1.8340;-11.0588;2.5953;-0.0341;-0.0019;-0.0277
0000471079;-1.8675;-11.0109;2.5091;-0.0324;-0.0061;-0.0284
0000471088;-2.0303;-11.1139;2.5618;-0.0345;-0.0027;-0.0233
0000471097;-1.6879;-11.0373;2.5331;-0.0396;-0.0001;-0.0132
0000471106;-1.7358;-11.0804;2.5474;-0.0401;0.0051;-0.0072
0000471115;-1.8771;-11.2527;2.6839;-0.0372;0.0037;-0.0045
0000471124;-1.7885;-11.1809;2.6647;-0.0472;0.0189;0.0104
0000471133;-1.8387;-11.1953;2.5498;-0.0480;0.0155;0.0068
0000471142;-1.9776;-11.0421;2.5426;-0.0514;0.0258;0.0084
0000471151;-1.9513;-11.0373;2.5307;-0.0560;0.0244;0.0088
0000471160;-2.0734;-11.1977;2.5187;-0.0553;0.0209;0.0023
0000471169;-1.8866;-11.0756;2.5139;-0.0565;0.0234;0.0103
0000471178;-1.8316;-10.9630;2.4948;-0.0520;0.0149;0.0113
0000471187;-1.9537;-11.1666;2.4373;-0.0516;0.0128;0.0079
0000471196;-1.8100;-10.9439;2.4732;-0.0530;0.0075;0.0024
0000471205;-1.7358;-10.9200;2.5163;-0.0497;0.0013;-0.0012
0000471214;-1.8603;-11.0181;2.5163;-0.0454;-0.0024;-0.0040
0000471223;-1.8962;-11.0660;2.5594;-0.0516;0.0036;-0.0016
0000471232;-1.9489;-11.1235;2.4995;-0.0508;0.0073;-0.0077
0000471241;-1.9776;-11.0373;2.5594;-0.0502;0.0101;-0.0041
0000471250;-2.0183;-10.9774;2.4684;-0.0488;0.0059;-0.0148
0000471259;-1.8268;-10.9918;2.4636;-0.0506;0.0031;-0.0282
0000471268;-1.9106;-11.0397;2.4062;-0.0532;0.0100;-0.0280
0000471277;-2.0087;-11.0636;2.3894;-0.0454;-0.0012;-0.0438
0000471286;-1.7095;-11.0301;2.3894;-0.0412;-0.0053;-0.0417
0000471295;-1.8411;-11.0373;2.2362;-0.0349;-0.0135;-0.0444
0000471304;-1.9896;-11.1833;2.3176;-0.0316;-0.0266;-0.0450
0000471313;-1.7789;-11.0756;2.4181;-0.0230;-0.0317;-0.0474
0000471322;-1.8818;-11.1115;2.4565;-0.0183;-0.0413;-0.0505
0000471331;-1.8914;-11.1690;2.3463;-0.0196;-0.0354;-0.0492
0000471340;-1.9968;-11.0708;2.4301;-0.0169;-0.0441;-0.0516
0000471349;-1.7693;-10.9678;2.3248;-0.0180;-0.0425;-0.0500
0000471358;-1.9848;-11.1282;2.4062;-0.0177;-0.0426;-0.0534
0000471367;-1.9872;-11.3030;2.5307;-0.0163;-0.0437;-0.0550
0000471376;-1.7454;-10.9918;2.4014;-0.0120;-0.0494;-0.0573
0000471385;-1.9441;-11.1594;2.4445;-0.0183;-0.0442;-0.0536
0000471394;-1.9154;-11.1737;2.4229;-0.0200;-0.0430;-0.0486
0000471403;-1.9106;-11.1115;2.4828;-0.0127;-0.0440;-0.0536
0000471412;-1.8675;-11.1282;2.4636;-0.0139;-0.0436;-0.0513
0000471421;-1.8052;-11.1187;2.3511;-0.0189;-0.0441;-0.0542
0000471430;-1.9321;-11.1259;2.4253;-0.0192;-0.0450;-0.0550
0000471439;-1.8387;-11.2144;2.5019;-0.0254;-0.0362;-0.0510
0000471448;-1.8292;-11.2097;2.5163;-0.0175;-0.0450;-0.0592
0000471457;-1.9321;-11.2336;2.4828;-0.0282;-0.0314;-0.0501
0000471466;-1.8220;-11.2527;2.4588;-0.0226;-0.0408;-0.0561
0000471475;-1.8866;-11.2049;2.4995;-0.0233;-0.0373;-0.0544
0000471484;-1.9154;-11.2336;2.4732;-0.0329;-0.0248;-0.0421
0000471493;-1.7262;-11.0875;2.4253;-0.0276;-0.0269;-0.0474
0000471502;-1.9273;-11.1929;2.4972;-0.0342;-0.0270;-0.0404
0000471511;-1.7789;-11.1115;2.5618;-0.0290;-0.0284;-0.0420
0000471520;-1.7549;-11.0229;2.4014;-0.0404;-0.0164;-0.0422
0000471529;-1.9201;-11.1402;2.5283;-0.0393;-0.0168;-0.0450
0000471538;-1.7933;-11.0995;2.4732;-0.0381;-0.0225;-0.0562
0000471547;-1.7861;-11.0995;2.4277;-0.0428;-0.0147;-0.0556
0000471556;-1.8794;-11.0301;2.3966;-0.0448;-0.0207;-0.0637
0000471565;-1.8459;-11.1905;2.4876;-0.0444;-0.0137;-0.0630
0000471574;-1.8411;-11.2049;2.3846;-0.0362;-0.0192;-0.0693
0000471583;-1.9585;-11.2958;2.4253;-0.0412;-0.0175;-0.0675
0000471592;-1.8292;-11.1259;2.4277;-0.0356;-0.0246;-0.0727
0000471601;-1.8675;-11.3150;2.3798;-0.0334;-0.0292;-0.0765
0000471610;-1.8100;-11.1378;2.3679;-0.0374;-0.0265;-0.0735
0000471619;-1.8723;-11.2647;2.5163;-0.0294;-0.0393;-0.0771
0000471628;-1.8627;-11.2504;2.5283;-0.0290;-0.0413;-0.0723
0000471637;-1.6688;-11.2025;2.4493;-0.0308;-0.0338;-0.0661
0000471646;-1.6616;-11.1737;2.4995;-0.0312;-0.0328;-0.0626
0000471655;-1.7693;-11.2144;2.4038;-0.0345;-0.0277;-0.0597
0000471664;-1.6975;-11.2216;2.3966;-0.0358;-0.0278;-0.0537
0000471732;-1.8100;-11.3557;2.4277;-0.0232;-0.0268;-0.0261
0000471740;-1.8340;-11.3198;2.4301;-0.0181;-0.0346;-0.0304
0000471748;-1.9082;-11.4179;2.4038;-0.0217;-0.0258;-0.0215
0000471756;-1.9369;-11.3820;2.5474;-0.0173;-0.0334;-0.0252
0000471764;-1.6065;-11.1737;2.4301;-0.0149;-0.0308;-0.0145
0000471772;-1.8603;-11.2743;2.3511;-0.0159;-0.0268;-0.0072
0000471780;-1.9752;-11.4036;2.3439;-0.0168;-0.0329;-0.0151
0000471788;-1.6807;-11.1618;2.3152;-0.0065;-0.0396;-0.0151
0000471796;-2.0686;-11.4371;2.4517;-0.0091;-0.0386;-0.0128
