time;acc_x;acc_y;acc_z;gyro_x;gyro_y;gyro_z
0001141364;4.0247;2.4804;-3.0023;0.0388;-0.1172;-0.0100
0001141373;3.9720;2.4732;-3.0526;0.0410;-0.1258;-0.0168
0001141381;4.1252;2.6001;-3.0933;0.0432;-0.1252;-0.0131
0001141389;4.0199;2.5139;-3.0909;0.0336;-0.1151;-0.0056
0001141397;3.8738;2.3583;-3.0263;0.0310;-0.1054;0.0036
0001141405;3.7972;2.4014;-3.0119;0.0373;-0.1033;0.0112
0001141413;3.6512;2.4277;-3.0933;0.0437;-0.0873;0.0143
0001141421;3.6392;2.2194;-3.0909;0.0573;-0.0873;0.0096
0001141429;3.8499;2.2913;-3.0981;0.0542;-0.0817;0.0083
0001141437;4.0821;2.4134;-3.0502;0.0360;-0.0737;0.0081
0001141445;3.8762;2.1620;-3.1077;0.0203;-0.0766;-0.0076
0001141453;4.0079;2.3152;-3.1364;0.0037;-0.0829;-0.0083
0001141461;4.1084;2.4229;-3.1627;-0.0212;-0.0885;-0.0156
0001141469;4.1061;2.5690;-3.1196;-0.0187;-0.1006;-0.0289
0001141477;3.9744;2.4493;-3.0239;-0.0269;-0.1023;-0.0316
0001141485;3.9504;2.4732;-3.1627;-0.0208;-0.1026;-0.0426
0001141493;4.0941;2.6695;-3.1125;-0.0156;-0.1061;-0.0394
0001141501;3.7948;2.4421;-3.1220;-0.0081;-0.1043;-0.0305
0001141509;3.6871;2.4493;-3.0382;0.0016;-0.1013;-0.0268
0001141517;3.9624;2.5977;-2.9880;0.0189;-0.1057;-0.0184
0001141525;3.6368;2.3056;-3.0694;0.0215;-0.0985;-0.0089
0001141533;3.8140;2.4062;-3.0382;0.0203;-0.0923;-0.0036
0001141541;3.8978;2.4828;-2.9688;0.0221;-0.0947;-0.0097
0001141549;3.8499;2.2338;-2.9377;0.0284;-0.0991;-0.0180
0001141557;3.8116;2.1979;-3.0047;0.0204;-0.0987;-0.0159
0001141565;3.9265;2.3320;-3.0957;0.0133;-0.1088;-0.0121
0001141573;4.1084;2.4780;-3.1364;-0.0020;-0.1059;-0.0061
0001141581;4.1755;2.5331;-3.0885;-0.0032;-0.1158;-0.0017
0001141589;4.0582;2.5857;-3.0287;0.0112;-0.1326;-0.0068
0001141597;4.0414;2.5450;-3.0358;0.0234;-0.1230;-0.0041
0001141605;3.7637;2.2721;-2.8778;0.0406;-0.1260;-0.0092
0001141613;4.0342;2.5283;-2.9808;0.0420;-0.1215;-0.0057
0001141621;3.8140;2.3703;-3.0478;0.0390;-0.1118;-0.0099
0001141629;3.8834;2.4301;-3.0335;0.0286;-0.1094;-0.0069
0001141637;3.8666;2.3703;-3.0263;0.0200;-0.1067;-0.0071
0001141645;3.9361;2.4612;-3.1412;0.0096;-0.0909;0.0001
0001141653;3.7613;2.3559;-3.2034;0.0087;-0.0830;0.0045
0001141661;3.8618;2.5043;-3.2082;0.0140;-0.0654;0.0153
0001141669;3.8882;2.4828;-3.1436;0.0234;-0.0505;0.0217
0001141677;3.7709;2.5019;-3.1843;0.0340;-0.0442;0.0270
0001141685;3.9193;2.5905;-3.1963;0.0302;-0.0310;0.0322
0001141693;3.7182;2.3224;-3.1340;0.0248;-0.0272;0.0269
0001141701;3.7876;2.3296;-3.1963;0.0179;-0.0224;0.0172
0001141709;3.8690;2.2434;-3.1675;0.0003;-0.0076;0.0093
0001141717;3.5937;2.1835;-3.1460;-0.0228;0.0135;0.0017
0001141725;3.5793;2.2146;-2.9951;-0.0425;0.0336;0.0016
0001141733;3.5961;2.3152;-3.2944;-0.0671;0.0534;0.0129
0001141741;3.8020;2.3176;-3.3639;-0.0966;0.0711;0.0211
0001141749;3.8978;2.4086;-3.3184;-0.1160;0.0889;0.0163
0001141757;3.6248;2.4086;-3.1532;-0.1251;0.1088;0.0043
0001141765;3.6895;2.6264;-3.1675;-0.1182;0.1255;0.0076
0001141773;3.8116;2.7677;-3.2154;-0.1067;0.1503;0.0153
0001141781;3.7948;2.6887;-3.3998;-0.0961;0.1703;0.0173
0001141789;4.0821;2.8347;-3.4644;-0.0727;0.1900;0.0204
0001141797;3.5698;2.3152;-3.4333;-0.0685;0.2049;0.0288
0001141805;3.8571;2.4708;-3.4860;-0.0741;0.2304;0.0277
0001141813;3.7302;2.0758;-3.4692;-0.0851;0.2519;0.0225
0001141821;3.9863;2.3655;-3.5099;-0.1070;0.2682;0.0240
0001141829;3.8547;2.1931;-3.3591;-0.1190;0.2823;0.0121
0001141837;3.8211;2.3870;-3.3662;-0.1392;0.2944;-0.0044
0001141845;3.7948;2.1093;-3.2585;-0.1340;0.2928;-0.0254
0001141853;3.8978;2.1691;-3.3160;-0.1326;0.2944;-0.0406
0001141861;4.3551;2.4086;-3.3662;-0.1380;0.3036;-0.0494
0001141869;4.4125;2.3128;-3.4237;-0.1520;0.3054;-0.0633
0001141877;4.3958;2.2960;-3.4189;-0.1647;0.3024;-0.0718
0001141885;4.4580;2.2960;-3.3184;-0.1916;0.3143;-0.0663
0001141893;4.3527;2.3511;-3.3423;-0.2090;0.3187;-0.0628
0001141901;4.2353;2.2745;-3.3016;-0.2034;0.3199;-0.0561
0001141909;4.0869;2.4517;-3.2130;-0.1892;0.3309;-0.0449
0001141917;4.1204;2.3056;-3.1819;-0.1783;0.3469;-0.0316
0001141925;3.9456;2.3750;-3.1627;-0.1540;0.3627;-0.0221
0001141933;3.9504;2.2769;-3.0742;-0.1326;0.3660;-0.0336
0001141954;4.1252;2.2553;-3.0981;-0.1322;0.4044;-0.0608
0001141962;4.1180;2.4229;-2.9688;-0.1463;0.4070;-0.0865
0001141970;3.9863;2.4157;-3.0263;-0.1603;0.3990;-0.1118
0001141978;4.0390;2.4995;-2.8778;-0.1663;0.3986;-0.1276
0001141986;4.2210;2.5594;-2.8898;-0.1701;0.3914;-0.1464
0001141994;4.3981;2.7461;-2.9616;-0.1629;0.3960;-0.1475
0001142002;4.3598;2.5666;-3.0789;-0.1532;0.4109;-0.1511
0001142010;4.3407;2.7366;-3.0167;-0.1403;0.4074;-0.1434
0001142018;4.2593;2.7078;-3.1891;-0.1279;0.4110;-0.1246
0001142026;3.9217;2.5115;-3.1292;-0.1031;0.4138;-0.1092
0001142034;4.0821;2.7773;-3.1819;-0.0859;0.4207;-0.0987
0001142042;3.9217;2.5977;-3.1819;-0.0771;0.4327;-0.0885
0001142050;3.8020;2.5450;-3.2298;-0.0759;0.4571;-0.0813
0001142058;3.7397;2.3727;-3.2681;-0.0657;0.4756;-0.0905
0001142066;3.9887;2.6073;-3.2777;-0.0492;0.4872;-0.1082
0001142074;3.5937;2.2027;-3.3279;-0.0514;0.5057;-0.1194
0001142082;3.8427;2.2386;-3.1364;-0.0540;0.5141;-0.1347
0001142090;3.6751;2.0997;-3.1867;-0.0795;0.5333;-0.1367
0001142098;3.7828;2.1476;-3.1675;-0.1085;0.5530;-0.1358
0001142106;3.8355;2.1261;-3.1723;-0.1398;0.5676;-0.1540
0001142114;4.1420;2.4660;-3.1675;-0.1729;0.5710;-0.1792
0001142122;4.1827;2.4780;-3.3112;-0.2138;0.5801;-0.1981
0001142130;3.9816;2.5762;-3.2681;-0.2515;0.5861;-0.2234
0001142138;3.8403;2.5929;-3.1460;-0.2631;0.5777;-0.2473
0001142146;3.9289;2.7294;-3.0885;-0.2594;0.5756;-0.2646
0001142154;3.9073;2.7390;-2.9784;-0.2498;0.5850;-0.2649
0001142162;3.7445;2.5618;-2.8587;-0.2248;0.5882;-0.2671
0001142170;4.0486;2.7031;-2.7485;-0.1969;0.6035;-0.2447
0001142178;4.0510;2.4852;-2.6624;-0.1695;0.6230;-0.2273
0001142186;4.1156;2.3679;-2.7821;-0.1426;0.6217;-0.2061
0001142194;4.0007;2.2697;-2.7845;-0.1390;0.6299;-0.1724
0001142202;3.9241;2.0925;-2.8156;-0.1406;0.6271;-0.1537
0001142210;4.2760;2.2338;-2.8347;-0.1426;0.6085;-0.1471
0001142218;4.4245;2.1045;-2.8587;-0.1587;0.5978;-0.1448
0001142226;4.5322;2.1021;-2.9305;-0.1785;0.5778;-0.1612
0001142234;4.8554;2.3846;-3.0646;-0.2173;0.5580;-0.1783
0001142242;4.5945;2.5067;-3.1388;-0.2557;0.5389;-0.1928
0001142250;4.7166;2.6288;-3.1364;-0.2778;0.5135;-0.2152
0001142258;4.6567;2.7246;-3.0670;-0.2758;0.4878;-0.2240
0001142266;4.7764;2.8635;-3.0598;-0.2498;0.4688;-0.2429
0001142274;4.5705;2.7653;-2.9066;-0.2122;0.4676;-0.2422
0001142282;4.3000;2.6935;-2.8659;-0.1605;0.4587;-0.2429
0001142290;4.2665;2.6576;-2.8276;-0.1320;0.4672;-0.2296
0001142298;4.1539;2.4732;-2.8323;-0.1211;0.4768;-0.2248
0001142306;4.2258;2.4684;-2.9113;-0.1091;0.4872;-0.2113
0001142314;4.3479;2.4636;-2.9832;-0.1143;0.4854;-0.1965
0001142322;4.4053;2.4014;-3.0191;-0.1152;0.4734;-0.1933
0001142330;4.2018;2.1811;-3.0933;-0.1294;0.4650;-0.1912
0001142338;4.6088;2.3320;-3.0765;-0.1346;0.4450;-0.1980
0001142346;4.6831;2.1428;-3.1556;-0.1399;0.4295;-0.2189
0001142354;4.6040;2.3894;-3.1627;-0.1442;0.4135;-0.2258
0001142362;4.3455;2.3248;-3.1053;-0.1609;0.4054;-0.2290
0001142370;4.5466;2.6384;-3.1412;-0.1667;0.3714;-0.2356
0001142378;4.3670;2.5570;-3.0311;-0.1843;0.3580;-0.2260
0001142386;4.5226;2.7102;-3.0550;-0.1821;0.3419;-0.2241
0001142394;4.3455;2.6935;-2.8922;-0.1717;0.3396;-0.2102
0001142402;4.5945;2.7390;-2.9544;-0.1483;0.3348;-0.2016
0001142410;4.4388;2.7701;-2.9904;-0.1244;0.3303;-0.1945
0001142418;4.5945;2.7964;-2.9832;-0.0987;0.3325;-0.1873
0001142426;4.2737;2.7054;-3.0526;-0.0835;0.3443;-0.1767
0001142434;4.2880;2.5738;-3.0789;-0.0717;0.3499;-0.1832
0001142442;4.2162;2.3487;-3.1268;-0.0602;0.3507;-0.1990
0001142450;4.3167;2.4828;-3.1699;-0.0649;0.3469;-0.2122
0001142458;4.2473;2.3918;-3.2705;-0.0834;0.3416;-0.2193
0001142466;4.3072;2.3056;-3.2992;-0.0991;0.3242;-0.2365
0001142474;4.3120;2.1787;-3.2537;-0.1087;0.3095;-0.2423
0001142482;4.3072;2.1500;-3.2034;-0.1146;0.2892;-0.2535
0001142490;4.4053;2.3272;-3.0694;-0.1140;0.2670;-0.2667
0001142498;4.5466;2.2936;-3.0957;-0.1090;0.2561;-0.2746
0001142506;4.4676;2.3774;-3.1244;-0.1188;0.2678;-0.2677
0001142514;4.4628;2.4995;-3.1675;-0.1256;0.2665;-0.2625
0001142522;4.4604;2.5211;-3.1963;-0.1366;0.2646;-0.2433
0001142588;4.5945;2.2625;-3.1125;-0.0671;0.1998;-0.2731
0001142596;4.2928;2.0925;-3.2082;-0.0963;0.1729;-0.2935
0001142604;4.3670;2.0877;-3.2154;-0.1487;0.1671;-0.2938
0001142612;4.3239;2.2984;-3.3758;-0.1893;0.1507;-0.2918
0001142620;4.1994;2.2601;-3.3710;-0.2197;0.1383;-0.2910
0001142628;4.1156;2.4804;-3.4860;-0.2298;0.1448;-0.2790
0001142636;4.2234;2.5235;-3.5027;-0.2210;0.1519;-0.2802
0001142644;4.0510;2.4924;-3.4620;-0.2154;0.1745;-0.2650
0001142652;4.2138;2.5402;-3.4907;-0.2040;0.1827;-0.2634
0001142660;4.2042;2.3679;-3.3950;-0.1823;0.1753;-0.2634
0001142668;4.1970;2.3798;-3.4046;-0.1667;0.1739;-0.2579
0001142676;4.4676;2.3559;-3.3447;-0.1500;0.1571;-0.2646
0001142684;4.5514;2.0590;-3.3351;-0.1302;0.1468;-0.2751
0001142692;4.5681;1.9082;-3.4524;-0.1340;0.1346;-0.2854
0001142700;4.7214;1.9417;-3.4979;-0.1410;0.1124;-0.3028
0001142708;4.3527;1.8028;-3.3854;-0.1772;0.1124;-0.3064
0001142716;4.4700;1.9824;-3.5099;-0.2088;0.1026;-0.3092
0001142724;4.1204;1.9393;-3.6152;-0.2194;0.1009;-0.3000
0001142732;4.1061;1.8794;-3.6105;-0.2233;0.1144;-0.2874
0001142740;4.1420;1.9034;-3.4692;-0.1932;0.1087;-0.2856
0001142748;4.4173;2.0446;-3.4524;-0.1625;0.0959;-0.2878
0001142756;4.4484;1.8387;-3.5123;-0.1498;0.0874;-0.2938
0001142764;4.6088;1.8292;-3.6248;-0.1731;0.0825;-0.2954
0001142772;4.7118;1.7430;-3.7900;-0.2313;0.0658;-0.3071
0001142780;4.4484;1.4509;-3.8307;-0.2999;0.0687;-0.3120
0001142788;4.8100;1.6783;-4.0342;-0.3685;0.0690;-0.3162
0001142796;4.7764;1.6305;-4.0079;-0.4345;0.0636;-0.3191
0001142804;4.6807;1.6903;-4.1084;-0.4774;0.0773;-0.3239
0001142812;4.3934;1.6161;-4.0199;-0.5067;0.0929;-0.3279
0001142820;4.2329;1.7765;-3.9049;-0.5159;0.0990;-0.3433
0001142828;4.0175;1.8364;-3.7685;-0.5227;0.1082;-0.3451
0001142836;3.9696;1.7166;-3.7038;-0.5377;0.1303;-0.3251
0001142844;3.9528;1.6592;-3.7254;-0.5357;0.1495;-0.3172
0001142852;4.1779;1.8028;-3.6943;-0.5533;0.1731;-0.2940
0001142860;4.3814;1.9106;-3.7948;-0.5726;0.1994;-0.2722
0001142868;4.5107;2.0375;-3.7517;-0.5764;0.2272;-0.2549
0001142876;4.7357;2.0997;-3.8211;-0.5700;0.2799;-0.2558
0001142884;4.6088;2.2314;-3.9049;-0.5546;0.3457;-0.2603
0001142892;4.5394;2.3320;-3.8235;-0.5199;0.4171;-0.2782
0001142900;4.4317;2.3176;-3.8810;-0.4538;0.4935;-0.3226
0001142908;4.1587;2.2075;-3.9863;-0.3665;0.5858;-0.3764
0001142916;4.0869;2.0183;-3.8858;-0.2639;0.6708;-0.4537
0001142924;3.6512;1.5467;-3.8834;-0.1535;0.7513;-0.5412
0001142932;3.1891;0.9290;-3.6224;-0.0465;0.8308;-0.6570
0001142940;3.0622;0.1820;-3.3160;0.0377;0.8937;-0.7675
0001142948;2.9353;-0.9194;-2.9904;0.1061;0.9511;-0.8724
0001142956;3.4117;-1.5179;-2.0542;0.1479;0.9870;-0.9469
0001142964;3.8379;-2.0566;-1.2115;0.1663;0.9790;-1.0160
0001142972;4.3503;-2.6169;-0.3926;0.1328;0.9366;-1.0372
0001142980;4.8770;-3.0023;0.4429;0.0569;0.8239;-1.0388
0001142988;5.3079;-3.4955;1.3503;-0.0148;0.6400;-1.0087
0001142996;5.6479;-3.6176;1.7406;-0.0879;0.4644;-0.9389
0001143004;6.4332;-4.0151;1.7765;-0.1139;0.3183;-0.7739
0001143012;7.1754;-4.3598;1.4748;-0.0823;0.2462;-0.5617
0001143020;7.7788;-4.4317;1.3144;-0.0284;0.2229;-0.3567
0001143028;8.3318;-4.3622;0.9840;0.0069;0.2602;-0.1367
0001143036;8.9328;-4.5633;0.2155;0.0985;0.3693;0.0837
0001143044;9.7348;-4.3574;-0.4812;0.2320;0.4655;0.2569
0001143052;9.9527;-4.7046;-1.1444;0.4309;0.5565;0.3038
0001143060;10.0102;-4.9464;-1.6807;0.6174;0.6139;0.2526
0001143068;8.5401;-4.9823;-1.8483;0.6696;0.4932;0.1633
0001143076;8.0302;-4.6040;-1.6352;0.5143;0.2587;0.1061
0001143084;7.8075;-4.5346;-1.6185;0.3007;-0.0012;0.0356
0001143092;7.4531;-4.6663;-0.8954;0.1001;-0.2236;0.0108
0001143100;7.3694;-4.4053;-0.4022;-0.0566;-0.3842;0.0658
0001143108;7.4867;-3.9169;0.3759;-0.1371;-0.5036;0.2245
0001143116;7.2616;-3.7804;1.0151;-0.1240;-0.5480;0.4006
0001143124;6.5266;-3.3016;2.0566;-0.0338;-0.5340;0.4762
0001143132;5.9089;-2.4277;2.6504;0.0632;-0.4792;0.4599
0001143140;5.4851;-2.1524;2.1572;0.1903;-0.4652;0.3708
0001143148;5.4181;-2.2075;0.0670;0.4357;-0.5718;0.2573
0001143156;6.0190;-1.9704;-2.0638;0.6555;-0.6783;0.2013
0001143222;2.6025;2.1069;-1.2282;-1.4994;-0.4952;-0.9601
0001143230;2.8228;2.8180;-1.9704;-1.3141;-0.6491;-0.8240
0001143238;4.8650;3.2417;-1.9321;-1.0926;-0.7705;-0.7536
0001143246;6.8259;3.0430;-1.2186;-0.8683;-0.8187;-0.7767
0001143254;7.6471;1.8028;-0.5890;-0.5219;-0.8284;-0.8480
0001143262;8.0158;1.3024;0.9649;-0.2294;-0.9056;-1.0644
0001143270;7.5872;0.5148;1.3144;-0.0440;-0.9438;-1.4374
0001143278;6.5649;0.4286;0.9194;-0.0193;-0.9165;-1.8995
0001143286;4.7812;-0.5052;-1.3120;-0.0257;-0.7822;-2.3679
0001143294;1.2282;-0.1413;-7.7955;0.2613;-0.2818;-2.9147
0001143302;-4.3742;2.1931;-18.3731;1.0074;0.5368;-3.5579
0001143310;-11.2504;8.1858;-19.4050;0.6316;0.5777;-4.2273
0001143318;-14.8441;7.9033;-12.8305;-1.5136;-0.3625;-4.3657
0001143326;-11.3413;1.3862;-2.0782;-3.1612;-0.8003;-4.2886
0001143334;-7.4220;-1.8914;2.7102;-3.8152;-1.0275;-3.2250
0001143342;-5.3032;-2.7270;4.7477;-3.9726;-1.4245;-1.4889
0001143350;0.7278;2.5115;4.9249;-3.6913;-1.7618;0.0641
0001143358;3.6512;4.4843;1.4389;-3.0936;-2.4996;0.5245
0001143366;7.4196;5.9209;-0.7230;-2.0209;-2.9267;0.8576
0001143374;11.0923;9.6462;-3.2441;-1.1461;-2.6721;0.8932
0001143382;9.9096;12.7563;0.0239;-0.9210;-2.2660;0.2994
0001143390;6.5338;16.4434;-1.6376;-1.3732;-2.1666;-1.3199
0001143398;0.2203;7.5753;-0.3735;-1.2867;-2.4940;-2.8469
0001143406;1.5945;2.7773;3.3375;-0.9946;-2.2925;-3.2106
0001143414;1.9609;-1.0056;2.0925;-0.9521;-2.1863;-3.2843
0001143422;3.5243;-3.0742;0.7805;-0.8521;-2.2869;-3.2925
0001143430;4.5322;-3.6392;0.3831;-0.9042;-2.3423;-3.2261
0001143438;4.3551;-3.9409;0.7159;-1.2163;-2.4231;-3.1180
0001143446;3.5123;-3.1173;1.5921;-1.7268;-2.5285;-2.9148
0001143454;2.6001;-1.4868;2.2338;-2.2825;-2.6738;-2.6665
0001143462;2.1021;-0.4238;2.4253;-2.6084;-2.7663;-2.4850
0001143470;1.1779;0.1700;3.3064;-2.6446;-2.8236;-2.4653
0001143478;1.3360;-2.1237;4.9608;-2.4038;-2.8454;-2.7216
0001143486;-1.4964;-1.5706;8.3366;-2.2648;-2.5628;-3.3248
0001143494;-6.7852;-0.4381;11.8896;-2.6093;-1.8667;-4.3657
0001143502;-22.6444;2.2817;19.2494;-3.4315;-1.5807;-4.3657
0001143510;-78.4532;19.0650;32.4319;-4.3657;-2.3807;-4.3657
0001143518;-78.4532;20.5877;29.5947;-4.3657;-3.7511;-4.3657
0001143526;-17.4011;-28.6083;2.5738;-3.8007;-4.3657;-4.3657
0001143534;0.0072;-12.2200;-4.3790;3.0250;-4.3657;-4.3657
0001143542;14.2024;-13.2687;6.1148;4.3656;-4.3657;-4.3657
0001143550;23.0849;-15.8975;8.6239;4.2242;-3.4422;-4.3657
0001143558;13.0987;-17.1760;10.1658;0.0655;-0.6819;-3.9392
0001143566;-14.2766;-11.5616;1.0774;-3.2171;-0.7270;-3.6976
0001143574;-18.0283;-6.4404;-1.0008;-2.8390;-0.9269;-2.7296
0001143582;-18.3420;-7.4843;-2.9928;-1.5170;-0.3681;-1.4280
0001143590;-12.6965;-8.8729;1.2785;-1.3871;0.0778;-0.0929
0001143598;-4.0055;-7.6423;8.1235;-1.4883;-0.9579;0.4082
0001143606;2.2146;-10.6901;7.7764;-1.6089;-1.4641;-0.0149
0001143614;1.2115;-9.0908;8.2408;-1.8446;-1.2590;-0.6323
0001143622;6.8283;-5.8035;8.4252;-2.0003;-0.6789;-0.7729
0001143630;8.5258;-7.9200;13.2639;-1.5697;-1.2877;-2.0378
0001143638;-4.0079;-7.4723;11.5592;-1.4019;-0.9850;-2.7335
0001143646;-12.3876;-7.8626;8.6143;-1.1311;-0.1815;-2.3074
0001143654;-14.0755;-6.0525;4.0486;-0.8495;0.0622;-1.9165
0001143662;-9.7564;-3.8547;4.2258;-0.5947;0.4097;-1.4843
0001143670;-6.1818;-3.6344;6.3494;-0.1235;0.7292;-1.1943
0001143678;-5.7485;-6.6152;6.3327;0.4359;0.9286;-0.7771
0001143686;-1.3575;-6.4189;6.5553;0.9148;1.0468;-0.4854
0001143694;-0.3256;-7.5346;6.1387;1.0509;1.0273;-0.4329
0001143702;2.5857;-8.4803;4.8626;1.0884;1.0166;-0.4549
0001143710;2.3727;-8.9471;4.0965;1.1052;1.0693;-0.4366
0001143718;0.8452;-10.5249;4.1156;1.0884;1.0436;-0.3079
0001143726;1.0391;-12.8784;4.6184;1.1567;0.9378;-0.2761
0001143734;1.4054;-13.0101;4.1803;1.0168;0.7733;-0.3187
0001143742;1.7573;-13.9319;3.9145;0.6811;0.4747;-0.4501
0001143750;2.6624;-15.4139;4.5849;0.4257;0.1416;-0.5159
0001143758;3.8810;-15.9334;3.7541;0.0847;-0.2002;-0.6618
0001143766;5.4229;-16.4889;4.5274;-0.2168;-0.5534;-0.8015
0001143774;7.4508;-17.1138;6.2991;-0.3487;-0.9417;-0.9012
0001143841;-4.2377;-5.2289;8.5425;-0.0545;-1.8866;1.6491
0001143849;-2.0255;-5.3151;10.3549;-0.1423;-2.1965;1.1952
0001143857;0.9433;-6.7732;12.0261;-0.1150;-2.2058;0.8287
0001143865;1.2881;-9.0549;12.9024;-0.1637;-1.7849;0.7244
0001143873;1.2115;-9.8545;12.8210;-0.1873;-1.1646;0.8191
0001143881;3.8140;-8.7915;11.0612;-0.1039;-0.7469;0.7711
0001143889;2.3080;-9.1435;11.2001;-0.1017;-0.4799;0.6372
0001143897;1.8579;-8.7532;10.8840;-0.0296;-0.2198;0.5818
0001143905;3.1149;-8.1068;10.4627;0.0028;-0.1163;0.3632
0001143913;1.8052;-8.2839;10.0485;-0.0196;-0.0199;0.2253
0001143921;1.2809;-8.7173;9.7731;-0.0176;0.1731;0.1751
0001143929;1.1444;-8.6311;8.9519;0.0000;0.3212;0.1482
0001143937;0.4501;-8.2648;8.2863;0.0354;0.3692;0.1263
0001143945;-0.2251;-8.2097;7.8602;0.0641;0.4076;0.1204
0001143953;-0.5076;-8.5952;7.6710;0.0805;0.4638;0.1523
0001143961;-0.3448;-8.3677;7.3813;0.0962;0.5004;0.1836
0001143969;-0.4405;-8.2768;7.3670;0.0979;0.5646;0.2217
0001143977;-0.4334;-8.0828;7.2568;0.1074;0.6310;0.2418
0001143985;-0.4764;-8.0038;7.1611;0.1139;0.6856;0.2705
0001143993;-0.9074;-8.1116;7.1611;0.1279;0.7244;0.2854
0001144001;-1.2785;-7.9775;7.4627;0.1110;0.7450;0.2884
0001144009;-0.9768;-7.7381;7.5824;0.0592;0.7754;0.2634
0001144017;-0.5602;-7.3334;7.6423;-0.0309;0.8597;0.1941
0001144025;-0.1101;-7.2377;7.7117;-0.1597;1.0249;0.1143
0001144033;-0.1963;-7.0198;7.9823;-0.2531;1.2120;0.0254
0001144041;-0.3424;-7.3694;7.9344;-0.3311;1.4158;-0.0282
0001144049;0.4214;-7.1946;7.8338;-0.4198;1.6570;-0.0726
0001144057;0.2370;-7.5561;7.6734;-0.4542;1.9297;-0.1298
0001144065;-0.7542;-7.8434;6.7325;-0.4239;2.0408;-0.1844
0001144073;-1.3096;-8.1092;8.6886;-0.3884;2.2768;-0.2701
0001144081;-2.0446;-8.3414;7.9895;-0.5043;2.4115;-0.2365
0001144089;-2.7988;-8.6335;7.5944;-0.4844;2.4143;-0.2517
0001144097;-3.2226;-8.7532;7.4053;-0.4206;2.4805;-0.1929
0001144105;-3.8092;-9.0309;7.2018;-0.3541;2.5648;-0.0662
0001144113;-3.9840;-9.5553;7.3694;-0.3268;2.6032;0.0417
0001144121;-3.9002;-9.5864;7.2329;-0.3254;2.6716;0.1869
0001144129;-3.6200;-9.4547;7.3071;-0.3227;2.7618;0.3285
0001144137;-3.1196;-9.3182;7.1323;-0.3068;2.8749;0.4787
0001144145;-2.8036;-9.5122;6.8139;-0.3178;2.9834;0.6106
0001144153;-2.3607;-9.3278;6.5266;-0.3039;3.0170;0.7016
0001144161;-2.2529;-9.2440;5.6623;-0.3202;3.0403;0.7818
0001144169;-1.9896;-9.1722;4.8578;-0.3112;3.0402;0.8436
0001144177;-1.7406;-8.8466;4.0223;-0.3264;3.0517;0.8763
0001144185;-1.6520;-8.6000;3.1292;-0.3647;3.0245;0.8661
0001144193;-1.3623;-8.1163;2.4181;-0.4362;2.9171;0.8215
0001144201;-0.8978;-7.6926;1.4341;-0.5291;2.7077;0.7324
0001144209;-0.5650;-7.1778;0.6057;-0.6307;2.4894;0.6454
0001144217;-0.5411;-7.0868;-0.1532;-0.7051;2.2988;0.5416
0001144225;-0.3735;-6.6463;-0.4693;-0.7650;2.0991;0.4315
0001144233;-0.4597;-6.5410;-0.8332;-0.8232;1.9347;0.3375
0001144241;-0.6728;-6.3375;-0.7973;-0.8915;1.8257;0.2458
0001144249;-0.8332;-6.1842;-0.6656;-0.9433;1.7176;0.1871
0001144257;-1.3001;-6.4572;-0.2801;-0.9493;1.6605;0.1603
0001144265;-1.6688;-6.3087;0.6105;-0.9333;1.6351;0.1705
0001144273;-2.2913;-6.6870;1.2905;-0.9028;1.6872;0.1627
0001144281;-2.5474;-6.4691;1.3695;-0.8455;1.7856;0.1569
0001144289;-3.3591;-6.5027;2.0542;-0.7835;1.8207;0.1398
0001144297;-3.9672;-6.5434;1.9345;-0.7413;1.8226;0.1002
0001144305;-4.3910;-6.7301;1.8794;-0.6607;1.7816;0.0542
0001144313;-4.6208;-6.8163;1.6472;-0.5986;1.7031;0.0120
0001144321;-4.7501;-6.8642;1.2210;-0.5339;1.6418;-0.0390
0001144329;-4.7166;-6.8474;0.3280;-0.4604;1.6563;-0.1025
0001144337;-4.7788;-6.7780;-0.3352;-0.4170;1.5643;-0.2294
0001144345;-4.3934;-6.8115;-1.0247;-0.3794;1.4290;-0.3770
0001144353;-3.8642;-6.9145;-1.8364;-0.3371;1.2906;-0.4700
0001144361;-3.6200;-6.7732;-2.7150;-0.3124;1.1251;-0.5862
0001144369;-3.1939;-6.6415;-3.0358;-0.3661;0.9241;-0.6915
0001144377;-3.0406;-6.5457;-2.8898;-0.4830;0.7558;-0.8108
0001144385;-2.8994;-6.5218;-2.9090;-0.6237;0.5429;-0.8952
0001144393;-2.3655;-6.6559;-2.6312;-0.6807;0.4089;-0.9174
0001144401;-2.1500;-6.8905;-2.6552;-0.6392;0.3359;-0.8889
0001144467;-2.6456;-8.3797;-1.6903;0.4839;-0.2674;-0.1200
0001144475;-3.1987;-8.5521;-1.1396;0.4651;-0.2337;-0.1102
0001144483;-4.2904;-8.8178;-0.9553;0.4426;-0.1728;-0.1238
0001144491;-4.6424;-9.3781;-0.6057;0.4045;-0.1348;-0.1528
0001144499;-5.1284;-9.8521;-0.7925;0.3555;-0.0833;-0.1672
0001144507;-4.8195;-10.0676;0.0862;0.3070;-0.0754;-0.1499
0001144515;-5.0542;-10.1107;-1.1396;0.2338;-0.1292;-0.1386
0001144523;-4.8459;-10.0556;-0.4453;0.0815;-0.2113;-0.0962
0001144531;-4.4365;-10.0580;-0.4334;-0.0437;-0.2380;-0.0172
0001144539;-3.8930;-9.6798;0.0048;-0.1172;-0.2569;0.0586
0001144547;-3.4572;-9.1411;0.0359;-0.1744;-0.2260;0.1170
0001144555;-3.2417;-8.6694;0.0096;-0.2217;-0.1835;0.1372
0001144563;-3.3136;-8.5593;-0.2729;-0.2538;-0.1364;0.1439
0001144571;-3.2896;-8.1092;-0.4286;-0.2360;-0.1039;0.1498
0001144579;-3.5099;-8.1235;-0.3759;-0.1939;-0.0735;0.1572
0001144587;-3.7517;-7.9895;-0.4645;-0.1507;-0.0525;0.1555
0001144595;-3.9433;-8.0230;-0.2322;-0.1256;-0.0424;0.1372
0001144603;-4.1420;-8.1594;-0.5674;-0.0939;-0.0600;0.1146
0001144611;-3.9025;-8.0780;-0.3160;-0.0811;-0.0546;0.0925
0001144619;-4.2090;-8.0062;-0.5459;-0.0998;-0.0622;0.0541
0001144627;-3.9792;-7.9727;-0.5578;-0.1271;-0.0885;0.0043
0001144635;-3.5721;-7.7812;-0.5004;-0.1319;-0.1001;-0.0336
0001144643;-3.8906;-8.2528;-0.4070;-0.1352;-0.0914;-0.0710
0001144651;-3.9456;-8.0110;-0.5100;-0.1396;-0.0850;-0.0914
0001144659;-3.7972;-8.2001;-0.3304;-0.1010;-0.0771;-0.0787
0001144667;-3.6751;-8.3725;-0.3089;-0.0344;-0.0638;-0.0497
0001144675;-3.6152;-8.6335;-0.1389;0.0232;-0.0389;0.0083
0001144683;-3.5793;-8.8466;-0.1915;0.0444;-0.0212;0.0461
0001144691;-3.5889;-8.9998;-0.3831;-0.0072;-0.0080;0.0827
0001144699;-3.3926;-9.0908;-0.5124;-0.0786;-0.0143;0.0917
0001144707;-3.3447;-9.0884;-0.6321;-0.1559;-0.0346;0.1031
0001144715;-2.9377;-8.8155;-0.8667;-0.2280;-0.0541;0.0985
0001144723;-2.8156;-8.1810;-0.6584;-0.3020;-0.0841;0.1049
0001144731;-3.2753;-7.9583;-0.4070;-0.3305;-0.1085;0.0958
0001144739;-3.5027;-7.5824;-0.4262;-0.3078;-0.1175;0.0855
0001144747;-3.6895;-7.2808;-0.4334;-0.2505;-0.1092;0.0645
0001144755;-3.9983;-7.1539;-0.4022;-0.1599;-0.1038;0.0413
0001144763;-4.1755;-7.2927;-0.3591;-0.0468;-0.0989;-0.0003
0001144771;-4.1108;-7.3047;-0.3711;0.0418;-0.0855;-0.0409
0001144779;-4.0558;-7.5561;-0.1173;0.0819;-0.0765;-0.0943
0001144787;-3.9552;-7.9296;-0.1221;0.0793;-0.0667;-0.1191
0001144795;-3.6081;-8.2289;-0.2514;0.0719;-0.0612;-0.1355
0001144803;-3.4884;-8.4036;-0.3783;0.0477;-0.0432;-0.1211
0001144811;-3.3950;-8.6215;-0.4621;0.0298;-0.0504;-0.1106
0001144819;-3.2705;-8.4779;-0.5914;0.0039;-0.0536;-0.0953
0001144827;-3.2848;-8.4348;-0.7470;-0.0254;-0.0669;-0.0802
0001144835;-3.3902;-8.3629;-0.7422;-0.0356;-0.0930;-0.0803
0001144843;-3.5386;-8.2624;-0.8236;-0.0207;-0.1279;-0.0761
0001144851;-3.4333;-8.1235;-0.7973;-0.0073;-0.1454;-0.0763
0001144859;-3.3998;-8.1259;-0.7757;0.0093;-0.1715;-0.0845
0001144867;-3.4237;-8.2313;-0.6584;0.0208;-0.1891;-0.0821
0001144875;-3.4093;-8.1523;-0.6560;0.0333;-0.2081;-0.0901
0001144883;-3.5099;-8.2935;-0.5698;0.0344;-0.2105;-0.0846
0001144891;-3.6751;-8.4204;-0.4357;0.0373;-0.2134;-0.0833
0001144899;-3.6847;-8.5521;-0.2179;0.0305;-0.2096;-0.0767
0001144907;-3.6464;-8.6000;-0.1604;0.0124;-0.2022;-0.0577
0001144915;-3.6416;-8.5688;-0.1652;0.0205;-0.2029;-0.0489
0001144923;-3.6344;-8.5186;-0.1197;0.0124;-0.1895;-0.0256
0001144931;-3.5362;-8.5736;-0.0335;0.0011;-0.1791;-0.0051
0001144939;-3.7302;-8.5617;-0.1030;-0.0021;-0.1759;0.0039
0001144947;-3.7948;-8.6670;-0.1556;-0.0124;-0.1720;0.0068
0001144955;-3.4405;-8.2815;-0.2514;-0.0056;-0.1724;0.0112
0001144963;-3.5817;-8.3055;-0.2777;-0.0003;-0.1688;0.0173
0001144971;-3.5291;-8.2456;-0.2514;0.0179;-0.1804;0.0165
0001144979;-3.7134;-8.3055;-0.3424;0.0297;-0.1875;0.0135
0001144987;-3.5506;-8.0948;-0.2969;0.0310;-0.1949;0.0157
0001144995;-3.7757;-8.3989;-0.1724;0.0328;-0.2072;-0.0015
0001145003;-3.5458;-8.2121;-0.0072;0.0192;-0.2106;-0.0036
0001145011;-3.6871;-8.2528;0.1341;0.0027;-0.1907;-0.0003
0001145019;-3.7589;-8.4467;0.0383;0.0060;-0.1775;-0.0011
0001145085;-3.5027;-8.1786;-0.1269;-0.0036;-0.1171;-0.0492
0001145093;-3.6823;-8.4276;-0.0239;0.0036;-0.1246;-0.0540
0001145101;-3.7493;-8.3773;0.0335;0.0027;-0.1200;-0.0453
0001145109;-3.7421;-8.4707;-0.0527;0.0000;-0.1159;-0.0422
0001145117;-3.7038;-8.5329;0.0431;-0.0021;-0.1227;-0.0438
0001145125;-3.6057;-8.3941;-0.0383;-0.0001;-0.1267;-0.0412
0001145133;-3.4500;-8.3222;-0.1197;-0.0025;-0.1318;-0.0428
0001145141;-3.5674;-8.2528;-0.1963;-0.0055;-0.1332;-0.0373
0001145149;-3.5769;-8.4396;-0.1053;-0.0079;-0.1404;-0.0386
0001145157;-3.5841;-8.3821;-0.0694;-0.0004;-0.1573;-0.0457
0001145165;-3.5099;-8.3438;-0.0575;-0.0061;-0.1576;-0.0392
0001145173;-3.6152;-8.4132;0.0622;-0.0021;-0.1587;-0.0320
0001145181;-3.5721;-8.4324;0.1006;0.0049;-0.1612;-0.0313
0001145189;-3.6559;-8.4443;0.2346;0.0017;-0.1587;-0.0285
0001145197;-3.6607;-8.4731;0.1772;-0.0116;-0.1484;-0.0249
0001145205;-3.7541;-8.4060;0.2203;-0.0119;-0.1420;-0.0262
0001145213;-3.5458;-8.3821;0.2418;-0.0149;-0.1287;-0.0274
0001145221;-3.6057;-8.3222;0.1724;-0.0185;-0.1212;-0.0265
0001145229;-3.5817;-8.2648;0.1413;-0.0128;-0.1199;-0.0384
0001145237;-3.6727;-8.3582;0.1125;-0.0201;-0.1070;-0.0389
0001145245;-3.7613;-8.2959;0.1173;-0.0201;-0.1045;-0.0516
0001145253;-3.2848;-8.0924;0.0982;-0.0120;-0.0985;-0.0554
0001145261;-3.4548;-8.2552;0.2682;-0.0139;-0.0898;-0.0484
0001145269;-3.7637;-8.4803;0.2897;-0.0036;-0.0754;-0.0458
0001145277;-3.5626;-8.4348;0.3017;-0.0012;-0.0723;-0.0450
0001145285;-3.6727;-8.4515;0.1891;-0.0055;-0.0612;-0.0312
0001145293;-3.5793;-8.5114;0.2083;-0.0119;-0.0675;-0.0240
0001145301;-3.5314;-8.4372;-0.0383;-0.0148;-0.0770;-0.0254
0001145309;-3.3998;-8.2648;-0.1365;-0.0171;-0.0969;-0.0234
0001145317;-3.6272;-8.5186;-0.0982;-0.0084;-0.1199;-0.0301
0001145325;-3.5506;-8.4539;-0.1221;-0.0080;-0.1363;-0.0322
0001145333;-3.5195;-8.4300;-0.0766;0.0061;-0.1553;-0.0340
0001145341;-3.5362;-8.4156;-0.0072;0.0003;-0.1696;-0.0317
0001145349;-3.4022;-8.3127;-0.0144;0.0032;-0.1769;-0.0317
0001145357;-3.5195;-8.4060;0.0670;0.0068;-0.1900;-0.0368
0001145365;-3.5841;-8.4563;0.1413;0.0027;-0.1887;-0.0392
0001145373;-3.6703;-8.2983;0.1508;-0.0272;-0.2012;-0.0560
0001145381;-3.5530;-8.3510;0.2131;-0.0203;-0.2022;-0.0648
0001145389;-3.4788;-8.3558;0.1963;0.0003;-0.1924;-0.0540
0001145397;-3.6416;-8.4396;0.3160;0.0120;-0.1880;-0.0621
0001145405;-3.6751;-8.5210;0.3400;0.0027;-0.1765;-0.0542
0001145413;-3.5482;-8.3151;0.4262;0.0025;-0.1739;-0.0628
0001145421;-3.6440;-8.4683;0.3280;-0.0035;-0.1645;-0.0573
0001145429;-3.5650;-8.3486;0.2921;-0.0023;-0.1569;-0.0497
0001145437;-3.5889;-8.4946;0.3424;0.0016;-0.1515;-0.0434
0001145445;-3.6344;-8.5521;0.3663;0.0007;-0.1508;-0.0417
0001145453;-3.6799;-8.5497;0.4022;0.0007;-0.1450;-0.0340
0001145461;-3.5745;-8.5760;0.3998;0.0001;-0.1414;-0.0328
0001145469;-3.5769;-8.4994;0.2203;-0.0027;-0.1338;-0.0288
0001145477;-3.7373;-8.6119;0.4525;0.0013;-0.1398;-0.0261
0001145485;-3.6559;-8.4707;0.3328;-0.0057;-0.1290;-0.0213
0001145493;-3.5626;-8.4779;0.4118;-0.0044;-0.1263;-0.0230
0001145501;-3.5578;-8.4372;0.3783;-0.0092;-0.1164;-0.0177
0001145509;-3.5075;-8.3342;0.3639;-0.0067;-0.1179;-0.0216
0001145517;-3.6823;-8.4659;0.5028;-0.0032;-0.1086;-0.0245
0001145525;-3.5434;-8.4635;0.3831;-0.0025;-0.0983;-0.0156
0001145533;-3.6919;-8.4467;0.6177;0.0021;-0.0974;-0.0145
0001145541;-3.6655;-8.4396;0.5219;-0.0069;-0.0854;-0.0103
0001145549;-3.5578;-8.4156;0.3926;-0.0129;-0.0802;-0.0035
0001145557;-3.6583;-8.5736;0.4022;-0.0087;-0.0869;-0.0160
0001145565;-3.5147;-8.4372;0.3903;-0.0040;-0.0798;-0.0127
0001145573;-3.4477;-8.4707;0.4070;-0.0136;-0.0842;-0.0147
0001145581;-3.5506;-8.2791;0.4238;-0.0177;-0.0763;-0.0152
0001145589;-3.6607;-8.4372;0.4310;-0.0125;-0.0806;-0.0216
0001145597;-3.5506;-8.4252;0.5100;-0.0136;-0.0758;-0.0172
0001145605;-3.5338;-8.4635;0.5004;-0.0067;-0.0733;-0.0164
0001145613;-3.6583;-8.5736;0.4932;-0.0020;-0.0795;-0.0213
0001145621;-3.4764;-8.5186;0.5028;-0.0049;-0.0710;-0.0120
0001145629;-3.5698;-8.4132;0.4453;-0.0047;-0.0731;-0.0179
0001145695;-3.4333;-8.3318;0.4046;-0.0049;-0.1222;-0.0317
0001145703;-3.3615;-8.3917;0.4693;-0.0052;-0.1216;-0.0266
0001145711;-3.4117;-8.3677;0.3974;-0.0085;-0.1183;-0.0286
0001145719;-3.5243;-8.3677;0.4597;-0.0071;-0.1292;-0.0322
0001145727;-3.6607;-8.5497;0.5100;-0.0059;-0.1302;-0.0344
0001145735;-3.3615;-8.3318;0.5028;-0.0076;-0.1296;-0.0296
0001145743;-3.5554;-8.3677;0.4070;-0.0049;-0.1335;-0.0313
0001145751;-3.4405;-8.4779;0.5171;-0.0041;-0.1383;-0.0281
0001145759;-3.3160;-8.3175;0.4190;-0.0076;-0.1384;-0.0293
0001145767;-3.3950;-8.3175;0.4094;-0.0023;-0.1500;-0.0369
0001145775;-3.6224;-8.6167;0.4717;-0.0044;-0.1507;-0.0305
0001145783;-3.3806;-8.3007;0.4741;-0.0004;-0.1567;-0.0312
0001145791;-3.4309;-8.4252;0.5531;0.0051;-0.1665;-0.0301
0001145799;-3.5314;-8.4348;0.5794;0.0035;-0.1623;-0.0222
0001145807;-3.5195;-8.4755;0.5842;0.0020;-0.1627;-0.0164
0001145815;-3.6224;-8.5856;0.5219;0.0119;-0.1720;-0.0217
0001145823;-3.6607;-8.4659;0.5148;0.0105;-0.1785;-0.0152
0001145831;-3.5051;-8.4946;0.4405;0.0055;-0.1844;-0.0192
0001145839;-3.4620;-8.4587;0.5626;0.0029;-0.1888;-0.0234
0001145847;-3.5314;-8.6048;0.4549;0.0128;-0.2060;-0.0284
0001145855;-3.4405;-8.6024;0.5052;0.0149;-0.2100;-0.0226
0001145863;-3.5721;-8.4779;0.5842;0.0121;-0.2169;-0.0258
0001145871;-3.5913;-8.5138;0.5698;0.0151;-0.2216;-0.0212
0001145879;-3.4907;-8.3941;0.5746;0.0207;-0.2310;-0.0238
0001145887;-3.5171;-8.4013;0.6943;0.0164;-0.2346;-0.0173
0001145895;-3.5745;-8.4467;0.6967;0.0151;-0.2378;-0.0200
0001145903;-3.6009;-8.5832;0.7230;0.0262;-0.2502;-0.0213
0001145911;-3.4405;-8.4156;0.8164;0.0193;-0.2431;-0.0147
0001145919;-3.5099;-8.5353;0.7709;0.0218;-0.2554;-0.0136
0001145927;-3.4860;-8.4204;0.8356;0.0179;-0.2609;-0.0217
0001145935;-3.4884;-8.2528;0.6823;-0.0101;-0.2733;-0.0408
0001145943;-3.5482;-8.2983;0.7326;-0.0204;-0.2878;-0.0653
0001145951;-3.4500;-8.4324;0.7805;0.0104;-0.2844;-0.0570
0001145959;-3.6224;-8.4324;0.8547;0.0397;-0.2819;-0.0492
0001145967;-3.6224;-8.5521;0.9050;0.0380;-0.2827;-0.0490
0001145975;-3.6583;-8.6048;0.9098;0.0161;-0.2832;-0.0605
0001145983;-3.5099;-8.6000;0.9577;0.0163;-0.2952;-0.0669
0001145991;-3.4333;-8.4443;0.8954;0.0181;-0.2892;-0.0541
0001145999;-3.5889;-8.7125;0.9026;0.0211;-0.2910;-0.0481
0001146007;-3.2729;-8.4443;1.0104;0.0179;-0.2951;-0.0472
0001146015;-3.5075;-8.4922;0.9601;0.0159;-0.2944;-0.0445
0001146023;-3.2729;-8.4707;0.9385;0.0240;-0.3012;-0.0430
0001146031;-3.5075;-8.5377;1.0534;0.0177;-0.3015;-0.0389
0001146039;-3.5578;-8.5688;0.9529;0.0200;-0.3134;-0.0402
0001146047;-3.3088;-8.4276;1.0630;0.0234;-0.3179;-0.0408
0001146055;-3.5338;-8.4779;1.0774;0.0161;-0.3262;-0.0512
0001146063;-3.3399;-8.3270;1.0463;0.0103;-0.3303;-0.0516
0001146071;-3.4405;-8.4276;1.1181;0.0172;-0.3373;-0.0573
0001146079;-3.4644;-8.5138;1.1325;0.0328;-0.3444;-0.0572
0001146087;-3.4261;-8.4324;1.0511;0.0401;-0.3508;-0.0609
0001146095;-3.4046;-8.3199;1.1205;0.0221;-0.3720;-0.0670
0001146103;-3.3686;-8.4252;1.1875;0.0180;-0.3773;-0.0855
0001146111;-3.3519;-8.4228;1.1756;0.0281;-0.3922;-0.0938
0001146119;-3.5027;-8.5617;1.2186;0.0254;-0.3898;-0.1002
0001146127;-3.2250;-8.1858;1.2546;0.0244;-0.3993;-0.1106
0001146135;-3.5554;-8.4683;1.3934;0.0313;-0.4034;-0.1271
0001146143;-3.5123;-8.4252;1.3336;0.0148;-0.4026;-0.1455
0001146151;-3.6320;-8.3510;1.5251;-0.0032;-0.3920;-0.1708
0001146159;-3.4836;-8.2839;1.6544;-0.0057;-0.3958;-0.2048
0001146167;-3.7733;-8.2935;1.5993;-0.0117;-0.3792;-0.2318
0001146175;-3.7182;-8.1187;1.6616;0.0015;-0.3637;-0.2670
0001146183;-3.6895;-8.0685;1.7190;0.0518;-0.3427;-0.2971
0001146191;-3.4309;-7.9990;1.6831;0.1160;-0.3039;-0.3104
0001146199;-3.4477;-8.0014;1.4198;0.1916;-0.2602;-0.3200
0001146207;-3.4093;-7.9368;1.2091;0.2738;-0.2454;-0.3357
0001146215;-3.1771;-7.7213;0.8882;0.3679;-0.2233;-0.3304
0001146223;-2.8252;-8.0565;0.7638;0.4988;-0.2170;-0.3116
0001146231;-2.6887;-8.0230;0.5938;0.6636;-0.2301;-0.2848
0001146239;-2.7509;-8.3222;0.4645;0.8046;-0.2477;-0.2434
0001146247;-2.6671;-8.8083;0.7302;0.8946;-0.2951;-0.2158
0001146255;-2.6001;-9.0190;0.7661;0.9122;-0.3573;-0.2077
0001146364;-3.2968;-8.6359;3.8499;0.1535;-0.7638;0.0911
0001146372;-3.3974;-8.5617;4.4341;0.0781;-0.6928;0.0578
0001146382;-3.3926;-8.2863;4.8578;-0.0053;-0.5766;0.0402
0001146391;-3.5314;-8.1810;4.9608;-0.0196;-0.4554;0.0462
0001146400;-3.8068;-8.4443;4.6424;0.0405;-0.2888;0.0446
0001146409;-3.5291;-8.4132;4.1851;0.0606;-0.1347;0.0565
0001146418;-3.3878;-8.8538;3.3591;0.0518;-0.0729;0.0782
0001146427;-3.0622;-8.8466;2.6719;0.0454;-0.0727;0.1003
0001146436;-2.9951;-8.6455;2.5642;0.0237;-0.1043;0.1235
0001146445;-3.0526;-8.6574;2.7557;0.0137;-0.1035;0.1435
0001146454;-3.0813;-8.3366;2.9640;0.0167;-0.0985;0.1406
0001146463;-3.0598;-8.3127;2.8850;0.0101;-0.0829;0.1287
0001146472;-3.2106;-8.4108;2.8156;0.0124;-0.0877;0.1014
0001146481;-3.1173;-8.3653;2.6887;0.0049;-0.0867;0.0959
0001146490;-2.9018;-8.3366;2.7198;0.0036;-0.0993;0.0834
0001146499;-2.9880;-8.2289;2.6480;-0.0003;-0.1053;0.0701
0001146508;-2.8395;-8.0469;2.6719;-0.0012;-0.1107;0.0566
0001146517;-2.7821;-8.1427;2.5115;-0.0005;-0.1223;0.0434
0001146526;-2.9951;-8.2432;2.5139;0.0125;-0.1276;0.0328
0001146535;-2.9185;-8.2361;2.6001;0.0245;-0.1443;0.0294
0001146544;-2.9832;-8.4731;2.4780;0.0436;-0.1663;0.0220
0001146553;-2.8467;-8.3103;2.4086;0.0522;-0.1939;0.0195
0001146562;-2.8276;-8.2528;2.4636;0.0665;-0.2082;0.0264
0001146571;-2.8635;-8.4707;2.4708;0.0931;-0.2462;0.0281
0001146580;-2.6049;-8.1187;2.3176;0.1163;-0.2698;0.0390
0001146589;-2.6073;-8.2241;2.3032;0.1410;-0.3183;0.0420
0001146598;-2.6432;-8.2193;2.2338;0.1669;-0.3676;0.0457
0001146607;-2.5738;-7.9966;2.2314;0.1897;-0.4181;0.0485
0001146616;-2.5857;-8.1618;2.2027;0.2344;-0.4894;0.0414
0001146625;-2.6169;-8.1499;2.2745;0.2539;-0.5417;0.0536
0001146634;-2.5714;-8.2959;2.3224;0.2753;-0.6045;0.0614
0001146643;-2.4636;-8.1044;2.4828;0.3148;-0.6686;0.0698
0001146652;-2.6360;-8.1810;2.5642;0.3388;-0.7157;0.0945
0001146661;-2.7869;-8.3366;2.9185;0.3635;-0.7651;0.1138
0001146670;-2.9401;-8.3294;3.1532;0.3821;-0.7951;0.1203
0001146679;-2.9137;-8.2049;3.4117;0.3966;-0.8107;0.1382
0001146688;-3.0023;-8.3055;3.7062;0.4191;-0.7995;0.1552
0001146697;-2.9329;-8.1594;3.9576;0.4379;-0.7797;0.1620
0001146706;-3.0358;-8.2169;4.1587;0.4413;-0.7246;0.1740
0001146715;-2.8970;-8.2911;4.2952;0.4425;-0.6856;0.1865
0001146724;-2.8802;-8.1139;4.3670;0.4406;-0.6269;0.2022
0001146733;-2.8012;-7.9727;4.4460;0.4290;-0.5915;0.1996
0001146742;-2.9784;-7.9200;4.3862;0.4048;-0.5397;0.1932
0001146751;-2.8946;-7.9583;4.4245;0.3705;-0.5091;0.1841
0001146760;-2.7509;-7.8362;4.3335;0.3503;-0.4771;0.1755
0001146769;-2.8252;-7.7740;4.2904;0.3312;-0.4639;0.1687
0001146778;-2.8347;-7.9248;4.3694;0.3076;-0.4523;0.1500
0001146787;-2.8204;-7.9607;4.3790;0.2835;-0.4443;0.1366
0001146796;-2.9353;-7.8482;4.5418;0.2463;-0.4217;0.1340
0001146805;-3.0071;-8.0397;4.7645;0.2212;-0.3988;0.1262
0001146814;-2.7342;-7.8051;4.9728;0.1901;-0.3348;0.1415
0001146823;-3.0095;-8.1307;5.0733;0.1804;-0.2617;0.1487
0001146832;-2.8419;-7.8650;5.0087;0.1451;-0.1776;0.1564
0001146841;-2.7509;-7.8099;4.8076;0.1307;-0.1136;0.1498
0001146850;-2.7294;-7.6998;4.5873;0.1070;-0.0580;0.1533
0001146859;-2.5522;-7.4124;4.3455;0.0945;-0.0374;0.1334
0001146868;-2.5786;-7.5250;4.2258;0.0719;-0.0340;0.1179
0001146875;-2.5953;-7.4484;4.1970;0.0562;-0.0414;0.1053
0001146883;-2.5139;-7.5968;4.1635;0.0458;-0.0454;0.0886
0001146891;-2.7270;-7.5298;4.2353;0.0368;-0.0448;0.0727
0001146899;-2.6360;-7.5681;4.3287;0.0234;-0.0494;0.0645
0001146907;-2.6217;-7.5776;4.2401;0.0185;-0.0486;0.0490
0001146915;-2.4612;-7.4579;4.2258;0.0128;-0.0445;0.0469
