time;acc_x;acc_y;acc_z;gyro_x;gyro_y;gyro_z
0001061323;3.8188;2.3080;-2.7007;-0.0438;0.0497;0.0123
0001061332;3.8762;2.4062;-2.7701;-0.0388;0.0357;0.0085
0001061340;3.7302;2.4110;-2.7222;-0.0168;0.0248;-0.0009
0001061348;4.0175;2.7102;-2.7438;-0.0081;0.0258;-0.0017
0001061357;3.9289;2.6145;-2.8108;0.0111;0.0132;-0.0053
0001061365;4.0342;2.6935;-2.8108;0.0184;0.0087;0.0027
0001061373;3.7876;2.6169;-2.7988;0.0151;0.0205;0.0148
0001061384;3.6512;2.4373;-2.7485;0.0125;0.0100;0.0173
0001061392;3.5985;2.3750;-2.9042;0.0117;0.0076;0.0159
0001061445;3.7397;2.5522;-2.6408;-0.0217;0.0143;-0.0085
0001061453;3.5506;2.3631;-2.6887;-0.0165;0.0113;-0.0063
0001061464;3.9313;2.5139;-2.7031;-0.0226;0.0168;0.0132
0001061472;3.8978;2.5714;-2.7892;-0.0215;0.0109;0.0157
0001061483;3.7182;2.4349;-2.9113;-0.0197;0.0199;0.0296
0001061491;3.6703;2.4349;-2.8946;-0.0207;0.0249;0.0304
0001061499;3.4955;2.4301;-2.9281;-0.0097;0.0322;0.0286
0001061510;3.4572;2.4277;-2.9521;-0.0007;0.0573;0.0276
0001061518;3.2777;2.5139;-2.8563;0.0089;0.0666;0.0234
0001061529;3.5769;2.4445;-2.8228;0.0192;0.0941;0.0238
0001061537;3.4165;2.3415;-2.6887;0.0344;0.0965;0.0217
0001061548;3.7254;2.3439;-2.7701;0.0268;0.1103;0.0218
0001061556;3.5267;2.0997;-2.7701;0.0104;0.1150;0.0208
0001061564;3.7445;2.2170;-2.9042;-0.0262;0.1163;0.0163
0001061575;3.8068;2.3056;-3.1173;-0.0698;0.1164;0.0052
0001061583;3.7350;2.1500;-3.1364;-0.0923;0.1171;-0.0036
0001061594;3.7469;2.4134;-3.2441;-0.1018;0.1162;-0.0108
0001061602;3.8235;2.5738;-3.1029;-0.1047;0.1318;-0.0119
0001061613;3.6512;2.4253;-2.9928;-0.0879;0.1545;-0.0155
0001061621;3.8642;2.6312;-3.1460;-0.0798;0.1576;-0.0208
0001061632;3.6607;2.5067;-3.1364;-0.0722;0.2097;-0.0123
0001061640;3.5147;2.3703;-3.0454;-0.0743;0.2699;0.0120
0001061648;3.4285;2.2505;-3.2058;-0.0751;0.3062;0.0376
0001061702;2.9712;2.5259;-3.9863;-0.2471;0.6867;0.1466
0001061710;2.8252;2.3703;-4.1037;-0.2571;0.7993;0.1279
0001061721;2.6719;2.3463;-4.0701;-0.2465;0.9443;0.0606
0001061729;2.6504;2.3822;-3.9959;-0.2289;1.0420;-0.0015
0001061740;2.6408;1.6903;-3.6583;-0.1775;1.1479;-0.1066
0001061748;2.8060;1.2306;-3.2657;-0.1390;1.1900;-0.1889
0001061759;3.1316;0.7063;-2.6647;-0.1144;1.2037;-0.2858
0001061767;3.7828;0.4286;-2.2889;-0.1263;1.1735;-0.3564
0001061775;4.3048;0.2562;-1.8316;-0.1761;1.0789;-0.4137
0001061786;5.1308;0.4334;-1.3312;-0.3500;0.8379;-0.4214
0001061794;5.9568;1.0319;-1.3527;-0.5003;0.6520;-0.3581
0001061805;6.5170;1.6520;-1.5347;-0.6326;0.4351;-0.2309
0001061813;6.8618;2.2458;-1.4916;-0.6735;0.2378;-0.1528
0001061824;7.4196;3.7541;-1.5921;-0.7123;0.0076;-0.0528
0001061832;7.1802;4.8842;-1.4844;-0.7548;-0.0758;-0.0140
0001061843;6.8474;6.3327;-1.8100;-0.7400;-0.0745;-0.0489
0001061851;5.9855;6.9839;-1.4246;-0.6420;-0.0181;-0.1180
0001061859;4.7956;6.4236;-0.9840;-0.4317;0.0240;-0.1552
0001061870;3.5913;5.6096;-0.3400;-0.0501;0.0953;-0.0774
0001061878;3.4788;5.1643;-0.6800;0.2024;0.1596;-0.0125
0001061889;4.0510;4.4819;-1.5060;0.4029;0.2337;0.0059
0001061897;4.2880;3.6368;-1.8124;0.4171;0.2854;0.0011
0001061951;6.4332;1.7023;-0.7278;-0.2333;0.0999;0.0032
0001061959;6.4428;1.8244;-0.6393;-0.2931;0.0556;-0.0083
0001061970;6.7493;2.4900;-0.6680;-0.3367;-0.0023;-0.0593
0001061978;6.5434;2.5977;-0.7829;-0.3399;-0.0430;-0.1156
0001061986;6.3901;2.9975;-0.9792;-0.3128;-0.0589;-0.1664
0001061997;5.9927;3.2489;-1.5036;-0.2129;-0.0589;-0.2353
0001062005;5.5881;3.4429;-1.8004;-0.1447;-0.0461;-0.2762
0001062016;4.6998;3.6966;-2.5881;-0.0825;-0.0288;-0.3262
0001062024;3.9935;3.7134;-3.1244;-0.0685;-0.0129;-0.3484
0001062035;2.9856;3.5961;-3.4668;-0.0628;-0.0015;-0.3624
0001062043;2.9257;3.6512;-3.4692;-0.0457;0.0112;-0.3567
0001062054;2.7749;3.1484;-3.2729;0.0068;0.0452;-0.3147
0001062062;2.8874;2.9808;-3.1436;0.0675;0.0773;-0.2992
0001062070;2.8659;2.5043;-3.4884;0.1139;0.1079;-0.2948
0001062081;3.0694;2.0566;-3.6775;0.1106;0.1407;-0.2847
0001062089;3.0981;1.7885;-3.7302;0.0629;0.1388;-0.2615
0001062100;3.3232;1.6712;-3.6057;0.0139;0.0899;-0.2056
0001062108;3.7828;1.6041;-3.3926;-0.0132;0.0544;-0.1407
0001062119;4.6088;1.7645;-3.1292;-0.0310;0.0004;-0.0312
0001062127;5.0589;1.6759;-2.8635;-0.0346;-0.0329;0.0488
0001062138;5.0542;1.3599;-2.5019;-0.0196;-0.0859;0.1228
0001062146;5.0230;0.9888;-2.2960;-0.0089;-0.1090;0.1543
0001062154;4.6519;0.8404;-2.1117;-0.0021;-0.1098;0.1536
0001062208;0.7853;2.4517;-3.3902;-0.6719;0.1081;0.0208
0001062216;0.5171;3.2609;-3.2681;-0.8423;0.1330;0.0445
0001062227;0.6871;4.1444;-2.8108;-0.9737;0.1744;0.0898
0001062235;1.2163;4.7788;-2.3104;-0.9543;0.1921;0.1166
0001062246;2.1189;5.5713;-1.8435;-0.7799;0.2170;0.1017
0001062254;2.7845;5.5905;-1.5754;-0.5458;0.2344;0.0422
0001062262;3.4069;5.3558;-1.4844;-0.2770;0.2658;-0.0252
0001062273;3.9002;4.8459;-1.3336;0.0799;0.2938;-0.1584
0001062281;3.6990;4.1611;-1.5395;0.2615;0.2952;-0.2630
0001062292;3.3854;3.0191;-1.8747;0.3603;0.2801;-0.3541
0001062300;3.0191;2.1572;-2.1931;0.3397;0.2597;-0.3984
0001062311;2.5402;1.3072;-2.4565;0.2100;0.2713;-0.4154
0001062319;2.2362;1.1061;-2.6001;0.0925;0.2916;-0.4009
0001062330;1.7813;0.8787;-2.8778;-0.0707;0.3428;-0.3424
0001062338;1.5706;1.0032;-2.9401;-0.1696;0.3884;-0.2971
0001062346;1.6400;1.0439;-2.7845;-0.2349;0.4575;-0.2561
0001062357;1.6688;1.3599;-2.5379;-0.2721;0.5578;-0.2036
0001062365;1.9656;1.5419;-2.4325;-0.2570;0.6352;-0.1877
0001062376;1.8627;2.0518;-2.3200;-0.2407;0.7228;-0.1952
0001062384;1.9728;2.5474;-2.4541;-0.2579;0.7406;-0.2470
0001062395;2.5115;2.8252;-2.3607;-0.2569;0.7461;-0.3204
0001062403;3.2944;2.6264;-2.0255;-0.2214;0.7510;-0.3421
0001062457;5.5282;2.8132;-2.1979;-0.1124;0.6194;0.0060
0001062465;5.2074;2.8252;-2.3056;-0.0426;0.5653;0.0612
0001062473;5.1116;2.8060;-2.3535;0.0361;0.5085;0.1150
0001062484;5.1404;2.9042;-2.7629;0.1372;0.4307;0.1707
0001062492;5.0302;3.1149;-2.9161;0.1976;0.3822;0.2009
0001062503;5.0613;3.2753;-3.1292;0.2503;0.3091;0.2248
0001062511;4.9344;3.5626;-3.3974;0.2834;0.2381;0.2217
0001062522;4.4365;3.4860;-3.5434;0.3062;0.1088;0.1811
0001062530;4.1252;3.3926;-3.6200;0.3187;0.0257;0.1466
0001062538;4.1899;3.2322;-3.5219;0.3222;-0.0353;0.1006
0001062549;3.9002;3.1388;-3.4381;0.3056;-0.0747;0.0381
0001062557;3.7757;2.7988;-3.5698;0.2814;-0.0958;-0.0047
0001062568;4.0294;2.5953;-3.5578;0.2360;-0.1155;-0.0549
0001062576;3.9959;2.2913;-3.5386;0.1913;-0.1171;-0.0778
0001062587;3.6248;1.9585;-3.2681;0.1388;-0.1284;-0.1057
0001062595;3.4907;1.6233;-3.1723;0.0861;-0.1175;-0.0939
0001062606;3.1460;1.5395;-2.9856;0.0192;-0.0797;-0.0566
0001062614;2.9066;1.5203;-3.0550;-0.0293;-0.0520;-0.0237
0001062622;2.8491;1.6185;-3.0239;-0.0719;-0.0226;0.0041
0001062633;2.9568;1.7933;-3.1340;-0.1162;0.0393;0.0620
0001062641;3.0789;1.9297;-3.0718;-0.1159;0.0753;0.0939
0001062695;3.4644;3.1364;-3.3112;0.0608;0.3579;0.2232
0001062703;3.2729;3.0813;-3.3615;0.0957;0.4100;0.2222
0001062714;3.0454;3.1220;-3.2753;0.1455;0.4920;0.2070
0001062722;3.2202;3.0861;-3.0789;0.1865;0.5541;0.1892
0001062730;3.2609;2.6145;-2.5977;0.2401;0.6155;0.1587
0001062741;3.5745;1.9944;-2.1476;0.3464;0.6492;0.0819
0001062749;4.1228;1.7597;-1.9728;0.3970;0.6463;0.0256
0001062760;4.8315;1.5610;-1.5778;0.3680;0.6029;-0.0361
0001062768;5.3415;1.3862;-1.3479;0.2923;0.5364;-0.0813
0001062779;6.1052;1.3024;-1.2474;0.1367;0.3902;-0.1271
0001062787;6.4045;1.4150;-1.1827;-0.0083;0.2751;-0.1386
0001062798;6.9312;2.0806;-1.2378;-0.1867;0.1124;-0.1224
0001062806;6.8785;2.4493;-1.3982;-0.2958;-0.0060;-0.0931
0001062814;6.9576;2.9161;-1.5802;-0.3781;-0.1002;-0.0663
0001062825;6.3446;3.4884;-1.5562;-0.4281;-0.1969;-0.0914
0001062833;5.4277;3.8762;-1.3695;-0.4333;-0.2458;-0.1340
0001062844;4.1707;4.1180;-1.3623;-0.4032;-0.2714;-0.1787
0001062852;3.5721;4.5873;-1.3743;-0.3431;-0.2591;-0.1881
0001062863;3.2010;4.9368;-1.4317;-0.1871;-0.1895;-0.1536
0001062871;2.8850;4.8004;-1.4676;-0.0526;-0.1123;-0.1059
0001062882;3.4812;4.6831;-1.4940;0.1476;-0.0201;-0.0401
0001062890;3.8355;3.9983;-1.4509;0.2594;0.0179;-0.0093
0001062898;4.7357;3.7326;-1.3001;0.3453;0.0199;0.0129
0001062952;6.4979;1.5706;-2.5977;0.3039;-0.2960;-0.0989
0001062960;5.8849;1.5634;-2.8323;0.2225;-0.3653;-0.1348
0001062971;4.9656;1.7047;-2.8204;0.1190;-0.4402;-0.1613
0001062979;4.3239;1.8100;-2.6959;0.0713;-0.4542;-0.1362
0001062990;3.6775;2.2505;-2.7605;0.0417;-0.4347;-0.1009
0001062998;3.3399;2.5259;-2.8850;0.0350;-0.4020;-0.0943
0001063009;3.1125;2.8443;-3.2202;0.0478;-0.3309;-0.1082
0001063017;2.9856;2.8036;-3.4237;0.0662;-0.2765;-0.1258
0001063025;2.5809;2.4972;-3.3734;0.0661;-0.2160;-0.1327
0001063036;2.8419;2.4157;-3.2394;0.0453;-0.1430;-0.1354
0001063044;3.1460;2.1428;-3.1316;0.0035;-0.0954;-0.1262
0001063055;3.5123;2.0183;-2.9616;-0.0737;-0.0362;-0.1049
0001063063;3.9863;2.1380;-2.7869;-0.1238;-0.0226;-0.1116
0001063074;4.5250;2.2194;-2.5498;-0.1957;-0.0069;-0.1216
0001063082;4.7094;2.4660;-2.4684;-0.2160;-0.0131;-0.1367
0001063093;4.9057;2.6264;-2.3343;-0.2324;-0.0212;-0.1687
0001063101;4.8578;2.8276;-2.4205;-0.2198;-0.0474;-0.1984
0001063112;5.1427;2.7749;-2.3535;-0.2064;-0.0658;-0.2278
0001063120;4.9823;2.8132;-2.3032;-0.1884;-0.0782;-0.2345
0001063128;4.8866;2.6480;-2.2649;-0.1681;-0.0875;-0.2433
0001063139;4.5633;2.4469;-2.3320;-0.1484;-0.0953;-0.2507
0001063147;4.5059;2.7222;-2.3583;-0.1471;-0.0790;-0.2582
0001063201;4.1611;2.9425;-3.0981;-0.0943;-0.0264;-0.3168
0001063209;4.1156;2.7438;-2.8371;-0.0747;-0.0246;-0.3140
0001063220;4.5586;2.5666;-2.3990;-0.0526;-0.0552;-0.3210
0001063228;4.5729;2.7581;-2.3655;-0.0401;-0.0778;-0.3246
0001063239;4.4652;2.9066;-2.8994;0.0093;-0.1042;-0.3155
0001063247;4.4341;2.6743;-3.0765;0.0345;-0.1086;-0.2826
0001063258;4.7046;2.4157;-2.8012;0.0665;-0.1418;-0.2571
0001063266;5.0949;2.5091;-2.5690;0.0777;-0.1907;-0.2534
0001063274;4.9728;2.4708;-2.7390;0.0713;-0.2268;-0.2467
0001063285;4.4987;2.2434;-2.9975;0.0091;-0.2459;-0.2575
0001063293;4.2329;2.2146;-3.0502;-0.0506;-0.2587;-0.2711
0001063304;3.9217;2.3224;-3.1412;-0.1318;-0.2678;-0.2950
0001063312;3.6344;2.2218;-3.2010;-0.1451;-0.2610;-0.3180
0001063323;3.7517;2.2170;-2.9544;-0.1290;-0.2321;-0.3460
0001063331;3.8810;2.3032;-2.6815;-0.1258;-0.2222;-0.3700
0001063342;3.8786;2.2649;-2.3750;-0.1009;-0.2005;-0.3796
0001063350;3.9624;2.2410;-2.2505;-0.0556;-0.1891;-0.3909
0001063358;3.7350;2.0016;-2.2553;-0.0151;-0.1668;-0.3930
0001063369;3.9456;1.8579;-2.2362;0.0220;-0.1455;-0.3910
0001063377;3.8235;1.6568;-2.3607;0.0240;-0.1444;-0.3900
0001063388;3.7613;1.6376;-2.6145;-0.0167;-0.1256;-0.3828
0001063396;3.8834;1.4222;-2.8371;-0.0617;-0.1136;-0.3872
0001063446;4.2569;1.7023;-2.7605;-0.2575;-0.1166;-0.5071
0001063454;4.2162;1.5874;-2.6576;-0.2614;-0.1194;-0.5288
0001063465;4.2449;1.5826;-2.5067;-0.2530;-0.1251;-0.5589
0001063473;4.5610;1.5850;-2.5235;-0.2409;-0.1212;-0.5692
0001063484;4.4317;1.2857;-2.5187;-0.2094;-0.1218;-0.5752
0001063492;4.6615;1.1492;-2.7150;-0.1872;-0.1180;-0.5681
0001063500;4.7142;1.0175;-2.7390;-0.1820;-0.1182;-0.5605
0001063511;4.7956;0.5722;-2.8994;-0.2113;-0.1306;-0.5427
0001063519;4.7549;0.1293;-2.9185;-0.2513;-0.1439;-0.5323
0001063530;5.0613;-0.2418;-2.7605;-0.3143;-0.1531;-0.5179
0001063538;5.0254;-0.5674;-2.5546;-0.3738;-0.1677;-0.5209
0001063549;5.0446;-0.7183;-2.2913;-0.4531;-0.1839;-0.5485
0001063557;5.2146;-0.7614;-2.1811;-0.5095;-0.1745;-0.5717
0001063568;5.1404;-0.7709;-2.5259;-0.5542;-0.1731;-0.6219
0001063576;5.0542;-0.7973;-2.8252;-0.5614;-0.1825;-0.6734
0001063587;5.0374;-1.1229;-2.3990;-0.5630;-0.1789;-0.7282
0001063595;4.9775;-1.3695;-1.8052;-0.5375;-0.1974;-0.7553
0001063603;5.0949;-1.3862;-1.0630;-0.5316;-0.2434;-0.7470
0001063614;5.3079;-1.4006;-0.4262;-0.5200;-0.2946;-0.6937
0001063622;5.4708;-1.3384;-0.1844;-0.5093;-0.2762;-0.6133
0001063633;6.1555;-0.8547;-0.3639;-0.4306;-0.2150;-0.5027
0001063641;6.6391;-0.7661;-0.5363;-0.3044;-0.1853;-0.4338
0001063695;7.3909;-3.2202;-0.5076;0.5877;-0.7112;-0.3328
0001063703;7.1874;-3.8930;0.0694;0.6454;-0.8597;-0.1982
0001063714;7.1706;-4.4317;0.5602;0.6083;-0.9253;0.0721
0001063722;7.1946;-4.5059;0.6201;0.5461;-0.9125;0.2607
0001063733;7.2568;-4.6376;0.2490;0.5428;-0.8188;0.4783
0001063741;7.0677;-4.9919;-0.1963;0.6019;-0.6889;0.5708
0001063749;6.1148;-5.3056;-0.6991;0.6968;-0.5837;0.5931
0001063760;4.9823;-5.1332;-1.1420;0.7630;-0.5335;0.4951
0001063768;4.3311;-4.7956;-1.2713;0.6776;-0.6078;0.3424
0001063779;4.0031;-4.3527;-1.6448;0.3387;-0.7878;0.1071
0001063787;4.3144;-3.8475;-1.8699;0.0373;-0.8843;0.0265
0001063798;5.0135;-2.4828;-1.9034;-0.5243;-0.8372;0.0409
0001063806;4.6567;-1.8292;-2.5738;-0.8651;-0.6857;0.0678
0001063817;3.2777;0.1580;-2.7964;-1.2465;-0.4354;0.0529
0001063825;2.2889;1.0822;-2.6647;-1.3908;-0.3211;-0.1294
0001063833;2.4636;1.3982;-2.1763;-1.3586;-0.2655;-0.4346
0001063844;3.6320;1.3312;-0.8332;-1.1442;-0.1885;-0.7997
0001063852;4.3838;1.4269;-0.2035;-1.0605;-0.1691;-1.0516
0001063863;5.4013;1.1061;0.9098;-1.0772;-0.2514;-1.3919
0001063871;5.8395;0.4980;1.9776;-1.0914;-0.3407;-1.5573
0001063882;6.6439;0.6823;3.4524;-1.0934;-0.4185;-1.6282
0001063890;7.0222;2.0710;3.6871;-1.0961;-0.3820;-1.6764
0001063944;-14.7076;0.5531;-7.1922;-1.0736;-0.2617;-4.1721
0001063952;-9.9168;-4.5490;-0.1772;-3.4620;-0.6885;-3.1023
0001063963;-3.2777;-8.4515;1.9513;-4.3657;-1.5727;-0.9365
0001063971;1.8292;-2.3104;3.9433;-4.3657;-2.5335;-0.0938
0001063979;4.1563;-0.6584;4.3551;-4.3657;-3.7361;0.3448
0001063990;9.2416;1.5562;2.3463;-3.8123;-3.8525;0.8474
0001063998;10.0317;5.5162;2.1380;-2.8449;-3.2317;0.8527
0001064009;4.1539;12.5935;3.9121;-2.3910;-2.4630;-0.4654
0001064017;-1.4772;13.5536;4.2042;-2.3614;-2.2519;-2.1285
0001064028;-4.2210;8.4874;5.0398;-1.7607;-1.8794;-3.2610
0001064036;-3.8355;3.8116;5.8682;-1.0212;-1.5859;-3.5133
0001064047;2.2434;-0.3160;3.6392;-0.1050;-1.3535;-3.7125
0001064055;4.9464;-1.5969;1.4413;0.2325;-1.4357;-3.7774
0001064066;6.4787;-3.2322;0.0551;0.2852;-1.7925;-3.7607
0001064074;5.8562;-3.7158;0.1389;-0.0316;-2.2278;-3.6956
0001064082;3.7326;-4.5633;0.6009;-0.5861;-2.7145;-3.7383
0001064093;-0.0670;-4.5586;4.2210;-1.4568;-2.6807;-4.2988
0001064101;-5.3630;-2.5546;10.2400;-2.5996;-2.0554;-4.3657
0001064112;-78.4532;44.2879;51.3389;-4.3657;-1.4121;-4.3657
0001064120;-78.4532;-21.8088;22.5462;-4.3657;-4.3657;-4.3657
0001064131;-0.3783;-16.9007;-0.0287;1.5332;-4.3657;-4.3657
0001064139;18.1959;-9.6247;-1.6233;4.3656;-4.3657;-4.3657
0001064193;-7.9272;4.6950;-2.7007;-0.4770;-2.8011;-0.4730
0001064201;-6.7684;-3.3088;5.6934;-1.3202;-3.6084;-1.3741
0001064212;-3.7517;-12.2559;13.4722;-1.2348;-2.7631;-0.9586
0001064220;2.8706;-9.9623;12.2655;-1.2697;-2.0765;-0.8151
0001064231;-5.2194;1.2043;10.4507;-1.1922;-0.4142;-0.1773
0001064239;-8.7939;4.9392;8.4635;-1.1377;0.1502;-0.5534
0001064247;-8.2600;5.7365;1.9704;-0.5995;0.7552;-0.2348
0001064258;0.3496;-4.2569;5.0829;0.3096;0.1243;-1.0439
0001064266;0.1077;-4.7597;5.5378;0.7446;0.4806;-0.9898
0001064277;-1.4198;-7.7285;6.0142;1.1242;0.9145;-0.9730
0001064285;-2.3248;-10.3190;6.4715;1.3354;0.7803;-1.0732
0001064296;-2.9257;-11.8992;5.5641;1.3410;0.6269;-1.0988
0001064304;-2.0566;-12.4858;5.2457;1.0260;0.6167;-1.1275
0001064315;-1.1588;-14.1785;5.4205;0.5008;0.6376;-1.1145
0001064323;0.3352;-15.0212;5.2553;0.2486;0.7068;-1.0709
0001064331;1.8172;-15.5910;3.9265;0.2257;0.7095;-0.9970
0001064342;4.0654;-17.0371;4.1204;0.2971;0.3986;-1.1215
0001064350;4.9680;-17.4537;4.3551;0.3027;0.0797;-1.3556
0001064361;6.3973;-17.7554;5.4779;0.1111;-0.2735;-1.7048
0001064369;6.1746;-17.1904;7.7500;0.0273;-0.5458;-1.6603
0001064380;6.4260;-15.5025;10.2903;0.0989;-0.9745;-1.3616
0001064388;6.0334;-14.0827;11.4563;0.1540;-0.9214;-0.9109
0001064442;0.6656;-10.5991;6.5194;-0.0877;-1.4679;1.4603
0001064450;-0.2227;-10.5393;8.7340;-0.1499;-1.8053;1.6894
0001064461;0.0646;-9.1387;11.2504;-0.2153;-1.6667;1.8315
0001064469;-0.0766;-7.5561;10.2472;-0.2382;-1.4425;1.7629
0001064477;1.7262;-6.4907;11.4970;-0.1054;-1.3698;1.4686
0001064488;2.0901;-6.7373;11.6430;-0.0461;-1.3563;0.9535
0001064496;1.2809;-7.5992;11.8681;-0.0217;-1.3539;0.7213
0001064507;1.3048;-8.7652;11.8010;0.0005;-1.0419;0.6234
0001064515;4.4604;-8.1187;10.1442;0.0765;-0.8535;0.5610
0001064526;2.8060;-8.3270;11.3246;0.0588;-0.6255;0.3722
0001064534;3.1340;-8.7221;11.4826;0.0759;-0.4250;0.3387
0001064545;2.0135;-8.7771;11.0277;0.0829;-0.1314;0.3631
0001064553;2.0255;-7.7979;10.6015;0.0839;0.0614;0.3226
0001064561;1.0558;-8.0278;10.0293;0.0930;0.2258;0.2372
0001064572;0.6584;-8.3893;9.1075;0.1290;0.3836;0.2446
0001064580;0.5914;-8.1570;8.6550;0.1514;0.4758;0.2566
0001064591;0.4070;-8.1499;7.7692;0.1549;0.5568;0.2482
0001064599;0.5914;-7.9727;7.5274;0.1591;0.6073;0.2491
0001064610;0.7638;-7.8554;7.0844;0.1709;0.6805;0.2567
0001064618;0.5124;-7.8913;7.0294;0.1731;0.7373;0.2678
0001064629;0.1508;-8.0637;6.9887;0.1857;0.7881;0.2789
0001064637;-0.4741;-8.2696;5.3510;0.2113;0.7333;0.2935
0001064645;0.1844;-7.8362;7.3143;0.2364;0.8408;0.3020
0001064699;0.2442;-7.1443;7.2975;0.2038;0.8171;0.0715
0001064707;0.2394;-6.8761;7.3454;0.0801;0.9727;-0.0204
0001064718;-0.0144;-6.8570;7.5920;-0.1073;1.2329;-0.0973
0001064726;-0.2873;-7.1826;7.8841;-0.1656;1.3598;-0.1537
0001064737;-0.0335;-7.1898;7.8171;-0.2256;1.5945;-0.2148
0001064745;0.0024;-7.2951;7.6614;-0.3031;1.8145;-0.2138
0001064753;-0.3783;-7.6016;7.9942;-0.3392;1.9680;-0.2349
0001064764;-0.9601;-8.0014;8.0589;-0.3210;2.2342;-0.2987
0001064772;-1.4868;-8.2265;8.1858;-0.2730;2.3963;-0.3212
0001064783;-2.3918;-8.7269;8.1163;-0.1732;2.6139;-0.2403
0001064791;-3.1101;-8.8298;7.5513;-0.1424;2.6915;-0.1915
0001064802;-3.5889;-9.0214;7.3837;-0.1506;2.6809;-0.0930
0001064810;-3.5961;-8.9878;7.2592;-0.1081;2.7215;0.0801
0001064821;-3.6009;-9.3637;7.2856;-0.0552;2.8008;0.3231
0001064829;-3.4548;-9.4475;7.3957;-0.0137;2.8734;0.4862
0001064840;-2.6647;-9.3877;7.1874;0.0140;3.0094;0.6322
0001064848;-2.6001;-8.6790;6.8235;0.0205;3.2377;0.7889
0001064856;-2.3152;-8.9639;6.3039;0.0273;3.3187;0.8724
0001064867;-1.7190;-8.6072;5.1140;0.0497;3.1602;0.8869
0001064875;-1.5083;-8.2791;4.1875;0.0541;3.1493;0.9084
0001064886;-1.4988;-8.0924;3.6607;0.0482;3.2710;0.8784
0001064894;-1.3719;-7.9057;3.2226;-0.0324;3.2788;0.8524
0001064948;-1.1037;-5.6360;0.1389;-1.1768;2.1673;0.1420
0001064956;-1.8148;-5.8634;0.9266;-1.3626;2.2443;0.0978
0001064964;-2.2649;-5.9113;1.2785;-1.4305;2.2493;0.0304
0001064975;-3.0311;-5.8945;1.3647;-1.3860;2.2094;-0.1316
0001064983;-3.4716;-5.7485;1.1875;-1.3239;2.1442;-0.2836
0001064994;-4.0725;-5.2241;0.2227;-1.2704;2.0612;-0.6098
0001065002;-4.1635;-5.1212;-0.2514;-1.2737;1.9718;-0.8833
0001065013;-3.8595;-5.0111;-1.1564;-1.3258;1.7860;-1.2337
0001065021;-3.6464;-5.5210;-1.8699;-1.2692;1.4248;-1.4087
0001065032;-3.1963;-5.8251;-2.3703;-1.0713;0.9577;-1.5270
0001065040;-3.1292;-6.0908;-2.6145;-0.9208;0.7813;-1.5195
0001065051;-3.0430;-6.2058;-2.6719;-0.7268;0.7234;-1.4881
0001065059;-2.8611;-6.0286;-2.3703;-0.5927;0.7894;-1.4603
0001065070;-3.1364;-6.1651;-2.2817;-0.4325;0.8150;-1.4028
0001065078;-3.2417;-6.0071;-2.1332;-0.2703;0.8428;-1.3793
0001065086;-3.8475;-6.9719;-1.7023;-0.0835;0.9004;-1.3339
0001065097;-4.0486;-7.6662;-1.5826;0.2277;0.8795;-1.2239
0001065105;-4.4317;-7.9751;-1.3120;0.4791;0.8649;-1.0900
0001065116;-4.2665;-8.5066;-0.8859;0.8146;0.8471;-0.7745
0001065124;-4.5250;-9.0477;-0.9768;1.0135;0.8399;-0.5068
0001065135;-4.3359;-9.6654;0.7039;1.2548;0.7783;-0.1860
0001065143;-4.2186;-9.9455;-2.0327;1.3716;0.8116;-0.0029
0001065197;-2.6647;-10.6207;-1.0247;0.7377;0.5853;0.2591
0001065205;-2.7174;-10.4028;-0.9313;0.5301;0.5796;0.2017
0001065216;-2.8012;-10.5297;-1.0175;0.2506;0.5842;0.1211
0001065224;-3.0598;-10.8050;-1.0127;0.0630;0.6226;0.0853
0001065232;-3.2465;-10.9200;-1.0942;-0.1033;0.6507;0.0350
0001065243;-3.4261;-10.6638;-1.1827;-0.3504;0.6230;-0.0212
0001065251;-3.8379;-10.7141;-1.3431;-0.5676;0.5782;-0.0648
0001065262;-3.9887;-10.4986;-1.7573;-0.9026;0.4537;-0.1091
0001065270;-3.9121;-10.2328;-2.0782;-1.1632;0.3697;-0.1207
0001065281;-3.6679;-9.7995;-2.5450;-1.4417;0.2519;-0.1869
0001065289;-3.1077;-9.4858;-2.6887;-1.5948;0.1735;-0.2324
0001065300;-2.4062;-8.9543;-2.6647;-1.7002;0.1207;-0.2545
0001065308;-2.0566;-8.6119;-2.7414;-1.6964;0.0545;-0.2566
0001065319;-1.6328;-8.3127;-2.7821;-1.5968;-0.0270;-0.2293
0001065327;-1.5036;-8.0900;-2.9784;-1.4699;-0.0691;-0.1799
0001065338;-1.3431;-7.7883;-3.1987;-1.2401;-0.1035;-0.1087
0001065346;-1.5682;-7.6543;-3.2250;-1.0504;-0.1336;-0.0667
0001065354;-1.7502;-7.4819;-3.1268;-0.8346;-0.1673;-0.0337
0001065365;-2.0566;-7.1994;-2.9425;-0.5649;-0.1663;0.0221
0001065373;-2.3607;-7.0940;-2.8802;-0.3732;-0.1675;0.0652
0001065384;-2.7988;-7.2664;-2.7102;-0.1166;-0.1604;0.1043
0001065392;-3.1053;-7.3382;-2.5570;0.0496;-0.1576;0.1198
0001065445;-4.0869;-8.6766;-1.7166;0.3757;-0.0987;0.0153
0001065453;-4.2306;-8.9783;-1.7430;0.3311;-0.0985;-0.0136
0001065464;-4.2665;-9.0405;-1.7334;0.2376;-0.0941;-0.0518
0001065472;-4.2114;-9.0573;-1.7741;0.1585;-0.0939;-0.0747
0001065483;-4.3287;-9.3111;-1.8316;0.0444;-0.1259;-0.0979
0001065491;-4.1468;-9.2105;-1.8387;-0.0350;-0.1246;-0.1067
0001065502;-3.4357;-8.9854;-1.6903;-0.1234;-0.1283;-0.1100
0001065510;-3.3208;-9.0477;-1.7310;-0.1589;-0.1283;-0.1102
0001065518;-2.8802;-8.8418;-1.8387;-0.1812;-0.1243;-0.1067
0001065529;-2.9305;-8.6191;-1.7885;-0.1789;-0.1002;-0.0759
0001065537;-2.9951;-8.3893;-1.8890;-0.1432;-0.0929;-0.0633
0001065548;-3.1244;-8.5353;-2.0470;-0.0849;-0.0833;-0.0325
0001065556;-3.0765;-8.4108;-2.0877;-0.0326;-0.0873;-0.0059
0001065567;-3.2944;-8.6957;-2.0806;0.0353;-0.0893;0.0207
0001065575;-3.3806;-8.7484;-2.0351;0.0758;-0.0930;0.0358
0001065586;-3.5650;-8.8801;-1.9345;0.1002;-0.1034;0.0580
0001065594;-3.3543;-8.7795;-1.8292;0.1010;-0.1069;0.0538
0001065605;-3.4524;-8.8346;-1.8531;0.0719;-0.1119;0.0592
0001065613;-3.4357;-8.9687;-1.8459;0.0496;-0.1183;0.0601
0001065624;-3.3782;-8.6766;-1.9106;0.0172;-0.1244;0.0549
0001065632;-3.5027;-8.7795;-1.8124;-0.0061;-0.1195;0.0452
0001065640;-3.2801;-8.5928;-1.8771;-0.0188;-0.1302;0.0324
0001065694;-3.4668;-8.6862;-1.6759;0.0333;-0.1382;0.0369
0001065702;-3.5027;-8.7771;-1.5155;0.0353;-0.1287;0.0454
0001065713;-3.5578;-8.6886;-1.6616;0.0376;-0.1283;0.0498
0001065721;-3.6057;-8.6311;-1.7502;0.0357;-0.1376;0.0401
0001065732;-3.4237;-8.7532;-1.6831;0.0346;-0.1440;0.0298
0001065740;-3.0646;-8.4851;-1.9201;0.0388;-0.1507;0.0378
0001065751;-2.9377;-8.4946;-1.9273;0.0534;-0.1579;0.0300
0001065759;-3.0047;-8.3893;-1.9130;0.0628;-0.1628;0.0312
0001065770;-3.3016;-8.5258;-1.7717;0.0686;-0.1525;0.0318
0001065778;-3.4309;-8.5305;-1.7549;0.0746;-0.1450;0.0328
0001065786;-3.5410;-8.6335;-1.6807;0.0826;-0.1482;0.0277
0001065797;-3.5075;-8.5353;-1.6400;0.1002;-0.1444;0.0273
0001065805;-3.7230;-8.5473;-1.5754;0.1081;-0.1434;0.0187
0001065816;-4.0199;-8.7364;-1.4868;0.1071;-0.1319;0.0131
0001065824;-3.8020;-8.6742;-1.4629;0.1039;-0.1360;0.0064
0001065835;-3.5769;-8.5473;-1.6113;0.0885;-0.1316;0.0019
0001065843;-3.5626;-8.6574;-1.5586;0.0773;-0.1352;-0.0015
0001065854;-3.5698;-8.7293;-1.5562;0.0550;-0.1243;-0.0044
0001065862;-3.5243;-8.8298;-1.4461;0.0465;-0.1211;-0.0036
0001065873;-3.6176;-8.6407;-1.5490;0.0417;-0.1196;-0.0053
0001065881;-3.6607;-8.7580;-1.4437;0.0381;-0.1142;0.0000
0001065889;-3.4836;-8.5425;-1.4796;0.0338;-0.1094;-0.0020
0001065943;-3.5458;-8.7963;-1.5874;0.0069;-0.0965;-0.0053
0001065951;-3.4237;-8.6431;-1.5467;-0.0005;-0.0939;0.0067
0001065962;-3.6057;-8.8250;-1.5347;-0.0065;-0.0962;0.0075
0001065970;-3.7302;-8.8107;-1.5012;-0.0088;-0.1073;0.0081
0001065981;-3.4548;-8.5665;-1.5730;-0.0197;-0.1106;0.0153
0001065989;-3.5793;-8.6455;-1.5155;-0.0177;-0.1073;0.0217
0001066000;-3.5195;-8.6550;-1.4557;-0.0199;-0.1009;0.0316
0001066008;-3.5602;-8.6670;-1.3910;-0.0177;-0.1029;0.0300
0001066019;-3.6129;-8.7460;-1.4317;-0.0224;-0.0951;0.0356
0001066027;-3.5626;-8.6455;-1.4293;-0.0209;-0.0883;0.0374
0001066038;-3.5745;-8.6383;-1.4150;-0.0298;-0.0798;0.0417
0001066046;-3.4477;-8.5425;-1.4030;-0.0274;-0.0782;0.0372
0001066054;-3.5410;-8.5449;-1.4078;-0.0333;-0.0726;0.0308
0001066065;-3.5171;-8.4276;-1.4222;-0.0386;-0.0617;0.0209
0001066073;-3.6871;-8.3893;-1.4198;-0.0341;-0.0541;0.0115
0001066084;-3.6081;-8.3821;-1.4365;-0.0360;-0.0464;0.0003
0001066092;-3.6200;-8.4300;-1.4150;-0.0300;-0.0444;-0.0019
0001066103;-3.6703;-8.5569;-1.3599;-0.0128;-0.0444;-0.0159
0001066111;-3.5985;-8.5401;-1.4461;-0.0099;-0.0377;-0.0107
0001066122;-3.5674;-8.5832;-1.4676;-0.0029;-0.0365;-0.0164
0001066130;-3.5817;-8.6239;-1.4413;-0.0044;-0.0361;-0.0151
0001066184;-3.4046;-8.4827;-1.3695;-0.0270;-0.0341;-0.0079
0001066192;-3.6559;-8.6072;-1.3982;-0.0261;-0.0341;-0.0111
0001066203;-3.5171;-8.4994;-1.4365;-0.0200;-0.0354;-0.0169
0001066211;-3.4524;-8.5545;-1.5658;-0.0228;-0.0309;-0.0165
0001066222;-3.4022;-8.5521;-1.4533;-0.0099;-0.0384;-0.0193
0001066230;-3.3806;-8.5808;-1.5562;-0.0095;-0.0296;-0.0120
0001066238;-3.2968;-8.4779;-1.4102;-0.0091;-0.0350;-0.0171
0001066249;-3.3710;-8.6335;-1.4126;-0.0136;-0.0294;-0.0071
0001066257;-3.3854;-8.6311;-1.4198;-0.0153;-0.0346;-0.0085
0001066268;-3.4740;-8.6694;-1.4748;-0.0232;-0.0285;-0.0031
0001066276;-3.6272;-8.6503;-1.4389;-0.0240;-0.0328;-0.0025
0001066287;-3.5386;-8.6215;-1.3695;-0.0358;-0.0218;0.0001
0001066295;-3.5721;-8.5449;-1.4605;-0.0356;-0.0264;-0.0051
0001066306;-3.4644;-8.5377;-1.5490;-0.0456;-0.0176;-0.0081
0001066314;-3.4141;-8.5401;-1.5107;-0.0433;-0.0205;-0.0056
0001066325;-3.5745;-8.6191;-1.4198;-0.0374;-0.0201;-0.0124
0001066335;-3.4357;-8.5760;-1.4748;-0.0350;-0.0165;-0.0135
0001066347;-3.4812;-8.4348;-1.5060;-0.0308;-0.0157;-0.0103
0001066356;-3.5027;-8.6598;-1.5921;-0.0301;-0.0159;-0.0085
0001066368;-3.3016;-8.4611;-1.5083;-0.0352;-0.0153;-0.0029
0001066377;-3.3806;-8.5545;-1.5251;-0.0280;-0.0257;-0.0069
0001066386;-3.4836;-8.8442;-1.5275;-0.0378;-0.0195;0.0000
0001066443;-3.5913;-8.5976;-1.5107;-0.0384;-0.0365;-0.0153
0001066452;-3.4429;-8.5210;-1.5036;-0.0360;-0.0394;-0.0105
0001066464;-3.3710;-8.5042;-1.4892;-0.0409;-0.0384;-0.0097
0001066473;-3.4788;-8.6479;-1.4269;-0.0373;-0.0466;-0.0085
0001066484;-3.3974;-8.6574;-1.3862;-0.0421;-0.0388;-0.0087
0001066493;-3.3351;-8.4539;-1.4844;-0.0440;-0.0336;-0.0067
0001066505;-3.4381;-8.3941;-1.5467;-0.0493;-0.0302;-0.0116
0001066514;-3.4477;-8.4372;-1.5706;-0.0444;-0.0361;-0.0121
0001066525;-3.6631;-8.6000;-1.5227;-0.0360;-0.0321;-0.0137
0001066534;-3.5674;-8.5018;-1.4940;-0.0328;-0.0296;-0.0144
0001066546;-3.4141;-8.5521;-1.5155;-0.0133;-0.0326;-0.0163
0001066555;-3.4596;-8.6000;-1.5826;-0.0151;-0.0272;-0.0087
0001066566;-3.3639;-8.5521;-1.5778;-0.0079;-0.0298;-0.0089
0001066575;-3.4117;-8.5736;-1.5060;-0.0112;-0.0396;-0.0091
0001066587;-3.6559;-8.8633;-1.5179;-0.0203;-0.0400;-0.0012
0001066596;-3.5817;-8.7197;-1.5060;-0.0292;-0.0385;0.0011
0001066605;-3.7589;-8.8322;-1.4078;-0.0433;-0.0417;0.0004
0001066659;-3.2944;-8.3582;-1.5921;-0.0280;-0.0558;-0.0064
0001066668;-3.3255;-8.4060;-1.6640;-0.0153;-0.0617;-0.0027
0001066680;-3.3662;-8.4515;-1.5347;0.0009;-0.0649;-0.0012
0001066689;-3.3471;-8.4515;-1.5850;0.0089;-0.0731;0.0000
0001066700;-3.4189;-8.5138;-1.4796;0.0060;-0.0755;0.0045
0001066709;-3.3662;-8.4779;-1.5562;-0.0023;-0.0731;0.0104
0001066721;-3.4213;-8.5808;-1.5299;-0.0104;-0.0747;0.0071
0001066730;-3.4069;-8.5353;-1.4078;-0.0116;-0.0770;0.0036
0001066741;-3.3064;-8.4396;-1.4581;-0.0148;-0.0775;-0.0011
0001066750;-3.4931;-8.4491;-1.4341;-0.0067;-0.0902;-0.0043
0001066762;-3.3782;-8.3486;-1.4988;0.0008;-0.0901;-0.0107
0001066771;-3.4524;-8.4276;-1.4772;0.0011;-0.0891;-0.0071
0001066780;-3.5793;-8.5401;-1.4700;0.0092;-0.0953;-0.0112
0001066791;-3.4788;-8.5712;-1.4605;0.0096;-0.0965;-0.0120
0001066800;-3.7038;-8.6503;-1.4676;0.0124;-0.0938;-0.0075
0001066812;-3.5602;-8.6143;-1.4485;0.0096;-0.0925;-0.0031
0001066821;-3.4596;-8.6191;-1.4988;0.0107;-0.1031;-0.0061
0001066832;-3.5482;-8.6024;-1.4341;0.0077;-0.1025;0.0009
0001066841;-3.3184;-8.5353;-1.4413;0.0017;-0.0974;0.0080
0001066853;-3.4477;-8.5353;-1.3934;0.0024;-0.0969;0.0048
0001066862;-3.6775;-8.6215;-1.4030;-0.0020;-0.0971;0.0077
0001066917;-3.6464;-8.5784;-1.3168;0.0428;-0.1011;-0.0128
0001066926;-3.4046;-8.4659;-1.4317;0.0418;-0.0939;-0.0037
0001066935;-3.4309;-8.4084;-1.3408;0.0541;-0.1038;-0.0095
0001066947;-3.5626;-8.6024;-1.3599;0.0537;-0.1034;-0.0144
0001066956;-3.3303;-8.4922;-1.4150;0.0529;-0.1059;-0.0131
0001066967;-3.3950;-8.5018;-1.4868;0.0444;-0.1106;-0.0097
0001066976;-3.5195;-8.6479;-1.3671;0.0393;-0.1176;-0.0159
0001066988;-3.6129;-8.5258;-1.3551;0.0345;-0.1226;-0.0201
0001066997;-3.5075;-8.5617;-1.2210;0.0310;-0.1354;-0.0269
0001067008;-3.6943;-8.4994;-1.1325;0.0290;-0.1216;-0.0256
0001067017;-3.6631;-8.5617;-1.2139;0.0284;-0.1171;-0.0281
0001067029;-3.5195;-8.3821;-1.1971;0.0330;-0.1035;-0.0289
0001067038;-3.5171;-8.3414;-1.2450;0.0434;-0.1051;-0.0374
0001067049;-3.4764;-8.3414;-1.2833;0.0537;-0.1160;-0.0540
0001067058;-3.2777;-8.3055;-1.3288;0.0550;-0.1142;-0.0577
0001067067;-3.3950;-8.3175;-1.2905;0.0586;-0.1178;-0.0694
0001067079;-3.4979;-8.6000;-1.2833;0.0687;-0.1208;-0.0771
0001067088;-3.4572;-8.4348;-1.1923;0.0633;-0.1155;-0.0754
0001067099;-3.6847;-8.7245;-1.1732;0.0572;-0.1107;-0.0795
0001067108;-3.5506;-8.7101;-1.1181;0.0530;-0.1110;-0.0737
0001067120;-3.7110;-8.8059;-1.0942;0.0429;-0.1035;-0.0709
0001067129;-3.6847;-8.7029;-1.0606;0.0382;-0.1045;-0.0694
0001067184;-3.6200;-8.6072;-1.0080;0.0151;-0.0873;-0.0388
0001067193;-3.6009;-8.6550;-1.0343;0.0040;-0.0813;-0.0370
0001067205;-3.5626;-8.4659;-1.0151;0.0072;-0.0769;-0.0397
0001067214;-3.6536;-8.6526;-1.0463;0.0135;-0.0725;-0.0384
0001067225;-3.4189;-8.7269;-1.1037;0.0168;-0.0682;-0.0348
0001067234;-3.6847;-8.7364;-1.0822;0.0187;-0.0687;-0.0346
0001067243;-3.5674;-8.6287;-1.0534;0.0160;-0.0655;-0.0353
0001067255;-3.4931;-8.5712;-1.0774;0.0001;-0.0550;-0.0325
0001067264;-3.5530;-8.6143;-1.0846;-0.0001;-0.0460;-0.0326
0001067275;-3.7254;-8.5928;-1.0367;0.0013;-0.0436;-0.0337
0001067284;-3.6344;-8.5090;-0.9625;-0.0113;-0.0258;-0.0278
0001067296;-3.6200;-8.6239;-1.0678;-0.0133;-0.0187;-0.0314
0001067305;-3.8403;-8.6143;-1.0008;-0.0124;-0.0089;-0.0361
0001067316;-3.5410;-8.5353;-1.0606;-0.0068;-0.0123;-0.0392
0001067325;-3.6368;-8.6167;-1.0319;-0.0117;0.0023;-0.0392
0001067337;-3.4644;-8.5473;-0.9744;-0.0107;-0.0009;-0.0426
0001067346;-3.5314;-8.6072;-1.1372;-0.0069;0.0015;-0.0510
0001067357;-3.5674;-8.6622;-1.1109;-0.0092;0.0056;-0.0454
0001067366;-3.4524;-8.6790;-1.1875;-0.0073;0.0029;-0.0484
0001067378;-3.4955;-8.7484;-1.0750;-0.0055;0.0092;-0.0425
0001067387;-3.3950;-8.6239;-1.1372;-0.0140;0.0144;-0.0386
0001067396;-3.4429;-8.5497;-1.1756;-0.0031;0.0027;-0.0497
0001067452;-3.5003;-8.6574;-1.2258;-0.0131;-0.0008;-0.0454
0001067461;-3.5793;-8.8202;-1.1444;-0.0085;-0.0073;-0.0500
0001067473;-3.3710;-8.7245;-1.1540;-0.0043;-0.0101;-0.0430
0001067482;-3.5913;-8.7700;-1.1492;-0.0069;-0.0069;-0.0356
0001067493;-3.4524;-8.7484;-1.1444;-0.0109;-0.0087;-0.0330
0001067502;-3.4572;-8.6287;-1.2354;-0.0040;-0.0117;-0.0338
0001067514;-3.5219;-8.7652;-1.1636;-0.0107;-0.0195;-0.0285
0001067523;-3.3782;-8.6670;-1.2498;-0.0116;-0.0229;-0.0300
0001067534;-3.5147;-8.7652;-1.1396;-0.0087;-0.0192;-0.0273
0001067543;-3.6296;-8.7915;-1.2139;-0.0117;-0.0221;-0.0238
0001067554;-3.5985;-8.8490;-1.2210;-0.0117;-0.0222;-0.0197
0001067562;-3.5937;-8.8322;-1.1851;-0.0116;-0.0285;-0.0220
0001067572;-3.6272;-8.6981;-1.2019;-0.0137;-0.0274;-0.0201
0001067580;-3.4812;-8.6479;-1.2761;-0.0072;-0.0354;-0.0216
0001067588;-3.4620;-8.6359;-1.1947;-0.0067;-0.0344;-0.0211
0001067599;-3.3974;-8.7149;-1.1420;-0.0091;-0.0333;-0.0184
0001067607;-3.6057;-8.7221;-1.2354;-0.0068;-0.0316;-0.0172
0001067617;-3.4907;-8.7604;-1.1588;-0.0081;-0.0332;-0.0172
