time;acc_x;acc_y;acc_z;gyro_x;gyro_y;gyro_z
0000614370;8.1092;-15.0978;-4.0103;0.0881;0.4417;0.1523
0000614379;8.2456;-15.1481;-4.1539;0.1151;0.4221;0.1467
0000614387;8.2025;-15.3947;-4.1946;0.1292;0.3893;0.1427
0000614395;8.5018;-15.4618;-4.3000;0.1174;0.3565;0.1324
0000614448;8.7580;-15.4929;-4.4724;-0.0175;0.0490;-0.0164
0000614456;8.5234;-15.6988;-4.4173;-0.0300;0.0246;-0.0199
0000614467;8.3318;-15.6700;-4.3431;-0.0260;-0.0137;-0.0301
0000614475;8.1235;-15.6557;-4.2928;-0.0193;-0.0377;-0.0372
0000614483;7.8913;-15.8592;-4.2282;-0.0175;-0.0478;-0.0273
0000614494;7.7500;-15.8376;-4.2641;-0.0028;-0.0545;-0.0097
0000614502;7.8147;-15.8831;-4.3120;0.0047;-0.0534;0.0053
0000614513;7.8602;-15.8352;-4.1946;-0.0055;-0.0453;0.0209
0000614521;7.9128;-15.7443;-4.2569;-0.0155;-0.0424;0.0308
0000614532;7.9535;-15.7850;-4.2234;-0.0354;-0.0334;0.0525
0000614540;8.0804;-15.6940;-4.1803;-0.0610;-0.0365;0.0610
0000614551;8.3031;-15.6485;-4.0366;-0.0879;-0.0381;0.0730
0000614559;8.3007;-15.6365;-3.9648;-0.1031;-0.0554;0.0653
0000614570;8.6239;-15.4522;-3.7134;-0.1094;-0.0858;0.0565
0000614578;8.8178;-15.3899;-3.5889;-0.1091;-0.1190;0.0269
0000614589;9.3063;-15.2487;-3.5602;-0.0877;-0.1676;-0.0278
0000614597;9.6271;-15.0883;-3.4093;-0.0770;-0.1997;-0.0703
0000614651;9.5457;-15.0787;-3.2681;0.1035;-0.4966;-0.3166
0000614659;9.5074;-15.0571;-3.2872;0.1416;-0.5444;-0.3436
0000614667;9.0980;-15.3588;-3.2825;0.1660;-0.5786;-0.3501
0000614678;9.1339;-15.5695;-3.2944;0.1977;-0.6452;-0.3675
0000614686;9.3015;-15.4402;-3.4117;0.2097;-0.6829;-0.3738
0000614697;9.5720;-15.6006;-3.4477;0.1969;-0.7422;-0.3866
0000614705;9.5744;-15.6844;-3.3734;0.1920;-0.7950;-0.4032
0000614716;9.7157;-15.7969;-3.2585;0.1789;-0.8569;-0.4169
0000614724;9.8689;-15.7730;-3.2465;0.1800;-0.9200;-0.4450
0000614735;10.0820;-15.7730;-3.1340;0.1777;-1.0000;-0.4664
0000614743;10.1251;-15.7515;-3.1077;0.1839;-1.0721;-0.4798
0000614754;10.2831;-15.5767;-3.0095;0.1772;-1.1591;-0.5019
0000614762;10.2592;-15.7515;-2.9281;0.1640;-1.2104;-0.5153
0000614773;10.0844;-15.8089;-2.7342;0.1635;-1.2971;-0.5569
0000614781;10.0245;-15.8640;-2.6288;0.1777;-1.3639;-0.5824
0000614789;9.9623;-15.7945;-2.5355;0.1935;-1.4212;-0.5983
0000614800;9.8569;-15.8807;-2.3200;0.2236;-1.5138;-0.6215
0000614808;9.9695;-15.7945;-2.3846;0.2477;-1.5977;-0.6430
0000614819;9.9503;-15.8233;-2.2027;0.2763;-1.7091;-0.6588
0000614827;9.9742;-15.8760;-2.1644;0.2982;-1.7794;-0.6747
0000614838;10.0030;-15.9119;-2.0279;0.3317;-1.9144;-0.6961
0000614846;9.9910;-15.9526;-1.9872;0.3516;-1.9877;-0.7009
0000614900;9.3829;-16.2231;-1.1253;0.3467;-2.5262;-0.8444
0000614908;9.3565;-16.1393;-0.8859;0.3520;-2.6129;-0.8588
0000614919;9.0668;-16.3165;-0.7566;0.3764;-2.7126;-0.8673
0000614927;9.0668;-16.4194;-0.6153;0.4080;-2.8019;-0.8792
0000614938;8.9735;-16.3907;-0.4381;0.4479;-2.9199;-0.8958
0000614946;8.9902;-16.4506;-0.3663;0.4615;-3.0020;-0.9070
0000614954;8.8992;-16.5775;-0.2610;0.4562;-3.0958;-0.9314
0000614965;8.6143;-16.7522;-0.2993;0.4277;-3.2167;-0.9558
0000614973;8.6359;-16.8025;-0.1700;0.4054;-3.3111;-0.9924
0000614984;8.3486;-17.1760;0.0048;0.3738;-3.3811;-1.0229
0000614992;8.1283;-17.2957;0.0383;0.3655;-3.4367;-1.0548
0000615003;7.5441;-17.4489;-0.0192;0.3685;-3.4935;-1.1016
0000615011;7.0246;-17.5902;0.0766;0.3381;-3.4964;-1.1255
0000615022;6.4620;-17.5543;-0.0910;0.3239;-3.5165;-1.1579
0000615030;5.7293;-17.7865;-0.1173;0.3255;-3.4951;-1.1538
0000615041;5.0853;-17.6501;-0.2586;0.3269;-3.4668;-1.1390
0000615049;4.7621;-17.7746;-0.2538;0.3275;-3.4262;-1.1281
0000615060;4.1683;-18.0403;-0.3256;0.3359;-3.3837;-1.0973
0000615068;4.0294;-17.6908;-0.3926;0.3400;-3.3322;-1.0539
0000615076;3.2681;-17.8823;0.2538;0.3509;-3.3938;-1.0135
0000615087;3.9241;-17.7889;0.4381;0.3748;-3.5368;-0.9509
0000615095;6.1818;-17.3580;-0.4405;0.5665;-3.5481;-0.9614
0000615149;7.2042;-18.9788;-1.9321;-0.0785;-3.7630;-1.7676
0000615157;6.2513;-18.9094;-1.5658;-0.2665;-3.7903;-1.7888
0000615168;5.0350;-18.1888;-1.0558;-0.4502;-3.8289;-1.7821
0000615176;4.1515;-17.6261;-0.7470;-0.5180;-3.7896;-1.7393
0000615187;2.9377;-16.9797;-0.5339;-0.5216;-3.7238;-1.6587
0000615195;2.1668;-16.3093;-0.6201;-0.4740;-3.6144;-1.5905
0000615206;0.9409;-15.7108;-0.8475;-0.3623;-3.4332;-1.4825
0000615214;0.4334;-15.3373;-1.1971;-0.2587;-3.3220;-1.3996
0000615225;0.0239;-14.8871;-1.5419;-0.0779;-3.1117;-1.2493
0000615233;-0.6943;-15.0619;-2.0279;0.0650;-2.9435;-1.1410
0000615241;-0.8236;-14.8871;-2.6145;0.1951;-2.7432;-1.0300
0000615252;-0.9529;-14.8967;-3.6057;0.3667;-2.4492;-0.8961
0000615260;-0.6991;-15.1266;-4.1037;0.4265;-2.1882;-0.8086
0000615271;-0.0958;-15.5240;-4.9009;0.4559;-1.8350;-0.7436
0000615279;0.6393;-15.7060;-5.4348;0.4382;-1.6061;-0.6941
0000615290;1.4389;-15.6772;-5.9400;0.3312;-1.3221;-0.6339
0000615298;1.4940;-15.7874;-6.1890;0.2329;-1.1502;-0.6057
0000615309;2.0303;-15.9981;-6.0789;0.0842;-0.9725;-0.5906
0000615317;2.6217;-15.8975;-5.6312;-0.0009;-0.8588;-0.5882
0000615328;3.3926;-15.6964;-5.3678;-0.0557;-0.7031;-0.5773
0000615336;3.9552;-15.5743;-5.0877;-0.0537;-0.6119;-0.5852
0000615390;6.8857;-15.7179;-3.9792;0.0659;-0.2285;-0.4439
0000615398;6.9264;-16.0555;-4.1755;0.0318;-0.2156;-0.3459
0000615409;7.4005;-15.8089;-4.3574;-0.0570;-0.2586;-0.2473
0000615417;7.5369;-15.8592;-4.5562;-0.1194;-0.2828;-0.1988
0000615425;7.9847;-15.6653;-4.5059;-0.1677;-0.3119;-0.1507
0000615436;8.2983;-15.5120;-4.6112;-0.1799;-0.4046;-0.1518
0000615444;8.1618;-15.2199;-4.5538;-0.1957;-0.4547;-0.1419
0000615455;7.8003;-14.9135;-4.5562;-0.2052;-0.5329;-0.1360
0000615463;7.5082;-14.7076;-4.3934;-0.1923;-0.5628;-0.1360
0000615474;7.1922;-14.8105;-4.4724;-0.1404;-0.5915;-0.1424
0000615482;7.0102;-14.6765;-4.4963;-0.0878;-0.6058;-0.1436
0000615493;6.9935;-14.9255;-4.4891;-0.0245;-0.5994;-0.1323
0000615501;6.9576;-14.9039;-4.5825;-0.0020;-0.5893;-0.1310
0000615512;6.9145;-15.2319;-4.7022;0.0095;-0.5672;-0.1155
0000615520;6.5625;-15.3636;-4.7836;0.0004;-0.5408;-0.0967
0000615531;6.5625;-15.3301;-4.8961;-0.0095;-0.5081;-0.0826
0000615539;6.3805;-15.2870;-5.0566;-0.0127;-0.4779;-0.0713
0000615550;6.3327;-15.3277;-5.1523;-0.0265;-0.4203;-0.0334
0000615558;6.4093;-15.2367;-5.1116;-0.0332;-0.3870;0.0003
0000615566;6.5649;-14.9422;-5.2241;-0.0529;-0.3408;0.0324
0000615577;6.2848;-14.6501;-5.1619;-0.0679;-0.2947;0.0550
0000615585;6.3494;-14.4993;-5.0996;-0.0686;-0.2631;0.0588
0000615639;5.3846;-15.1218;-4.9297;0.2285;0.2117;0.2690
0000615647;5.4540;-15.1098;-4.9392;0.2399;0.2976;0.3211
0000615658;5.5258;-15.1314;-5.0709;0.2487;0.4163;0.3977
0000615666;5.2050;-15.4330;-5.1092;0.2590;0.4994;0.4398
0000615677;5.1739;-15.3253;-5.1427;0.2657;0.6293;0.4954
0000615685;5.2241;-15.2559;-5.1260;0.2541;0.7314;0.5373
0000615696;5.3822;-15.1529;-5.1763;0.2341;0.8729;0.5866
0000615704;5.3606;-15.2511;-5.0661;0.2253;0.9774;0.6218
0000615712;5.2170;-15.2175;-5.0302;0.2212;1.0813;0.6634
0000615723;5.0996;-15.0571;-4.8411;0.1988;1.2213;0.7397
0000615731;4.9440;-15.1625;-4.6878;0.1727;1.3234;0.8059
0000615742;4.6639;-15.1385;-4.4843;0.1684;1.4646;0.9120
0000615750;4.3551;-15.2295;-4.3144;0.1748;1.5619;1.0020
0000615761;4.2210;-15.1481;-4.0965;0.1964;1.7139;1.1167
0000615769;4.2425;-15.1290;-3.9863;0.2112;1.8163;1.1969
0000615780;3.9576;-15.4330;-3.7134;0.2529;1.9897;1.2832
0000615788;4.1396;-15.4330;-3.6512;0.2831;2.1321;1.3391
0000615796;4.0270;-15.7060;-3.4931;0.3159;2.2716;1.3807
0000615807;3.9121;-15.9669;-3.3303;0.3609;2.4886;1.4226
0000615815;3.8571;-16.1609;-3.2729;0.3772;2.6452;1.4521
0000615868;2.3607;-17.1545;-3.2537;0.0741;3.7518;1.8835
0000615876;2.2913;-17.2191;-2.8108;-0.0878;3.9231;1.9749
0000615887;2.2793;-17.1568;-1.8842;-0.3088;4.1536;2.0599
0000615895;2.3391;-17.3915;-1.1708;-0.4318;4.3313;2.1174
0000615906;2.1452;-17.5782;-0.3639;-0.5183;4.3656;2.1807
0000615914;2.4181;-17.7746;0.3065;-0.5208;4.3656;2.2179
0000615922;2.4900;-17.8368;0.8332;-0.4864;4.3656;2.2480
0000615933;2.9999;-18.0188;1.5586;-0.4062;4.3656;2.2775
0000615941;3.5793;-18.0068;1.8459;-0.3487;4.3656;2.2789
0000615952;4.0917;-18.0930;1.9776;-0.2571;4.3656;2.2591
0000615960;4.6184;-18.0978;2.1069;-0.2104;4.3656;2.2477
0000615971;5.0326;-18.0547;2.3583;-0.1631;4.3656;2.2278
0000615979;5.4253;-18.1576;2.3655;-0.1427;4.3656;2.1909
0000615990;5.7509;-18.3204;2.4708;-0.1423;4.3656;2.1384
0000615998;5.7628;-18.4641;2.3487;-0.1402;4.3656;2.0905
0000616006;5.6192;-18.5527;2.3798;-0.1553;4.3656;2.0412
0000616017;5.5186;-18.6939;2.4972;-0.1832;4.3656;1.9255
0000616025;5.4971;-18.3635;2.4205;-0.2208;4.3656;1.8354
0000616036;5.4396;-18.1073;2.4517;-0.3108;4.3656;1.7127
0000616044;5.6623;-17.5902;2.5402;-0.4049;4.3656;1.6427
0000616055;5.5833;-17.1497;2.6480;-0.5412;4.3656;1.5751
0000616063;6.0071;-16.9174;3.0430;-0.6480;4.3656;1.5660
0000616117;8.8274;-19.1249;1.8052;0.3889;4.3656;2.4861
0000616125;9.2153;-18.6389;0.2562;0.5724;4.3656;2.3565
0000616133;9.7659;-18.2007;-1.0391;0.6618;4.3656;2.1248
0000616144;10.7356;-17.7051;-2.6145;0.5147;4.3656;1.7136
0000616152;11.5544;-17.4825;-3.2681;0.2575;4.3656;1.4246
0000616163;12.5480;-17.3628;-3.4931;-0.2485;4.3656;1.0273
0000616171;13.1466;-17.1305;-3.0454;-0.6484;4.3182;0.8122
0000616182;13.4482;-17.0898;-1.8890;-1.0408;4.1467;0.5868
0000616190;12.9047;-17.1138;-1.3982;-1.1544;4.0003;0.5470
0000616201;11.2958;-16.9701;-1.0080;-1.0453;3.7621;0.6214
0000616209;8.0804;-16.9916;-0.6225;-0.8679;3.6104;0.7402
0000616220;5.6862;-16.6158;-0.5770;-0.6755;3.5286;0.9136
0000616228;4.6926;-16.1226;-0.9529;-0.5774;3.4999;0.9976
0000616236;4.9752;-15.6150;-1.3192;-0.5347;3.4640;1.0527
0000616247;6.8522;-15.1577;-1.8818;-0.5446;3.4652;1.1179
0000616255;8.4252;-15.0045;-2.4277;-0.5770;3.4487;1.1397
0000616266;10.0173;-15.1744;-2.8443;-0.5872;3.3629;1.1221
0000616274;10.7212;-15.2870;-3.1484;-0.5894;3.2213;1.0681
0000616285;11.5879;-15.4402;-3.2322;-0.6097;2.9712;0.9691
0000616293;12.0907;-15.5096;-3.2681;-0.6355;2.7980;0.9005
0000616304;12.2248;-15.6485;-3.0813;-0.6740;2.5482;0.7889
0000616312;12.6653;-15.3636;-2.9090;-0.6796;2.3828;0.7004
0000616366;10.0030;-14.3556;-2.2146;-0.1540;1.5737;0.2302
0000616374;8.7077;-14.3939;-1.9393;-0.1227;1.6647;0.1920
0000616385;5.6431;-14.7531;-1.7933;-0.1323;1.8366;0.2358
0000616393;3.8355;-14.7243;-1.8866;-0.1011;1.9408;0.3852
0000616401;2.0279;-15.0093;-2.4732;0.0261;2.0456;0.6352
0000616412;0.3112;-15.0835;-3.3543;0.2890;2.1053;0.9677
0000616420;0.6416;-14.7459;-4.3096;0.4386;2.1739;1.1598
0000616431;4.5562;-15.2894;-4.7908;0.4619;2.3878;1.3512
0000616439;7.0030;-16.5487;-4.5298;0.3668;2.4415;1.3211
0000616450;9.4810;-17.7027;-4.5610;0.1787;2.4826;1.1912
0000616458;10.9247;-18.1648;-5.0350;0.0334;2.4360;1.0829
0000616469;12.6893;-18.1026;-5.7604;-0.1836;2.2772;0.9625
0000616477;13.3189;-17.9374;-6.2177;-0.3472;2.1028;0.9040
0000616485;14.0516;-17.3388;-6.6726;-0.5232;1.8839;0.8575
0000616496;14.5879;-16.1106;-6.7086;-0.8172;1.5567;0.7857
0000616504;15.0523;-15.4163;-6.2560;-1.0344;1.3338;0.7250
0000616515;14.5903;-14.4490;-5.5713;-1.2642;1.1177;0.6584
0000616523;13.8672;-13.7475;-5.1380;-1.3853;1.0316;0.5913
0000616534;11.7914;-12.9215;-4.0677;-1.4245;0.9216;0.4339
0000616542;10.1801;-12.5624;-3.4740;-1.3524;0.8954;0.2930
0000616553;7.9416;-12.6845;-2.6456;-1.0981;0.8752;0.0770
0000616561;7.1012;-12.7659;-1.9872;-0.7873;0.8604;-0.0357
0000616615;10.3908;-15.4330;-4.1228;1.3379;0.2082;0.0729
0000616623;10.8362;-16.1417;-4.8698;1.3399;0.0889;0.1111
0000616634;11.1139;-16.7881;-5.8227;1.2009;-0.0401;0.1112
0000616642;11.0014;-17.0659;-6.4260;0.9976;-0.1260;0.0938
0000616650;10.8362;-17.3508;-6.6056;0.7085;-0.2176;0.0778
0000616661;10.3334;-17.4609;-6.7038;0.2437;-0.3695;0.0509
0000616669;10.3573;-17.0491;-6.4380;-0.0705;-0.4774;0.0296
0000616680;10.4938;-16.4817;-5.5713;-0.3838;-0.6508;-0.0345
0000616688;10.5728;-15.9741;-4.9488;-0.5153;-0.7565;-0.1005
0000616699;10.7811;-15.4163;-4.1084;-0.5444;-0.9110;-0.2237
0000616707;10.6183;-14.9949;-3.6272;-0.4848;-1.0289;-0.3273
0000616718;10.8984;-14.4514;-3.0670;-0.3096;-1.1880;-0.4467
0000616726;10.8170;-14.3676;-2.7629;-0.1368;-1.3166;-0.5219
0000616737;11.0205;-14.2670;-2.3774;0.1263;-1.4843;-0.5894
0000616745;10.7667;-14.3700;-2.3750;0.3226;-1.6156;-0.6322
0000616756;10.6734;-14.4131;-2.3966;0.5532;-1.7809;-0.6881
0000616764;10.5082;-14.7148;-2.3727;0.6885;-1.9144;-0.7298
0000616775;10.0054;-15.0428;-2.5259;0.8092;-2.0728;-0.7582
0000616783;10.1131;-15.1792;-2.8060;0.8611;-2.1929;-0.7866
0000616794;9.7923;-15.6653;-3.0143;0.8721;-2.3200;-0.8029
0000616802;9.5816;-15.7850;-3.0191;0.8636;-2.4180;-0.8211
0000616810;9.5984;-15.9502;-3.0239;0.8324;-2.5103;-0.8246
0000616860;9.5146;-16.0842;-2.6504;0.3833;-3.1565;-0.7886
0000616868;9.5313;-16.1489;-2.5307;0.3050;-3.2702;-0.7714
0000616879;9.5074;-16.0507;-2.2194;0.2431;-3.4455;-0.7710
0000616887;9.5936;-15.9861;-2.0039;0.2046;-3.5723;-0.7871
0000616898;9.6917;-15.9789;-1.8220;0.1825;-3.7506;-0.8252
0000616906;10.0389;-16.0052;-1.5969;0.1907;-3.8794;-0.8812
0000616917;9.9120;-16.1800;-1.4461;0.2000;-4.0354;-0.9759
0000616925;9.9264;-16.3213;-1.2450;0.2040;-4.1391;-1.0568
0000616936;9.9479;-16.6205;-1.1157;0.1961;-4.2908;-1.1852
0000616944;9.8474;-16.5368;-1.0032;0.1789;-4.3657;-1.2621
0000616955;9.4092;-16.7810;-0.9577;0.1673;-4.3657;-1.3603
0000616963;9.1554;-16.5224;-0.8092;0.1668;-4.3657;-1.4260
0000616971;8.7197;-16.7762;-0.7159;0.1740;-4.3657;-1.4905
0000616982;8.4731;-16.5966;-0.4788;0.1832;-4.3657;-1.5704
0000616990;7.9080;-16.8528;-0.3783;0.2124;-4.3657;-1.6201
0000617001;7.6160;-16.9270;-0.3496;0.2565;-4.3657;-1.6808
0000617009;7.3454;-16.8815;-0.2227;0.2902;-4.3657;-1.7459
0000617020;7.0246;-17.1784;-0.2538;0.3094;-4.3657;-1.7732
0000617028;6.9073;-17.1976;-0.1867;0.3190;-4.3657;-1.7866
0000617039;6.7828;-17.3963;-0.4070;0.3224;-4.3657;-1.8028
0000617047;6.4787;-17.5423;-0.4381;0.3163;-4.3657;-1.8166
0000617101;7.9655;-17.3101;-0.3424;-0.2839;-4.3657;-2.0522
0000617109;7.6327;-17.0347;-0.1365;-0.3363;-4.3657;-2.1324
0000617120;7.1084;-16.7594;0.2610;-0.3387;-4.3657;-2.2276
0000617128;6.8283;-16.6062;0.7087;-0.3067;-4.3657;-2.2861
0000617136;6.9049;-16.4506;1.0989;-0.2471;-4.3657;-2.3298
0000617147;6.0597;-16.8265;1.0127;-0.1284;-4.3657;-2.3220
0000617155;5.7150;-16.7474;1.0247;-0.0238;-4.3657;-2.2815
0000617166;5.0326;-16.8911;0.6943;0.1411;-4.3657;-2.2115
0000617174;4.4580;-16.8695;0.4884;0.2565;-4.3657;-2.1432
0000617185;3.5267;-17.0611;0.0096;0.3964;-4.3657;-2.0428
0000617193;3.0885;-17.0012;-0.3304;0.4666;-4.3657;-1.9873
0000617204;2.2505;-17.2502;-0.8260;0.5285;-4.2894;-1.8960
0000617212;1.8459;-16.9150;-1.4581;0.5175;-4.1110;-1.8103
0000617223;1.8148;-16.8241;-1.9848;0.4522;-3.9013;-1.7321
0000617231;1.4629;-17.2454;-2.4493;0.3894;-3.7437;-1.6497
0000617239;1.4988;-17.0970;-2.6887;0.2923;-3.5936;-1.5509
0000617250;2.0590;-16.9964;-3.1125;0.1751;-3.4584;-1.4170
0000617258;2.4660;-16.9270;-3.2250;0.0873;-3.3799;-1.3131
0000617269;3.1580;-16.7594;-3.0861;-0.0389;-3.2754;-1.2153
0000617277;3.9409;-16.5487;-2.8970;-0.1170;-3.2050;-1.1995
0000617288;4.8794;-16.2710;-2.5809;-0.1685;-3.1121;-1.2361
0000617296;5.5569;-16.1609;-2.2290;-0.1888;-3.0331;-1.2867
0000617350;6.7636;-15.3229;-3.6368;0.0931;-2.7965;-1.9621
0000617358;6.5050;-15.7467;-4.4197;0.0813;-2.7296;-1.9971
0000617369;5.7245;-16.5439;-5.3247;0.0883;-2.6361;-1.9416
0000617377;5.2170;-17.2167;-5.8035;0.0582;-2.6313;-1.8175
0000617388;4.2760;-17.9972;-5.8826;-0.1475;-2.6851;-1.5557
0000617396;3.3710;-18.4354;-5.4708;-0.4607;-2.7700;-1.2975
0000617407;2.9449;-18.0810;-4.8961;-0.9944;-3.0217;-1.0195
0000617415;3.7206;-17.1497;-4.2521;-1.3058;-3.1809;-0.8974
0000617423;5.0446;-15.9741;-3.4069;-1.4898;-3.2479;-0.8396
0000617434;6.3614;-14.2958;-3.1388;-1.4330;-3.2440;-0.8505
0000617442;6.8091;-13.3525;-3.2154;-1.1627;-3.1826;-0.8836
0000617453;6.4380;-12.1937;-3.3088;-0.6335;-3.0343;-0.9530
0000617461;5.8155;-11.8154;-3.3303;-0.2602;-2.8593;-0.9898
0000617472;4.7980;-12.1171;-3.4500;0.1207;-2.5535;-0.9615
0000617480;4.0127;-12.5863;-3.9241;0.3384;-2.3634;-0.8942
0000617491;2.9018;-13.7092;-4.5011;0.4871;-2.0805;-0.7609
0000617499;2.3176;-14.2958;-4.8243;0.5144;-1.8522;-0.6614
0000617510;1.7190;-15.2439;-5.5067;0.5079;-1.6338;-0.5147
0000617518;1.4030;-15.6341;-6.0741;0.4631;-1.4485;-0.3989
0000617529;1.3695;-15.7203;-6.8139;0.3600;-1.2044;-0.2679
0000617537;2.2194;-15.4905;-7.1658;0.2498;-1.0339;-0.1813
0000617591;4.6424;-14.6932;-4.8961;-0.1134;0.2691;0.1728
0000617599;4.5777;-14.6381;-4.7094;-0.0218;0.3810;0.2507
0000617607;4.4580;-14.8584;-4.7453;0.0831;0.4734;0.3472
0000617618;4.6543;-14.7938;-5.1020;0.2591;0.6010;0.4664
0000617626;5.0182;-14.4921;-5.4061;0.3726;0.7001;0.5528
0000617637;4.8890;-14.6334;-5.9041;0.4639;0.8817;0.6578
0000617645;4.6974;-14.8177;-6.0741;0.4839;1.0427;0.7175
0000617656;4.3167;-14.8369;-6.3805;0.4535;1.2895;0.7758
0000617664;3.9121;-15.0021;-6.5290;0.4032;1.4867;0.8115
0000617675;3.0430;-15.1960;-6.4500;0.2995;1.7656;0.8753
0000617683;2.7581;-15.1170;-6.2177;0.2166;1.9569;0.9367
0000617691;2.5522;-15.1601;-5.9520;0.1629;2.1308;1.0019
0000617702;2.8180;-15.1194;-5.4013;0.1479;2.3535;1.0700
0000617710;3.0622;-15.2032;-5.1356;0.1652;2.5023;1.1283
0000617721;3.6105;-15.2822;-4.6783;0.2193;2.6957;1.2061
0000617729;3.8595;-15.3947;-4.4173;0.2595;2.8224;1.2749
0000617740;4.5370;-15.6389;-4.0941;0.3043;2.9747;1.3668
0000617748;4.8147;-15.8089;-3.8211;0.2987;3.0771;1.4416
0000617759;5.2768;-16.0412;-3.5745;0.2482;3.2017;1.5723
0000617767;5.5785;-16.1202;-3.5506;0.1941;3.2947;1.6808
0000617775;5.4755;-16.3093;-3.3567;0.1491;3.3934;1.8045
0000617786;4.9344;-16.7403;-3.1915;0.1025;3.5448;1.9773
0000617794;4.2976;-17.1880;-2.5929;0.0650;3.6749;2.0957
0000617848;5.7796;-18.3372;-1.0942;-0.0687;4.3656;1.3939
0000617856;6.1100;-17.7769;-1.0032;-0.2028;4.3656;1.2721
0000617867;6.3279;-17.4106;-0.8068;-0.4437;4.3656;1.2480
0000617875;5.9687;-17.2550;-0.7709;-0.5877;4.3656;1.3272
0000617886;5.2241;-17.4011;-0.5148;-0.6522;4.3656;1.5372
0000617894;4.6376;-17.4872;-0.2729;-0.6395;4.3656;1.7217
0000617902;4.6304;-17.2335;0.0096;-0.5977;4.3656;1.8964
0000617913;4.3144;-17.0252;0.4070;-0.5323;4.3656;2.0631
0000617921;4.4269;-16.9414;0.6201;-0.5023;4.3656;2.1077
0000617932;4.3910;-16.8672;0.8835;-0.4711;4.3656;2.1337
0000617940;4.7716;-16.9270;1.2378;-0.4711;4.3656;2.1496
0000617951;5.5545;-17.1281;1.6616;-0.4984;4.3656;2.1998
0000617959;5.8466;-17.4968;1.7430;-0.5055;4.3656;2.2857
0000617970;6.8067;-17.6429;1.7693;-0.5047;4.3656;2.4495
0000617978;7.2736;-17.8775;1.9273;-0.4936;4.3656;2.5542
0000617986;7.6064;-18.0475;1.8220;-0.4908;4.3656;2.6406
0000617997;7.9057;-18.2151;1.7837;-0.4668;4.3656;2.6967
0000618005;8.5258;-18.1888;1.3934;-0.4101;4.3656;2.6793
0000618016;8.8155;-18.0044;0.7063;-0.2835;4.3656;2.6005
0000618024;8.8083;-17.6309;0.0958;-0.2249;4.3656;2.5378
0000618035;8.2289;-17.1760;-0.7661;-0.2417;4.3656;2.4618
0000618043;7.7524;-16.9126;-1.2426;-0.3419;4.3656;2.4459
0000618097;9.4595;-16.7163;-0.8140;-0.6137;4.1326;2.8141
0000618105;10.1993;-16.4625;-1.2067;-0.4021;3.9710;2.6847
0000618116;11.1187;-16.0292;-1.9010;-0.0703;3.7355;2.4352
0000618124;12.1769;-15.8233;-2.4062;0.1384;3.5706;2.2240
0000618132;12.9047;-15.4881;-3.0191;0.3287;3.3777;1.9665
0000618143;14.5137;-14.8871;-3.6464;0.4974;3.1172;1.5864
0000618151;15.3085;-14.6549;-4.2042;0.5227;3.0042;1.3579
0000618162;15.3325;-14.4729;-4.8602;0.4447;2.7763;1.1503
0000618170;14.4394;-14.6549;-5.5258;0.3195;2.6665;1.1367
0000618181;11.6789;-14.9973;-5.3415;0.1147;2.4393;1.1664
0000618189;9.2129;-15.3660;-4.7285;-0.0326;2.2394;1.2560
0000618200;7.1754;-15.0595;-5.1667;-0.1434;2.1301;1.3800
0000618208;6.2656;-14.7794;-5.4420;-0.1608;2.1150;1.4218
0000618219;6.0118;-15.0859;-5.8035;-0.1471;2.1917;1.4096
0000618227;6.5553;-15.5456;-5.8442;-0.1119;2.2633;1.3352
0000618235;7.5585;-15.5360;-6.2896;-0.0815;2.3198;1.2272
0000618246;9.5768;-15.6150;-6.2560;-0.0446;2.2924;1.0188
0000618254;11.0660;-15.4426;-6.5457;-0.0119;2.2107;0.8552
0000618265;12.1721;-14.7914;-6.6487;0.0284;2.0378;0.6491
0000618273;12.7012;-13.9941;-6.5649;0.0695;1.8755;0.5453
0000618284;13.0197;-13.1226;-6.1914;0.1055;1.6784;0.4955
0000618292;12.2248;-12.6366;-5.6599;0.1292;1.5135;0.5112
0000618346;4.2018;-16.3979;-4.3072;0.6760;0.9438;0.4169
0000618354;3.5841;-17.2071;-4.4077;0.5620;0.9715;0.4097
0000618365;3.9576;-17.5663;-4.8985;0.4077;0.9382;0.4329
0000618373;5.1260;-17.1497;-5.5091;0.2899;0.8917;0.4477
0000618381;6.7086;-16.5368;-6.0837;0.1479;0.8366;0.4361
0000618392;8.2696;-16.2183;-6.2082;-0.1134;0.7329;0.3948
0000618400;9.1937;-15.8448;-5.8227;-0.3549;0.6245;0.3661
0000618411;9.5984;-15.4785;-5.5857;-0.6738;0.4994;0.2992
0000618419;9.4715;-15.1290;-5.2050;-0.8351;0.4081;0.2306
0000618430;9.5792;-14.5951;-4.8770;-0.9284;0.2867;0.1163
0000618438;9.9479;-14.2527;-4.5777;-0.8965;0.1711;0.0167
0000618449;10.6542;-14.0659;-4.4101;-0.7719;-0.0025;-0.1400
0000618457;11.0660;-13.9821;-4.4221;-0.6452;-0.1419;-0.2615
0000618468;11.8441;-13.9869;-4.7094;-0.4754;-0.3492;-0.4381
0000618476;12.0380;-14.0204;-4.7621;-0.3560;-0.5179;-0.5445
0000618484;12.0907;-14.1354;-4.7884;-0.2493;-0.6813;-0.6081
0000618495;11.3054;-14.2670;-4.5681;-0.1183;-0.9081;-0.6940
0000618503;10.6111;-14.5927;-4.3694;-0.0064;-1.0525;-0.7526
0000618514;9.6319;-15.1074;-4.1252;0.1336;-1.2092;-0.8362
0000618522;8.9615;-15.6748;-4.0151;0.2242;-1.2913;-0.8891
0000618533;8.3462;-15.9310;-4.2114;0.3483;-1.3584;-0.9165
0000618541;7.8099;-16.5008;-4.4700;0.4282;-1.3968;-0.9144
0000618595;7.1539;-16.5080;-4.6519;-0.0874;-1.5210;-0.5494
0000618603;7.6112;-16.1800;-4.2425;-0.2017;-1.5476;-0.5312
0000618614;8.5593;-15.4809;-3.7014;-0.2575;-1.5956;-0.5341
0000618622;9.2871;-15.0428;-3.3639;-0.2346;-1.6626;-0.5578
0000618633;9.7588;-14.6190;-3.1244;-0.1123;-1.7653;-0.6058
0000618641;9.9383;-14.5687;-3.0957;-0.0045;-1.8832;-0.6352
0000618652;9.8928;-14.4873;-3.2537;0.1585;-1.9901;-0.6632
0000618660;9.9431;-14.5184;-3.4572;0.2493;-2.1067;-0.6881
0000618668;9.8114;-14.8752;-3.6320;0.3088;-2.2110;-0.7113
0000618679;9.6510;-15.0356;-3.9361;0.3291;-2.3518;-0.7670
0000618687;9.6774;-15.1768;-4.1108;0.3168;-2.4415;-0.8200
0000618698;9.4451;-15.2247;-4.2784;0.2697;-2.5458;-0.8928
0000618706;9.1889;-15.3492;-4.4029;0.2304;-2.6072;-0.9450
0000618717;9.0812;-15.5551;-4.6208;0.2036;-2.7167;-1.0042
0000618725;8.6191;-15.8760;-4.7597;0.1789;-2.7813;-1.0070
0000618736;8.8442;-16.2447;-4.8698;0.1248;-2.8883;-1.0027
0000618744;8.9232;-16.5894;-4.8914;0.0480;-2.9483;-0.9655
0000618755;8.9854;-16.8791;-4.7788;-0.0947;-3.0495;-0.9498
0000618763;9.0597;-16.9366;-4.6807;-0.2242;-3.0866;-0.9379
0000618774;9.2273;-16.5487;-4.4604;-0.3880;-3.1588;-0.9518
0000618782;9.0573;-16.2638;-4.1827;-0.4852;-3.1910;-0.9726
0000618790;8.8346;-16.1465;-3.8858;-0.5460;-3.2254;-1.0046
0000618844;6.9336;-14.9039;-3.1244;-0.1563;-3.1561;-1.0977
0000618852;6.8307;-15.0236;-3.0263;-0.1144;-3.1168;-1.0897
0000618863;6.6272;-14.8728;-3.0526;-0.0621;-3.0285;-1.0748
0000618871;6.5266;-14.9159;-3.1675;-0.0125;-2.9810;-1.0637
0000618882;5.9256;-15.0954;-3.1388;0.0534;-2.8976;-1.0285
0000618890;5.8275;-15.0571;-3.2322;0.0883;-2.8593;-1.0066
0000618901;5.8969;-14.9494;-3.5338;0.1210;-2.7920;-0.9451
0000618909;5.8012;-15.1361;-3.5291;0.1095;-2.7387;-0.8934
0000618920;5.8371;-15.2080;-3.6536;0.1005;-2.6883;-0.8497
0000618928;5.8083;-15.2223;-3.7278;0.1010;-2.6521;-0.8231
0000618939;5.9568;-15.2750;-3.8714;0.1077;-2.6117;-0.8037
0000618947;5.9592;-15.4354;-3.8355;0.1246;-2.5742;-0.8075
0000618958;5.7150;-15.6533;-3.9840;0.1252;-2.4837;-0.8199
0000618966;5.8275;-15.8640;-4.0342;0.1414;-2.4445;-0.8576
0000618974;5.8395;-15.8903;-4.0845;0.1475;-2.3742;-0.8836
0000618985;5.7509;-16.0627;-4.2282;0.1415;-2.3137;-0.9114
0000618993;5.6623;-16.2638;-4.3311;0.1207;-2.2736;-0.9173
0000619004;5.4253;-16.4865;-4.3958;0.0867;-2.2207;-0.9176
0000619012;5.5426;-16.2375;-4.4843;0.0513;-2.1711;-0.8958
0000619023;5.3750;-16.1058;-4.3910;-0.0037;-2.0956;-0.8649
0000619031;5.4061;-15.8855;-4.3934;-0.0274;-2.0511;-0.8384
0000619085;5.2648;-15.1481;-3.3974;0.0440;-1.7605;-0.6282
0000619093;5.2313;-15.3780;-3.3926;0.0845;-1.6950;-0.6153
0000619104;5.1140;-15.7754;-3.4333;0.1255;-1.6192;-0.6147
0000619112;5.3750;-15.8927;-3.4046;0.1256;-1.5567;-0.6175
0000619123;5.1188;-16.3213;-3.5099;0.1096;-1.4702;-0.6089
0000619131;5.2050;-16.1393;-3.4907;0.0667;-1.3913;-0.5918
0000619139;4.9728;-16.1944;-3.5793;0.0345;-1.3266;-0.5875
0000619150;4.9512;-15.8760;-3.6536;-0.0111;-1.2229;-0.5656
0000619158;4.8339;-15.8257;-3.8140;-0.0282;-1.1603;-0.5536
0000619169;4.3910;-15.7538;-3.8092;-0.0625;-1.0475;-0.5421
0000619177;4.4556;-15.4881;-3.7852;-0.0822;-0.9513;-0.5191
0000619188;4.3910;-15.6748;-3.7900;-0.0766;-0.8501;-0.4736
0000619196;4.4508;-15.6892;-3.7852;-0.0642;-0.7729;-0.4326
0000619207;4.5801;-15.7227;-3.6919;-0.0496;-0.6663;-0.3862
0000619215;4.3598;-16.0531;-3.7517;-0.0402;-0.5918;-0.3557
0000619226;4.5059;-15.9047;-3.9025;-0.0349;-0.4928;-0.3084
0000619234;4.4867;-16.0292;-4.0151;-0.0392;-0.4193;-0.2642
0000619245;4.3527;-16.0364;-4.1084;-0.0528;-0.3351;-0.2178
0000619253;4.6088;-15.7227;-4.0654;-0.0593;-0.2635;-0.1817
0000619264;4.4508;-15.7108;-4.1587;-0.0943;-0.1893;-0.1407
0000619272;4.4412;-15.5216;-4.1420;-0.1102;-0.1379;-0.1045
0000619280;4.3431;-15.5384;-4.2042;-0.1188;-0.0981;-0.0773
0000619334;4.8650;-15.8712;-3.8834;-0.0029;0.1400;0.0681
0000619342;5.1068;-15.6222;-3.8810;-0.0183;0.1434;0.0923
0000619353;5.4037;-15.6533;-3.7493;-0.0175;0.1436;0.1123
0000619361;5.4324;-15.6293;-3.7709;-0.0069;0.1495;0.1134
0000619372;5.6407;-15.4665;-3.8283;0.0156;0.1665;0.1166
0000619382;5.7126;-15.4570;-3.8810;0.0362;0.1740;0.1005
0000619394;5.4324;-15.4211;-4.0342;0.0356;0.1844;0.0935
0000619403;5.6862;-15.3397;-4.0438;0.0442;0.1880;0.0961
0000619417;5.4061;-15.3923;-4.1132;0.0697;0.1949;0.1007
0000619426;5.2840;-15.6653;-4.1899;0.0811;0.1992;0.1045
0000619435;5.6144;-15.5120;-4.4245;0.0933;0.2024;0.1071
0000619447;5.5905;-15.7179;-4.5226;0.0697;0.2160;0.1127
0000619456;5.4731;-15.8065;-4.6304;0.0522;0.2124;0.1086
0000619467;5.6288;-15.5503;-4.6256;-0.0005;0.2180;0.1163
0000619476;5.7485;-15.6078;-4.6184;-0.0314;0.2061;0.1178
0000619488;5.7030;-15.4761;-4.4796;-0.0640;0.2009;0.1291
0000619497;5.7509;-15.4163;-4.3742;-0.0663;0.1957;0.1362
0000619552;6.1196;-15.2008;-4.4460;0.0814;0.1071;0.0846
0000619561;6.2297;-15.2774;-4.6064;0.0733;0.0895;0.0718
0000619570;6.1579;-15.3277;-4.4963;0.0657;0.0766;0.0558
0000619582;6.1387;-15.3013;-4.4460;0.0529;0.0478;0.0286
0000619591;6.0501;-15.4905;-4.4412;0.0489;0.0260;0.0124
0000619602;6.2417;-15.2128;-4.5993;0.0410;0.0056;-0.0019
0000619611;6.0358;-15.2535;-4.5562;0.0282;-0.0015;-0.0060
0000619623;5.9328;-15.4402;-4.4365;0.0168;-0.0133;-0.0245
0000619632;5.8849;-15.4067;-4.4460;0.0117;-0.0125;-0.0409
0000619643;5.8035;-15.4019;-4.5346;0.0048;-0.0047;-0.0508
0000619652;5.5569;-15.4306;-4.5274;-0.0012;0.0005;-0.0581
0000619664;5.4037;-15.4929;-4.4245;-0.0061;0.0104;-0.0560
0000619673;5.4324;-15.4306;-4.5969;0.0017;0.0204;-0.0529
0000619682;5.4420;-15.3660;-4.4987;0.0096;0.0346;-0.0410
0000619693;5.4564;-15.5384;-4.5370;0.0125;0.0482;-0.0308
0000619702;5.3439;-15.5958;-4.5633;0.0032;0.0632;-0.0149
0000619714;5.3319;-15.4953;-4.6280;-0.0069;0.0814;0.0005
0000619723;5.4229;-15.5503;-4.5681;-0.0128;0.0875;0.0096
0000619734;5.3654;-15.4977;-4.5586;-0.0350;0.1006;0.0165
0000619743;5.3127;-15.5240;-4.3958;-0.0502;0.1166;0.0306
0000619755;5.1643;-15.6222;-4.3311;-0.0710;0.1399;0.0504
0000619764;5.3630;-15.4306;-4.3431;-0.0733;0.1556;0.0557
0000619819;5.6431;-15.3397;-4.4365;0.0477;0.2241;0.0931
0000619827;5.7341;-15.4498;-4.4388;0.0437;0.2141;0.0886
0000619835;5.8012;-15.4881;-4.4748;0.0320;0.2188;0.0937
0000619846;5.8275;-15.4067;-4.4772;0.0370;0.1998;0.0906
0000619854;5.9807;-15.4378;-4.5250;0.0322;0.1936;0.0945
0000619864;5.9855;-15.5192;-4.3335;0.0365;0.1743;0.0937
0000619872;6.0454;-15.4618;-4.5131;0.0366;0.1548;0.0821
0000619883;6.0190;-15.4115;-4.4652;0.0238;0.1347;0.0822
0000619891;6.0501;-15.3804;-4.5203;0.0189;0.1155;0.0725
