time;acc_x;acc_y;acc_z;gyro_x;gyro_y;gyro_z
0000808368;6.6942;2.0997;4.0486;-0.0256;0.0393;0.0111
0000808376;6.6080;2.1668;3.9480;-0.0433;0.0438;0.0128
0000808383;6.5553;2.1428;3.9983;-0.0472;0.0365;0.0025
0000808391;6.8402;2.2458;3.9361;-0.0560;0.0321;-0.0004
0000808399;6.6607;2.0399;3.9002;-0.0659;0.0350;-0.0024
0000808407;6.8450;2.3056;3.9025;-0.0629;0.0281;-0.0092
0000808415;6.8067;2.3631;3.9911;-0.0590;0.0262;-0.0234
0000808423;6.8235;2.1715;4.0606;-0.0594;0.0197;-0.0203
0000808431;6.7828;2.2362;3.9504;-0.0679;0.0232;-0.0163
0000808439;6.6295;2.1380;3.9887;-0.0663;0.0237;-0.0155
0000808447;6.7756;2.2673;4.0031;-0.0733;0.0276;-0.0085
0000808455;6.6535;2.1500;4.0773;-0.0801;0.0302;-0.0048
0000808463;6.8067;2.1859;4.0701;-0.0809;0.0252;-0.0044
0000808471;6.6726;2.0159;4.0845;-0.0743;0.0229;0.0032
0000808479;6.7181;1.9441;4.1731;-0.0815;0.0264;0.0097
0000808487;6.8881;1.9944;4.0917;-0.0770;0.0260;0.0087
0000808495;6.7062;1.8148;4.1515;-0.0614;0.0197;0.0027
0000808503;6.7852;1.9010;4.1539;-0.0529;0.0171;-0.0012
0000808511;6.7445;1.9106;4.1348;-0.0437;0.0265;0.0067
0000808519;6.8139;2.0087;4.0654;-0.0376;0.0230;0.0063
0000808527;6.7924;2.0590;4.1324;-0.0336;0.0288;0.0165
0000808535;6.9145;1.9920;4.0749;-0.0380;0.0329;0.0201
0000808543;6.8929;2.0279;4.0151;-0.0349;0.0336;0.0169
0000808551;6.9360;2.0327;4.1635;-0.0353;0.0368;0.0169
0000808559;6.8857;2.0231;4.1899;-0.0436;0.0453;0.0167
0000808567;6.9647;2.0375;4.2401;-0.0381;0.0454;0.0160
0000808575;6.9168;2.0375;4.1851;-0.0332;0.0532;0.0218
0000808583;7.0485;2.0925;4.1683;-0.0326;0.0626;0.0270
0000808591;7.0174;2.0423;4.0869;-0.0229;0.0678;0.0254
0000808599;6.9671;1.9585;4.2401;-0.0195;0.0706;0.0289
0000808607;6.9145;1.9417;4.1611;-0.0097;0.0703;0.0236
0000808615;6.9599;1.9800;4.1539;-0.0113;0.0739;0.0284
0000808623;6.8354;2.0016;4.1587;-0.0065;0.0803;0.0314
0000808631;7.1180;2.1452;4.1587;-0.0043;0.0777;0.0282
0000808639;6.8043;2.0111;4.1875;0.0060;0.0745;0.0253
0000808647;6.7828;1.9920;4.1180;0.0076;0.0769;0.0266
0000808655;6.6415;1.9609;4.2377;0.0072;0.0783;0.0246
0000808663;6.5457;2.0782;4.1922;0.0133;0.0707;0.0143
0000808671;6.5745;2.0207;4.1515;0.0179;0.0657;0.0129
0000808679;6.6894;2.2529;4.1946;0.0103;0.0673;0.0163
0000808687;6.6080;2.3272;4.1970;0.0040;0.0580;0.0117
0000808695;6.5362;2.1572;4.1444;-0.0027;0.0462;0.0065
0000808703;6.6702;2.2625;4.1132;-0.0128;0.0380;0.0020
0000808711;6.4835;2.1979;4.0558;-0.0173;0.0280;-0.0019
0000808719;6.6415;2.2290;4.1420;-0.0197;0.0157;-0.0071
0000808727;6.6200;2.2122;4.1659;-0.0169;0.0015;-0.0167
0000808735;6.4428;2.0806;4.1013;-0.0148;-0.0053;-0.0173
0000808743;6.5577;2.1332;4.1539;-0.0199;-0.0148;-0.0152
0000808751;6.4500;2.0614;4.1396;-0.0132;-0.0289;-0.0217
0000808759;6.7133;2.1572;4.1515;-0.0121;-0.0325;-0.0238
0000808767;6.6248;2.1596;4.1635;-0.0144;-0.0409;-0.0246
0000808775;6.6607;2.2721;4.0821;-0.0152;-0.0492;-0.0264
0000808783;6.6295;2.1261;4.1444;-0.0282;-0.0506;-0.0277
0000808791;6.6487;2.0590;4.0989;-0.0332;-0.0538;-0.0322
0000808799;6.6535;2.0351;4.2186;-0.0340;-0.0622;-0.0402
0000808807;6.5697;1.9513;4.1635;-0.0361;-0.0706;-0.0366
0000808815;6.5481;1.9154;4.1851;-0.0288;-0.0803;-0.0369
0000808823;6.6439;2.1093;4.1922;-0.0306;-0.0842;-0.0329
0000808831;6.4907;1.9585;4.2617;-0.0257;-0.0827;-0.0298
0000808839;6.6463;2.0399;4.1348;-0.0232;-0.0777;-0.0302
0000808847;6.6870;1.9968;4.1755;-0.0221;-0.0806;-0.0361
0000808855;6.6655;1.8627;4.1994;-0.0141;-0.0859;-0.0382
0000808863;6.8929;2.0255;4.2306;-0.0141;-0.0763;-0.0410
0000808871;6.7325;2.0016;4.2186;-0.0069;-0.0714;-0.0417
0000808879;6.8809;2.1763;4.2545;0.0005;-0.0666;-0.0476
0000808887;6.8426;2.0063;4.1348;0.0029;-0.0580;-0.0437
0000808895;6.7229;1.8890;4.2473;0.0044;-0.0456;-0.0372
0000808903;6.8618;2.1069;4.2401;-0.0071;-0.0326;-0.0258
0000808911;6.8211;2.1021;4.1755;-0.0085;-0.0336;-0.0304
0000808919;6.8354;2.1021;4.1252;-0.0183;-0.0229;-0.0201
0000808927;6.8019;2.1572;4.2832;-0.0208;-0.0221;-0.0217
0000808935;6.6487;2.1476;4.1492;-0.0195;-0.0200;-0.0169
0000808943;6.8187;2.2769;4.2641;-0.0270;-0.0115;-0.0127
0000808970;6.7469;2.1021;4.2018;-0.0192;-0.0119;-0.0069
0000808978;6.6583;1.9632;4.1492;-0.0189;-0.0136;-0.0063
0000808986;6.8139;2.1021;4.2234;-0.0232;-0.0120;-0.0027
0000808994;6.5864;1.8507;4.1204;-0.0203;-0.0128;-0.0025
0000809002;6.6559;1.9656;4.2042;-0.0272;-0.0052;-0.0007
0000809010;6.8235;2.0925;4.2473;-0.0220;-0.0060;-0.0023
0000809018;6.7732;2.0446;4.2066;-0.0253;-0.0036;0.0056
0000809026;6.7540;1.9417;4.1420;-0.0213;-0.0048;0.0056
0000809034;6.6631;1.9848;4.2593;-0.0180;0.0040;0.0123
0000809042;6.7732;1.9968;4.1779;-0.0127;0.0049;0.0063
0000809050;6.8642;2.1189;4.2329;-0.0057;0.0043;-0.0031
0000809058;6.9145;2.1907;4.1755;-0.0064;0.0088;-0.0028
0000809066;6.5960;2.0207;4.1180;-0.0201;0.0240;-0.0068
0000809074;6.8977;2.2817;4.1587;-0.0298;0.0285;-0.0071
0000809082;6.7804;2.1069;4.0582;-0.0249;0.0338;-0.0112
0000809090;6.8522;2.1165;4.0270;-0.0314;0.0504;-0.0073
0000809098;6.8450;1.9225;4.0630;-0.0254;0.0581;-0.0085
0000809106;6.9145;1.9824;4.1587;-0.0281;0.0759;-0.0029
0000809114;6.9767;1.9992;4.1276;-0.0200;0.0894;-0.0008
0000809122;6.9264;2.0782;4.1492;-0.0175;0.1094;0.0149
0000809130;6.8905;1.9489;4.1755;-0.0124;0.1299;0.0270
0000809138;7.1299;2.1069;4.1180;-0.0016;0.1482;0.0340
0000809146;7.0437;2.0614;4.0893;0.0071;0.1657;0.0396
0000809154;6.8977;1.9680;4.1300;0.0151;0.1841;0.0524
0000809162;7.0342;2.0566;4.0366;0.0139;0.2094;0.0582
0000809170;7.1012;1.9872;4.1180;0.0211;0.2322;0.0604
0000809178;7.0246;2.0207;4.1300;0.0317;0.2587;0.0576
0000809186;6.9815;2.0997;4.0127;0.0304;0.2911;0.0566
0000809194;6.9983;2.1835;4.0486;0.0305;0.3255;0.0600
0000809202;7.0509;2.1021;4.0582;0.0438;0.3547;0.0645
0000809210;7.0413;2.1787;4.0055;0.0620;0.3846;0.0774
0000809218;7.0725;2.1620;4.0366;0.0646;0.4159;0.1007
0000809226;7.1491;2.2362;3.9049;0.0713;0.4485;0.1163
0000809234;6.9911;2.1500;3.9361;0.0697;0.4743;0.1302
0000809242;7.0246;2.0566;3.9433;0.0735;0.4972;0.1258
0000809250;7.1826;2.1356;3.8618;0.0686;0.5319;0.1375
0000809258;7.1802;2.0470;3.8882;0.0699;0.5605;0.1358
0000809266;7.3574;2.2338;3.8978;0.0863;0.5794;0.1299
0000809274;7.1443;2.1189;3.9241;0.0918;0.6109;0.1323
0000809282;6.9456;2.0375;3.9863;0.1011;0.6326;0.1320
0000809290;6.8618;2.1308;3.9672;0.1090;0.6420;0.1274
0000809298;6.7564;2.1524;4.0079;0.1262;0.6479;0.1247
0000809306;6.4332;2.1165;4.0390;0.1403;0.6568;0.1306
0000809314;6.6176;2.3846;3.9768;0.1406;0.6594;0.1410
0000809322;6.4260;2.3918;3.8930;0.1420;0.6567;0.1528
0000809330;6.2704;2.2434;3.8379;0.1400;0.6432;0.1491
0000809338;6.3231;2.3798;3.8523;0.1268;0.6370;0.1515
0000809346;6.1268;2.1787;3.8211;0.1108;0.6375;0.1399
0000809354;6.2872;2.2314;3.9169;0.1127;0.6311;0.1263
0000809362;6.6463;2.3559;3.8618;0.1091;0.6339;0.1162
0000809370;6.5170;2.2889;3.8906;0.1116;0.6384;0.1120
0000809378;6.5362;2.2003;3.9097;0.1202;0.6484;0.1106
0000809386;6.2776;1.9585;3.9025;0.1356;0.6452;0.1098
0000809394;6.1651;1.9393;3.8882;0.1498;0.6462;0.1166
0000809402;6.4476;2.1404;3.7948;0.1527;0.6427;0.1276
0000809410;6.1483;1.9800;3.8116;0.1643;0.6475;0.1327
0000809418;6.1675;2.0016;3.7421;0.1617;0.6416;0.1448
0000809426;5.8466;1.7334;3.7948;0.1705;0.6412;0.1484
0000809434;5.9352;2.0782;3.7757;0.1752;0.6459;0.1545
0000809442;5.9113;2.0255;3.8092;0.1625;0.6520;0.1787
0000809450;5.8035;1.8842;3.7565;0.1609;0.6483;0.2054
0000809458;5.9616;1.9417;3.7014;0.1404;0.6456;0.2418
0000809466;6.1675;1.9058;3.7661;0.1379;0.6407;0.2762
0000809474;6.2177;1.8196;3.6272;0.1282;0.6307;0.3106
0000809482;6.4069;1.7478;3.6655;0.1164;0.6355;0.3423
0000809490;6.4260;1.6568;3.6895;0.1143;0.6332;0.3675
0000809498;6.8019;1.8699;3.7421;0.1299;0.6394;0.3833
0000809506;6.7277;1.6735;3.7326;0.1520;0.6431;0.4020
0000809514;6.4356;1.6903;3.7182;0.1863;0.6391;0.4070
0000809522;6.5457;1.7502;3.7302;0.2104;0.6382;0.4190
0000809530;6.3231;1.8699;3.7206;0.2353;0.6358;0.4263
0000809538;6.3662;2.0111;3.6320;0.2589;0.6285;0.4239
0000809546;6.2560;2.0614;3.6559;0.2673;0.6221;0.4254
0000809554;6.4476;2.3727;3.6440;0.2761;0.6051;0.4171
0000809562;6.3255;2.4014;3.4931;0.2860;0.5935;0.4056
0000809647;6.2632;2.7533;3.4716;0.0863;0.5441;0.2229
0000809655;6.3686;2.4660;3.5219;0.0556;0.5470;0.2061
0000809663;6.3973;2.3296;3.5434;0.0362;0.5450;0.1985
0000809671;6.3446;2.0901;3.5147;0.0205;0.5549;0.1920
0000809679;6.5266;2.0853;3.5099;0.0229;0.5608;0.1920
0000809687;6.4835;2.0063;3.5482;0.0340;0.5660;0.1897
0000809695;6.2896;1.9632;3.5937;0.0622;0.5644;0.1953
0000809703;6.3207;2.1811;3.6224;0.0905;0.5649;0.2108
0000809711;6.2752;2.2027;3.4764;0.1115;0.5640;0.2296
0000809719;6.3063;2.4780;3.5147;0.1308;0.5592;0.2487
0000809727;6.3087;2.6145;3.5147;0.1355;0.5577;0.2701
0000809735;6.2800;2.7031;3.4285;0.1306;0.5462;0.2790
0000809743;6.3877;2.8850;3.2801;0.1200;0.5309;0.2771
0000809751;6.3303;2.7845;3.3639;0.0946;0.5276;0.2795
0000809759;6.4189;2.7318;3.3208;0.0653;0.5217;0.2825
0000809767;6.2848;2.6695;3.2801;0.0489;0.5117;0.2787
0000809775;6.3614;2.5402;3.4093;0.0389;0.4940;0.2755
0000809783;6.3375;2.3439;3.3399;0.0420;0.4843;0.2695
0000809791;6.4141;2.2529;3.3471;0.0506;0.4682;0.2741
0000809799;6.4284;2.3487;3.3758;0.0655;0.4518;0.2647
0000809807;6.3542;2.2817;3.4836;0.0779;0.4241;0.2555
0000809815;6.1794;2.2170;3.4740;0.0913;0.3949;0.2425
0000809823;6.2465;2.5043;3.3543;0.0922;0.3671;0.2385
0000809831;6.1507;2.5546;3.2753;0.0795;0.3423;0.2254
0000809839;5.9927;2.4421;3.3208;0.0662;0.3127;0.2062
0000809847;6.0286;2.4517;3.3495;0.0454;0.2888;0.1887
0000809855;6.0454;2.5115;3.4668;0.0272;0.2701;0.1783
0000809863;6.1914;2.4828;3.5817;0.0143;0.2573;0.1661
0000809871;5.9568;2.3822;3.5195;0.0060;0.2365;0.1536
0000809879;6.3997;2.4732;3.5027;-0.0003;0.2252;0.1334
0000809887;6.2297;2.5833;3.4931;-0.0169;0.2157;0.1227
0000809895;6.4643;2.6025;3.6033;-0.0312;0.2045;0.0989
0000809903;6.2465;2.6504;3.5243;-0.0473;0.1998;0.0851
0000809911;6.5218;2.7342;3.5721;-0.0612;0.1887;0.0618
0000809919;6.4332;2.5402;3.6655;-0.0632;0.1847;0.0449
0000809927;6.3614;2.3631;3.5602;-0.0626;0.1856;0.0332
0000809935;6.3446;2.2769;3.6272;-0.0617;0.1895;0.0262
0000809943;6.4883;2.1165;3.5075;-0.0468;0.1839;0.0177
0000809951;6.6559;2.2218;3.5458;-0.0369;0.1932;0.0160
0000809959;6.6200;2.1356;3.4955;-0.0143;0.1941;0.0056
0000809967;6.7540;2.1356;3.5099;0.0032;0.1917;-0.0016
0000809975;6.5218;2.0375;3.3255;0.0276;0.1896;0.0008
0000809983;6.6918;2.4229;3.2561;0.0314;0.1896;0.0108
0000809991;6.3973;2.4876;3.2346;0.0338;0.1796;0.0157
0000809999;6.6008;2.6025;3.1412;0.0373;0.1681;0.0230
0000810007;6.3997;2.6456;3.1915;0.0321;0.1592;0.0274
0000810015;6.2848;2.5331;3.1771;0.0276;0.1396;0.0249
0000810023;6.3710;2.4684;3.2394;0.0196;0.1306;0.0284
0000810031;6.3159;2.6121;3.2082;0.0016;0.1228;0.0364
0000810039;6.3614;2.5522;3.1364;-0.0113;0.1102;0.0356
0000810047;6.4332;2.5690;3.1795;-0.0148;0.1051;0.0337
0000810055;6.2058;2.3511;3.1029;-0.0228;0.0985;0.0313
0000810063;6.6224;2.5355;3.2585;-0.0288;0.0997;0.0269
0000810071;6.4189;2.4229;3.2106;-0.0253;0.0909;0.0230
0000810079;6.4835;2.2003;3.1292;-0.0203;0.0893;0.0270
0000810087;6.4835;2.3846;3.1532;-0.0147;0.0875;0.0204
0000810095;6.4428;2.2936;3.2370;0.0017;0.0791;0.0088
0000810103;6.6248;2.5498;3.2489;0.0068;0.0833;0.0104
0000810111;6.5146;2.4205;3.3064;0.0161;0.0835;0.0091
0000810119;6.4548;2.4229;3.3351;0.0175;0.0773;0.0053
0000810127;6.5721;2.6552;3.1412;0.0232;0.0608;-0.0049
0000810135;6.2728;2.3942;3.3016;0.0175;0.0558;0.0048
0000810143;6.3949;2.4924;3.3040;0.0135;0.0457;0.0053
0000810151;6.4308;2.3846;3.2585;0.0100;0.0316;0.0079
0000810159;6.4260;2.4828;3.3136;0.0107;0.0153;0.0105
0000810167;6.3518;2.3798;3.3399;0.0072;0.0080;0.0197
0000810175;6.4931;2.4469;3.3351;0.0148;-0.0016;0.0171
0000810183;6.4069;2.3415;3.3591;0.0261;-0.0089;0.0131
0000810191;6.5050;2.5067;3.3136;0.0278;-0.0083;0.0177
0000810199;6.3997;2.4110;3.3495;0.0421;-0.0196;0.0113
0000810207;6.3997;2.3439;3.2848;0.0450;-0.0280;0.0156
0000810215;6.3662;2.3870;3.2058;0.0441;-0.0312;0.0200
0000810223;6.3135;2.3535;3.2417;0.0412;-0.0324;0.0300
0000810231;6.5673;2.3367;3.2848;0.0512;-0.0426;0.0320
0000810239;6.5338;2.4301;3.2729;0.0585;-0.0448;0.0414
0000810323;6.5553;2.6073;3.0670;0.1719;-0.0695;0.1074
0000810331;6.5505;2.5546;3.1220;0.1647;-0.0731;0.1082
0000810339;6.4907;2.5019;3.1053;0.1603;-0.0790;0.1104
0000810347;6.6798;2.6336;3.1077;0.1452;-0.0802;0.1082
0000810355;6.5505;2.7126;3.0335;0.1395;-0.0905;0.0985
0000810363;6.6750;2.7869;3.0454;0.1200;-0.0821;0.0945
0000810371;6.5625;2.8323;2.9640;0.0963;-0.0742;0.0850
0000810379;6.7995;3.0813;2.9497;0.0729;-0.0638;0.0785
0000810387;6.6990;3.0143;2.9449;0.0481;-0.0548;0.0695
0000810395;6.7756;2.9401;3.0646;0.0246;-0.0400;0.0561
0000810403;6.8977;3.0263;2.9928;0.0084;-0.0273;0.0462
0000810411;6.9767;3.0981;3.1029;-0.0144;-0.0023;0.0436
0000810419;6.8690;2.8371;3.1364;-0.0209;0.0167;0.0398
0000810427;7.0892;2.8491;3.0981;-0.0252;0.0265;0.0301
0000810435;6.9121;2.7270;3.0454;-0.0370;0.0309;0.0181
0000810443;6.8402;2.4828;3.2489;-0.0401;0.0438;0.0175
0000810451;6.5912;2.3727;3.2274;-0.0377;0.0589;0.0124
0000810459;6.4428;2.3176;3.1915;-0.0312;0.0679;0.0065
0000810467;6.3997;2.5067;3.1149;-0.0230;0.0758;-0.0033
0000810475;6.3327;2.3056;2.9736;-0.0297;0.0831;-0.0107
0000810483;6.5266;2.2122;3.1508;-0.0386;0.0797;-0.0184
0000810491;6.5242;2.2721;3.1723;-0.0400;0.0857;-0.0184
0000810499;6.5625;2.2003;3.2801;-0.0249;0.0942;-0.0137
0000810507;6.5721;2.0063;3.2178;-0.0077;0.0973;-0.0119
0000810515;6.5721;2.0853;3.0598;0.0045;0.0989;-0.0125
0000810523;6.6128;2.1548;3.0191;0.0007;0.1100;-0.0053
0000810531;6.6272;2.1644;3.0454;0.0060;0.1092;-0.0092
0000810539;6.6200;2.2362;3.0813;0.0096;0.1147;0.0049
0000810547;6.8546;2.3822;3.1364;0.0125;0.1176;0.0135
0000810555;6.6870;2.6576;3.1651;0.0229;0.1083;0.0136
0000810563;6.6798;2.6049;3.2346;0.0221;0.1011;0.0253
0000810571;6.6032;2.7964;3.2106;0.0051;0.0979;0.0373
0000810579;6.6200;2.8156;3.2298;-0.0153;0.0906;0.0468
0000810587;6.7373;3.0909;3.1556;-0.0389;0.0775;0.0548
0000810595;6.7373;3.0478;3.3495;-0.0719;0.0779;0.0714
0000810603;6.9264;3.0550;3.4069;-0.1014;0.0790;0.0799
0000810611;6.7325;2.8898;3.4788;-0.1206;0.0811;0.0906
0000810619;6.9312;3.1915;3.5314;-0.1364;0.0835;0.1031
0000810627;7.0126;2.9760;3.6990;-0.1597;0.0755;0.1158
0000810635;7.1611;2.9712;3.6679;-0.1789;0.0670;0.1283
0000810643;7.0629;2.9377;3.8547;-0.2068;0.0803;0.1478
0000810651;7.3406;2.9544;4.0558;-0.2269;0.0886;0.1665
0000810659;7.4795;2.8156;4.1731;-0.2403;0.1041;0.1869
0000810667;7.4986;2.4708;4.2880;-0.2694;0.0970;0.2112
0000810675;7.8434;2.4565;4.1252;-0.2966;0.0762;0.2232
0000810683;8.2744;2.1883;4.1084;-0.3171;0.0440;0.2145
0000810691;8.3318;1.8651;3.9121;-0.3425;0.0031;0.1944
0000810699;8.2839;1.5395;3.7637;-0.3481;-0.0512;0.1419
0000810707;8.3725;1.2019;3.6703;-0.3351;-0.1095;0.0779
0000810715;8.2361;0.8380;3.2561;-0.3076;-0.1507;0.0028
0000810723;8.0373;0.2538;2.8850;-0.2643;-0.1868;-0.1057
0000810731;7.8482;-0.0072;2.4469;-0.2078;-0.2001;-0.2157
0000810739;7.9535;-0.0168;1.9561;-0.1451;-0.2037;-0.3309
0000810747;7.4460;-0.1724;1.6664;-0.0613;-0.2114;-0.4481
0000810755;7.4460;0.1125;1.4461;0.0334;-0.2020;-0.5517
0000810763;6.9719;0.2993;1.1827;0.1316;-0.1793;-0.6468
0000810771;7.0390;1.0534;1.0175;0.2527;-0.1404;-0.7254
0000810779;7.1587;1.9609;1.0846;0.3754;-0.1030;-0.7859
0000810787;6.9049;2.6336;1.5706;0.4784;-0.0653;-0.8190
0000810795;6.6056;3.6799;2.0279;0.5601;-0.0378;-0.8224
0000810803;6.1339;4.3862;2.3487;0.5970;-0.0197;-0.7965
0000810811;5.9448;5.3103;2.2003;0.5632;-0.0127;-0.7260
0000810819;5.9735;5.9640;1.8028;0.4394;0.0111;-0.6206
0000810827;6.2225;6.2273;1.3216;0.2346;0.0348;-0.5127
0000810835;6.6535;6.1818;1.0989;-0.0278;0.0454;-0.4139
0000810843;7.3310;5.7772;1.1899;-0.2834;0.0678;-0.3247
0000810851;7.7237;4.9512;1.7813;-0.4568;0.1170;-0.2309
0000810859;8.4635;4.1683;2.3822;-0.5416;0.1824;-0.1599
0000810867;8.4132;3.2513;2.5570;-0.5530;0.2539;-0.1030
0000810875;8.7412;2.4708;2.5929;-0.5303;0.3297;-0.0481
0000810883;8.5617;1.5921;2.8132;-0.4903;0.4086;-0.0065
0000810891;8.2552;0.9577;2.7054;-0.4418;0.4804;0.0341
0000810899;8.2791;0.7135;2.8347;-0.3750;0.5445;0.0678
0000810907;8.2217;0.2682;2.9425;-0.2946;0.6171;0.1013
0000810993;6.9983;3.8164;4.3024;-0.0541;0.3477;0.2870
0000811001;7.3957;3.8068;4.3646;-0.1330;0.2594;0.3132
0000811009;7.6782;3.4979;4.7118;-0.1978;0.1809;0.3347
0000811017;8.1618;3.4022;4.9105;-0.2429;0.1227;0.3559
0000811025;8.6503;3.1220;5.0159;-0.2807;0.0806;0.3998
0000811033;9.1219;2.9712;4.8674;-0.3131;0.0345;0.4486
0000811041;9.5648;2.6911;4.6088;-0.3343;-0.0156;0.5009
0000811049;10.0317;2.6911;4.5250;-0.3599;-0.0524;0.5516
0000811057;10.5034;2.5043;4.8459;-0.3728;-0.1078;0.5833
0000811065;10.8816;2.3607;5.2553;-0.3805;-0.1450;0.5961
0000811073;11.3294;2.1739;5.7437;-0.3740;-0.1701;0.5907
0000811081;11.1043;1.7478;5.9759;-0.3661;-0.1599;0.5861
0000811089;10.5752;1.4844;6.0525;-0.3572;-0.1370;0.6158
0000811097;9.7612;0.9936;6.0956;-0.3556;-0.1304;0.6805
0000811105;9.1482;0.1891;5.8419;-0.3532;-0.1347;0.7813
0000811113;9.0692;-0.2059;5.3822;-0.3693;-0.1358;0.8899
0000811121;8.7843;-1.0726;4.7333;-0.4086;-0.1296;1.0188
0000811129;8.8825;-1.9824;4.1061;-0.4406;-0.1183;1.1423
0000811137;9.2488;-2.5786;3.5147;-0.4643;-0.1186;1.2313
0000811145;9.5385;-2.9544;2.9856;-0.4808;-0.0843;1.3026
0000811153;9.4140;-3.3615;2.4660;-0.4938;-0.0245;1.3495
0000811161;9.1698;-3.6296;1.9776;-0.5458;0.0532;1.3783
0000811169;9.2440;-3.6775;1.4461;-0.6480;0.1605;1.3749
0000811177;8.6790;-4.3024;1.0558;-0.7650;0.2926;1.3290
0000811185;8.5928;-4.1755;0.5842;-0.8635;0.4189;1.2501
0000811193;8.0445;-4.5394;0.0694;-0.9230;0.5974;1.1575
0000811201;8.1068;-4.4532;0.1197;-0.9625;0.7701;1.0473
0000811209;7.7716;-4.9512;0.6704;-1.0881;0.8262;0.9346
0000811217;7.6112;-5.0398;0.7829;-1.2913;0.8327;0.8375
0000811225;7.3263;-5.1547;1.0008;-1.4314;0.8829;0.7352
0000811233;7.0725;-5.3247;1.1157;-1.4537;0.9907;0.6075
0000811241;6.8570;-5.2409;0.9625;-1.3682;1.1598;0.4732
0000811249;6.7804;-5.3079;0.7685;-1.1948;1.3532;0.3393
0000811257;6.3734;-5.4708;0.4812;-0.9930;1.5528;0.2173
0000811265;6.0813;-5.6312;0.2274;-0.8082;1.7287;0.1419
0000811273;5.8538;-5.6862;0.2825;-0.6544;1.8622;0.1218
0000811281;5.5282;-5.6144;0.4525;-0.5181;1.9505;0.1430
0000811289;5.3965;-5.3439;0.7087;-0.3948;1.9336;0.1966
0000811297;4.8315;-5.0230;1.2258;-0.2930;1.7146;0.2523
0000811305;4.5346;-4.1970;2.1907;-0.2376;1.3193;0.2886
0000811313;3.8211;-3.3471;3.3926;-0.2113;0.8463;0.3023
0000811321;3.6081;-2.7485;3.6344;-0.1571;0.5059;0.3146
0000811329;3.7182;-2.0877;3.2944;-0.0123;0.3561;0.3091
0000811337;3.6512;-1.8292;2.3128;0.1712;0.3837;0.2393
0000811345;3.8259;-1.7166;1.4269;0.2399;0.5480;0.1483
0000811353;3.3519;-1.8196;0.6129;0.0727;0.7670;0.1150
0000811361;3.3567;-1.8603;0.3903;-0.3495;0.9844;0.1536
0000811369;3.4740;-2.0710;0.5626;-0.7669;1.1374;0.2938
0000811377;4.6807;-2.0542;1.6712;-0.9657;1.2364;0.5107
0000811385;5.1044;-2.5283;2.2505;-1.0296;1.3211;0.7572
0000811393;5.3391;-2.6408;3.0933;-1.0520;1.4153;0.9679
0000811401;5.8059;-2.3631;4.0223;-0.9984;1.4893;1.1084
0000811409;6.1076;-2.0925;4.7333;-0.8271;1.4959;1.2008
0000811417;6.3518;-1.5443;5.0135;-0.4863;1.4982;1.2209
0000811425;6.8019;-0.7302;5.2744;-0.0250;1.4607;1.1538
0000811433;7.3310;-0.0790;5.0422;0.3501;1.3622;0.9631
0000811441;7.8338;1.0367;4.1180;0.5696;1.2726;0.6456
0000811449;8.5593;2.1189;3.1196;0.6202;1.2351;0.1460
0000811457;8.9591;2.8515;2.7797;0.6133;1.1891;-0.5449
0000811465;8.6407;3.0335;3.0335;0.5546;1.1378;-1.3137
0000811473;8.2145;2.7342;4.5322;0.4442;1.1229;-1.9913
0000811481;7.6112;2.0231;6.4524;0.3123;1.1430;-2.4004
0000811489;7.5393;1.9656;8.3390;0.3792;1.1973;-2.5627
0000811497;7.8266;2.2410;8.8585;0.7608;1.3130;-2.4837
0000811505;8.0589;3.2250;5.6240;1.2882;1.5783;-2.2691
0000811513;8.4635;4.9416;2.0590;1.6804;1.8475;-2.1333
0000811521;8.8442;5.9783;1.0918;1.5976;1.7481;-2.1084
0000811529;8.0996;6.7804;2.6097;1.1338;1.4843;-2.1142
0000811537;6.2656;6.6918;6.1316;0.8864;1.3351;-2.2292
0000811545;4.8914;5.5522;8.7269;1.2221;1.1906;-2.5526
0000811553;3.8283;3.6248;8.2983;1.6354;1.0754;-2.8902
0000811561;3.3902;2.1093;7.4316;1.9285;0.9683;-3.1560
0000811569;3.3782;1.2450;5.9664;2.2251;0.8308;-3.3216
0000811577;4.6926;1.5993;4.1683;2.4794;0.7954;-3.3350
0000811662;6.0549;8.3510;2.8802;1.4681;2.1386;-3.1188
0000811670;2.4636;10.5967;3.2920;1.5140;1.8628;-3.0154
0000811678;-0.6512;13.1298;3.5817;1.3772;1.5234;-2.8039
0000811686;-3.0430;13.6350;1.9513;0.8759;1.2729;-2.5305
0000811694;-4.2569;12.1051;-0.3663;0.0738;1.2855;-2.1056
0000811702;-4.4580;8.6598;-0.4932;-0.5850;1.5836;-1.5199
0000811710;-1.6089;4.4412;1.9585;-1.1716;1.7766;-1.2193
0000811718;-0.1053;2.3080;5.8419;-1.1839;1.6461;-1.6160
0000811726;-1.3072;1.8340;6.2728;-1.0698;1.5719;-2.5979
0000811734;-5.3558;3.7637;6.0741;-1.1638;1.7066;-3.9904
0000811742;-13.8864;5.7054;2.5857;-1.2132;2.4054;-4.3657
0000811750;-26.8198;6.7804;-2.8371;-1.1940;2.8492;-4.3657
0000811758;-37.6345;7.9344;-6.2393;-1.4953;2.8623;-4.3657
0000811766;-41.8315;6.7253;-5.0829;-1.9889;2.5215;-4.3657
0000811774;-35.2163;2.4924;0.8954;-2.1108;1.9537;-4.3657
0000811782;-25.0003;-2.3248;8.8945;-1.7809;1.1855;-4.1988
0000811790;-16.1656;-6.2010;9.7564;-1.1574;0.4970;-3.2150
0000811798;-9.1889;-7.0126;5.5665;-0.5602;0.0264;-2.1528
0000811806;-5.1404;-6.7732;2.2577;0.0076;-0.2846;-1.1175
0000811814;-1.8004;-6.3398;0.5507;0.5096;-0.4578;-0.2966
0000811822;1.2139;-5.9927;0.1389;0.9229;-0.6133;0.2368
0000811830;3.5171;-5.9879;-0.1460;1.2822;-0.6828;0.5644
0000811838;5.4013;-6.8522;-0.7566;1.5123;-0.6314;0.5360
0000811846;6.8929;-7.5944;-1.0918;1.5599;-0.5862;0.2471
0000811854;7.3119;-7.4962;-1.1875;1.4707;-0.6324;-0.1033
0000811862;7.0461;-6.9384;-1.5730;1.3342;-0.5894;-0.2976
0000811870;5.9352;-6.5577;-2.1045;1.2505;-0.2847;-0.3665
0000811878;6.9671;-7.0174;-2.1907;1.0202;-0.2357;-0.4639
0000811886;6.8187;-6.9336;-2.2553;0.7337;-0.2554;-0.6135
0000811894;6.5745;-6.5362;-2.5235;0.4720;-0.2539;-0.7449
0000811902;6.4524;-7.0342;-1.7789;0.2526;-0.2655;-0.8948
0000811910;7.0198;-7.1706;-1.8124;0.1619;-0.2988;-1.1335
0000811918;7.5106;-7.0557;-1.9800;0.1260;-0.3881;-1.5795
0000811926;6.7038;-6.8426;-2.2817;0.1877;-0.3680;-2.1017
0000811934;6.2034;-6.6032;-2.7964;0.2140;-0.0636;-2.5972
0000811942;4.1276;-6.5027;-3.5530;0.2178;0.5173;-3.0226
0000811950;0.6608;-6.2130;-3.7206;0.3132;1.0297;-3.5837
0000811958;-12.1865;-5.8466;-1.9872;0.5247;1.6800;-3.9436
0000811966;-34.3975;-4.9991;4.6519;0.8848;2.3272;-3.6471
0000811974;-47.5249;-7.0246;7.3191;1.1155;2.7190;-3.5309
0000811982;-39.9712;-9.3613;4.7453;0.9595;2.9788;-3.7526
0000811990;-27.1407;-7.9847;0.0814;0.4832;2.6329;-3.8676
0000811998;-12.7731;-6.8953;-3.7852;0.0565;2.4371;-3.6290
0000812006;-4.7142;-6.2680;-5.4085;-0.3691;2.1543;-3.3987
0000812014;-0.4405;-5.6934;-4.7333;-0.4886;1.8503;-3.1517
0000812022;1.8459;-5.8179;-3.3112;-0.3726;1.4635;-2.9142
0000812030;3.2609;-5.8658;-2.1189;-0.1167;1.1085;-2.7390
0000812038;3.9935;-5.9472;-1.1396;0.2022;0.9144;-2.5179
0000812046;4.2306;-6.1124;-0.7638;0.5193;0.8903;-2.3196
0000812054;4.2689;-6.3375;-0.6752;0.8251;0.9381;-2.1117
0000812062;4.1611;-6.6056;-0.9266;1.0629;0.9458;-1.9525
0000812070;3.2561;-6.8546;-1.0008;1.2444;0.8901;-1.8598
0000812078;1.7214;-7.0773;-1.0295;1.3929;0.8158;-1.7477
0000812086;-0.0982;-7.4148;-1.2761;1.4794;0.7164;-1.6537
0000812094;-1.7526;-7.6303;-1.5682;1.4615;0.5833;-1.4671
0000812102;-4.2713;-8.1977;-1.4413;1.4004;0.5025;-1.2873
0000812110;-6.6439;-8.5880;-1.2210;1.3178;0.4403;-1.0737
0000812118;-8.9352;-8.9304;-1.3192;1.2117;0.3691;-0.8624
0000812126;-10.9726;-9.0573;-1.3336;1.1186;0.3147;-0.5933
0000812134;-12.5624;-8.6790;-1.1923;1.0666;0.2490;-0.2326
0000812142;-12.3325;-8.1379;-1.5107;1.0824;0.1260;0.1924
0000812150;-10.8218;-7.7357;-1.5538;1.0949;-0.0553;0.6363
0000812158;-8.1690;-7.3263;-1.5490;1.1042;-0.2679;1.0653
0000812166;-5.8035;-7.0126;-1.7645;1.0621;-0.4778;1.3757
0000812174;-4.5322;-6.6631;-2.6552;0.8948;-0.6799;1.6060
0000812182;-3.0981;-7.0078;-2.3583;0.7125;-0.8171;1.7749
0000812190;-1.5179;-6.6152;-2.6432;0.4441;-0.9341;1.7924
0000812198;-1.6305;-6.3782;-2.6959;0.1824;-1.0128;1.7328
0000812206;-1.7621;-6.6224;-1.9632;-0.0207;-1.0613;1.6253
0000812214;-1.5802;-6.5841;-1.6281;-0.2066;-1.0367;1.4564
0000812222;-1.7741;-6.7540;-1.9704;-0.3945;-0.9344;1.2261
0000812307;-3.0933;-6.8666;-4.0055;-1.4923;0.6103;0.4431
0000812315;-3.6464;-6.4500;-4.8626;-2.0326;0.8665;0.6127
0000812323;-4.2306;-6.1028;-5.1811;-2.5483;1.1110;0.9105
0000812331;-3.8595;-5.8179;-4.4221;-2.8869;1.2115;1.2283
0000812339;-2.6815;-5.7317;-4.1132;-2.9836;1.1973;1.4666
0000812347;-0.1245;-8.2672;-0.9625;-2.8992;1.0054;1.4073
0000812355;0.1891;-12.4858;4.6855;-2.4642;0.6873;1.0391
0000812363;-0.7470;-15.9478;8.6957;-1.5579;0.4958;0.5512
0000812371;-2.7054;-15.4665;4.8123;-0.7182;0.8336;0.1841
0000812379;-4.5035;-12.5480;0.2682;-0.1037;1.3512;0.0424
0000812387;-5.8251;-10.4746;-2.3846;0.3749;1.5196;0.0196
0000812395;-6.4476;-8.9184;-2.6288;0.7653;1.1177;-0.0241
0000812403;-6.5003;-7.8626;-3.5458;1.1763;0.6820;0.0069
0000812411;-5.8754;-6.9695;-5.0398;1.4809;0.4804;0.1163
0000812419;-4.7836;-6.9025;-6.2130;1.5756;0.2810;0.1920
0000812427;-4.0965;-6.6798;-6.7181;1.4658;0.0061;0.2224
0000812435;-3.9768;-6.4236;-6.0214;1.3126;-0.2298;0.3152
0000812443;-4.5849;-5.5210;-5.7772;1.2265;-0.3784;0.5103
0000812451;-4.2760;-5.0542;-5.2409;1.1474;-0.5104;0.6881
0000812459;-4.0270;-5.0973;-4.5131;1.0868;-0.5935;0.7472
0000812467;-4.3335;-5.3463;-2.1404;1.0593;-0.5870;0.7619
0000812475;-4.1324;-5.3726;-1.6759;0.9856;-0.5380;0.7729
0000812483;-3.9935;-5.0063;-1.1803;0.8545;-0.4718;0.8068
0000812491;-3.6105;-4.8435;-1.1756;0.6675;-0.3804;0.8552
0000812499;-3.3327;-4.3622;-1.4293;0.4632;-0.2990;0.8977
0000812507;-2.9066;-4.3167;-1.3886;0.2605;-0.2118;0.8992
0000812515;-2.8491;-4.0797;-1.2426;0.1061;-0.1615;0.8656
0000812523;-2.5235;-3.4740;-1.6089;-0.0069;-0.1422;0.7893
0000812531;-2.5594;-3.5889;-1.4748;-0.0526;-0.1200;0.6969
0000812539;-3.0215;-3.3662;-1.3408;-0.0516;-0.1331;0.6170
0000812547;-3.1843;-3.5051;-1.5634;-0.0184;-0.1512;0.5089
0000812555;-3.2944;-3.2729;-1.5586;0.0159;-0.1604;0.4021
0000812563;-3.5434;-3.3040;-1.6065;0.0509;-0.1787;0.2978
0000812571;-3.6895;-3.5099;-1.6137;0.0753;-0.2076;0.2221
0000812579;-3.8930;-3.9313;-1.6065;0.1053;-0.2414;0.1556
0000812587;-3.8738;-4.2090;-1.7406;0.1656;-0.2955;0.0861
0000812595;-3.6152;-4.4269;-1.8196;0.2499;-0.3505;0.0213
0000812603;-3.6248;-4.5370;-1.6879;0.3215;-0.4084;-0.0191
0000812611;-3.7709;-4.8890;-1.6783;0.4022;-0.4477;-0.0482
0000812619;-4.0223;-5.0613;-1.6041;0.4871;-0.4907;-0.0655
0000812627;-3.7781;-5.1188;-1.3623;0.5732;-0.5237;-0.0662
0000812635;-3.5698;-5.0661;-1.2210;0.6406;-0.5243;-0.0604
0000812643;-3.1292;-4.8626;-1.1636;0.7053;-0.5181;-0.0674
0000812651;-3.2944;-4.8770;-1.2617;0.7546;-0.5112;-0.0673
0000812659;-3.0837;-4.6495;-1.0151;0.7670;-0.4760;-0.0556
0000812667;-2.8539;-4.3527;-1.1827;0.7454;-0.4251;-0.0454
0000812675;-2.9042;-4.1228;-1.3647;0.6832;-0.3796;-0.0389
0000812683;-2.8730;-3.7302;-1.9800;0.5553;-0.3279;-0.0264
0000812691;-2.6839;-3.3327;-2.1380;0.3861;-0.2822;-0.0305
0000812699;-2.9951;-3.2465;-1.8387;0.2129;-0.2542;-0.0504
0000812707;-3.2633;-3.2801;-1.4078;0.0641;-0.2326;-0.1029
0000812715;-3.6799;-3.5123;-0.9002;-0.0352;-0.2112;-0.1514
0000812723;-3.3375;-3.7469;-1.0894;-0.0841;-0.1647;-0.2137
0000812731;-3.4907;-4.0366;-1.0750;-0.1128;-0.1327;-0.2653
0000812739;-3.4046;-4.3503;-1.0630;-0.1438;-0.1128;-0.2932
0000812747;-3.5721;-4.9081;-1.2761;-0.1703;-0.1108;-0.2930
0000812755;-3.6200;-5.0589;-1.5203;-0.1869;-0.1203;-0.2832
0000812763;-3.6488;-5.0805;-1.4916;-0.1940;-0.1483;-0.2709
0000812771;-3.7014;-5.3750;-1.5538;-0.1705;-0.1865;-0.2535
0000812779;-3.7014;-5.6790;-1.5586;-0.1383;-0.2237;-0.2285
0000812787;-3.7757;-5.6072;-1.6161;-0.1116;-0.2731;-0.2022
0000812795;-3.7469;-5.5330;-1.5802;-0.0763;-0.3206;-0.1788
0000812803;-3.8834;-5.7413;-1.3958;-0.0437;-0.3592;-0.1506
0000812811;-3.7900;-5.5665;-1.3551;-0.0205;-0.3854;-0.1214
0000812819;-3.5243;-5.5402;-1.1157;0.0155;-0.3988;-0.0959
0000812827;-3.5650;-5.7030;-0.8547;0.0462;-0.4065;-0.0693
0000812835;-3.6033;-5.3965;-0.8164;0.0597;-0.4040;-0.0448
0000812843;-3.7038;-5.5067;-0.6847;0.0775;-0.3934;-0.0172
0000812851;-3.5243;-5.3989;-0.6728;0.0855;-0.3884;-0.0043
0000812941;-3.5913;-5.0350;-0.4693;0.0725;-0.2932;-0.0859
0000812949;-3.5171;-5.0039;-0.3998;0.0562;-0.2706;-0.0851
0000812957;-3.3351;-4.9680;-0.4238;0.0449;-0.2551;-0.0855
0000812965;-3.4261;-5.1140;-0.2514;0.0404;-0.2285;-0.0666
0000812973;-3.3782;-5.0757;-0.3184;0.0229;-0.2097;-0.0542
0000812981;-3.5410;-5.2289;-0.2586;0.0188;-0.1924;-0.0506
0000812989;-3.5554;-5.1427;-0.2801;0.0105;-0.1709;-0.0314
0000812997;-3.5626;-5.2241;-0.5555;-0.0048;-0.1596;-0.0222
0000813005;-3.4764;-5.2218;-0.3998;-0.0021;-0.1475;-0.0140
0000813013;-3.4500;-5.0613;-0.2753;0.0023;-0.1334;-0.0151
0000813021;-3.4405;-5.1140;-0.2610;0.0140;-0.1175;-0.0144
0000813029;-3.5171;-4.9967;-0.2131;0.0175;-0.0997;-0.0108
0000813037;-3.5099;-4.9656;-0.2179;0.0100;-0.0731;-0.0072
0000813045;-3.4884;-4.9440;-0.2011;0.0099;-0.0586;-0.0115
0000813053;-3.6344;-5.0015;-0.2658;0.0099;-0.0444;-0.0191
0000813061;-3.4333;-4.8291;-0.2753;0.0053;-0.0272;-0.0200
0000813069;-3.6105;-5.0350;-0.3687;0.0020;-0.0096;-0.0228
0000813077;-3.6200;-5.0422;-0.4741;-0.0077;-0.0055;-0.0236
0000813085;-3.5362;-5.1643;-0.5004;-0.0061;0.0120;-0.0301
0000813093;-3.2825;-4.9895;-0.4262;-0.0121;0.0234;-0.0252
0000813101;-3.6105;-5.2026;-0.4788;-0.0031;0.0250;-0.0301
0000813109;-3.7828;-5.2696;-0.3711;-0.0003;0.0285;-0.0192
0000813117;-3.4740;-5.1667;-0.4238;-0.0044;0.0413;-0.0199
0000813125;-3.4884;-5.1284;-0.4142;0.0065;0.0398;-0.0208
0000813133;-3.4668;-5.1284;-0.6009;0.0037;0.0532;-0.0157
0000813141;-3.4189;-4.9321;-0.6440;0.0037;0.0474;-0.0246
0000813149;-3.5721;-5.0254;-0.6081;0.0017;0.0541;-0.0262
0000813157;-3.5841;-5.0302;-0.5722;0.0008;0.0472;-0.0345
0000813165;-3.4477;-4.9728;-0.6297;0.0007;0.0582;-0.0438
0000813173;-3.7206;-4.9775;-0.7925;-0.0167;0.0453;-0.0440
0000813181;-3.7014;-5.0302;-0.4980;-0.0216;0.0436;-0.0561
0000813189;-3.5291;-5.0757;-0.5171;-0.0121;0.0405;-0.0568
0000813197;-3.6224;-5.2122;-0.6560;-0.0099;0.0426;-0.0576
0000813205;-3.6943;-4.9943;-0.6536;-0.0109;0.0389;-0.0600
0000813213;-3.5338;-5.0949;-0.7254;-0.0079;0.0330;-0.0601
0000813221;-3.9002;-5.2170;-0.8140;-0.0145;0.0281;-0.0522
0000813229;-3.8020;-5.1116;-0.9026;-0.0172;0.0244;-0.0424
0000813237;-3.7350;-4.9823;-0.9385;-0.0133;0.0071;-0.0418
0000813245;-3.6344;-5.2696;-0.9337;-0.0097;-0.0053;-0.0413
0000813253;-3.7493;-5.1380;-0.7207;-0.0115;-0.0064;-0.0306
0000813261;-3.8044;-5.2146;-0.6991;-0.0192;-0.0119;-0.0246
0000813269;-3.6368;-5.0254;-0.6656;-0.0116;-0.0236;-0.0276
0000813277;-3.4022;-5.1763;-0.5602;-0.0132;-0.0181;-0.0191
0000813285;-3.6847;-5.2074;-0.6393;-0.0141;-0.0225;-0.0191
0000813293;-3.6536;-5.1451;-0.7278;-0.0133;-0.0281;-0.0201
0000813301;-3.6464;-5.1763;-0.6057;-0.0128;-0.0296;-0.0123
0000813309;-3.4405;-4.9775;-0.7446;-0.0187;-0.0282;-0.0124
0000813317;-3.5961;-5.0733;-0.7278;-0.0168;-0.0304;-0.0169
0000813325;-3.4189;-5.0063;-0.6680;-0.0207;-0.0281;-0.0157
0000813333;-3.8858;-5.3199;-0.6704;-0.0261;-0.0294;-0.0169
0000813341;-3.5985;-5.0374;-0.7709;-0.0224;-0.0316;-0.0196
0000813349;-3.7134;-5.1236;-0.6416;-0.0280;-0.0333;-0.0133
0000813357;-3.4907;-5.0637;-0.6919;-0.0282;-0.0324;-0.0080
0000813365;-3.8068;-5.2672;-0.6847;-0.0272;-0.0348;-0.0109
0000813373;-3.6895;-5.1188;-0.7542;-0.0232;-0.0445;-0.0103
0000813382;-3.6033;-5.0518;-0.6728;-0.0220;-0.0401;-0.0025
0000813391;-3.7062;-5.1619;-0.7326;-0.0211;-0.0509;-0.0099
0000813400;-3.6392;-5.0542;-0.6225;-0.0261;-0.0518;-0.0044
0000813409;-3.5027;-5.0182;-0.6943;-0.0197;-0.0514;-0.0095
0000813418;-3.5075;-5.0829;-0.6895;-0.0241;-0.0448;-0.0009
0000813427;-3.4955;-5.0374;-0.5626;-0.0179;-0.0441;-0.0007
0000813436;-3.7326;-5.2122;-0.5722;-0.0128;-0.0397;0.0016
0000813445;-3.5458;-5.0254;-0.6057;-0.0105;-0.0440;-0.0041
0000813454;-3.6727;-5.0398;-0.6728;-0.0157;-0.0336;-0.0043
0000813463;-3.6679;-4.9799;-0.7614;-0.0156;-0.0360;-0.0144
0000813472;-3.6320;-5.1044;-0.5363;-0.0201;-0.0441;-0.0191
0000813481;-3.7948;-5.2361;-0.5171;-0.0175;-0.0418;-0.0305
0000813490;-3.6775;-4.9895;-0.5938;-0.0276;-0.0422;-0.0265
0000813499;-3.5721;-5.1595;-0.6393;-0.0124;-0.0452;-0.0334
0000813585;-3.5626;-5.0135;-0.7997;-0.0213;-0.0016;-0.0113
0000813594;-3.6512;-5.0925;-0.7422;-0.0258;-0.0104;-0.0164
0000813603;-3.7110;-5.1930;-0.7661;-0.0269;-0.0168;-0.0218
0000813612;-3.6536;-5.0901;-0.7350;-0.0181;-0.0200;-0.0225
0000813621;-3.5961;-5.2194;-0.6584;-0.0157;-0.0248;-0.0221
0000813630;-3.3926;-4.9871;-0.6512;-0.0151;-0.0164;-0.0149
0000813639;-3.7613;-5.3415;-0.6847;-0.0183;-0.0176;-0.0141
0000813648;-3.6416;-5.1332;-0.6776;-0.0095;-0.0236;-0.0123
0000813657;-3.6392;-5.1834;-0.6656;-0.0123;-0.0165;-0.0072
0000813666;-3.6751;-5.1954;-0.7614;-0.0080;-0.0244;-0.0055
0000813675;-3.4333;-5.0039;-0.6584;-0.0175;-0.0232;0.0028
0000813684;-3.6895;-5.0733;-0.6895;-0.0097;-0.0306;0.0012
0000813693;-3.6129;-5.1356;-0.7135;-0.0131;-0.0225;0.0024
0000813702;-3.4907;-5.0589;-0.6512;-0.0125;-0.0256;-0.0052
0000813711;-3.5578;-4.9967;-0.6488;-0.0177;-0.0282;-0.0033
0000813720;-3.5506;-4.9943;-0.6967;-0.0079;-0.0282;-0.0140
0000813729;-3.7158;-5.0781;-0.6009;-0.0103;-0.0292;-0.0216
0000813738;-3.5626;-4.9847;-0.6680;-0.0148;-0.0220;-0.0215
0000813747;-3.6152;-5.0781;-0.5818;-0.0128;-0.0212;-0.0268
0000813756;-3.6368;-5.1068;-0.6656;-0.0153;-0.0184;-0.0266
0000813765;-3.6296;-5.0685;-0.7111;-0.0191;-0.0155;-0.0276
0000813774;-3.5769;-5.1188;-0.7685;-0.0185;-0.0199;-0.0260
0000813783;-3.7804;-5.2146;-0.7877;-0.0234;-0.0204;-0.0205
0000813792;-3.6272;-5.1787;-0.6967;-0.0124;-0.0250;-0.0208
0000813801;-3.5889;-5.0805;-0.7494;-0.0196;-0.0211;-0.0141
0000813810;-3.6966;-5.2792;-0.6847;-0.0139;-0.0302;-0.0099
0000813819;-3.6272;-5.2505;-0.6584;-0.0085;-0.0300;-0.0115
0000813828;-3.6224;-5.0589;-0.7135;-0.0111;-0.0256;-0.0055
0000813837;-3.4788;-4.9153;-0.6273;-0.0113;-0.0312;-0.0124
0000813846;-3.7254;-5.0996;-0.6967;-0.0176;-0.0216;-0.0111
0000813855;-3.6105;-5.0350;-0.6440;-0.0143;-0.0273;-0.0241
0000813864;-3.5362;-5.0326;-0.6871;-0.0220;-0.0237;-0.0180
0000813873;-3.6152;-5.1691;-0.7638;-0.0228;-0.0250;-0.0217
0000813882;-3.7158;-5.1763;-0.6800;-0.0179;-0.0286;-0.0260
0000813891;-3.6536;-5.2146;-0.6871;-0.0193;-0.0272;-0.0192
0000813900;-3.7206;-5.3199;-0.7518;-0.0161;-0.0340;-0.0218
0000813909;-3.6368;-5.2146;-0.7183;-0.0161;-0.0321;-0.0149
0000813918;-3.5123;-5.1715;-0.6967;-0.0141;-0.0328;-0.0089
0000813927;-3.5889;-5.1906;-0.6632;-0.0105;-0.0388;-0.0087
0000813936;-3.6919;-5.1811;-0.6704;-0.0160;-0.0358;-0.0044
0000813945;-3.7086;-5.2361;-0.7230;-0.0180;-0.0362;-0.0059
0000813954;-3.7900;-5.2002;-0.5770;-0.0136;-0.0386;-0.0121
0000813963;-3.5698;-5.0709;-0.5722;-0.0139;-0.0353;-0.0099
0000813972;-3.5961;-5.0925;-0.6369;-0.0119;-0.0284;-0.0099
0000813981;-3.5578;-5.0661;-0.6249;-0.0151;-0.0225;-0.0197
0000813990;-3.6607;-5.0230;-0.7757;-0.0063;-0.0282;-0.0285
0000813999;-3.6631;-5.1380;-0.6416;-0.0165;-0.0200;-0.0286
0000814008;-3.6368;-5.1116;-0.7230;-0.0109;-0.0212;-0.0322
0000814017;-3.5243;-4.9775;-0.7685;-0.0197;-0.0212;-0.0341
0000814026;-3.6105;-5.1188;-0.8068;-0.0213;-0.0234;-0.0248
0000814035;-3.7373;-5.3008;-0.7590;-0.0195;-0.0256;-0.0197
0000814044;-3.7038;-5.2026;-0.7302;-0.0123;-0.0318;-0.0125
0000814053;-3.6607;-5.2361;-0.7877;-0.0101;-0.0345;0.0020
0000814062;-3.7206;-5.2289;-0.8092;-0.0067;-0.0430;0.0064
0000814071;-3.4836;-4.9009;-0.8092;-0.0180;-0.0425;0.0099
0000814080;-3.6152;-5.0422;-0.5890;-0.0099;-0.0513;0.0052
0000814089;-3.6799;-5.0326;-0.6273;-0.0192;-0.0430;0.0047
0000814098;-3.7373;-5.0829;-0.5076;-0.0208;-0.0398;-0.0056
0000814107;-3.3878;-4.8985;-0.6177;-0.0149;-0.0296;-0.0148
0000814116;-3.6129;-4.9823;-0.6895;-0.0143;-0.0230;-0.0246
0000814125;-3.4237;-4.8770;-0.5962;-0.0222;-0.0128;-0.0277
0000814134;-3.6272;-5.0494;-0.7374;-0.0183;-0.0121;-0.0398
0000814143;-3.6703;-5.0973;-0.8547;-0.0204;-0.0121;-0.0316
0000814152;-3.6727;-5.0781;-0.8763;-0.0222;-0.0199;-0.0406
0000814161;-3.6536;-5.1595;-0.7685;-0.0209;-0.0281;-0.0340
0000814170;-3.7182;-5.2074;-0.7901;-0.0246;-0.0282;-0.0268
0000814179;-3.7302;-5.3702;-0.7518;-0.0211;-0.0409;-0.0228
0000814188;-3.5506;-5.1763;-0.7326;-0.0136;-0.0376;-0.0104
0000814197;-3.6727;-5.3774;-0.7063;-0.0152;-0.0374;-0.0020
0000814284;-3.6823;-5.2601;-0.6847;-0.0140;-0.0336;-0.0230
0000814293;-3.7278;-5.3079;-0.6967;-0.0152;-0.0273;-0.0180
0000814302;-3.6248;-5.1978;-0.7566;-0.0140;-0.0269;-0.0129
0000814311;-3.6703;-5.2648;-0.7997;-0.0109;-0.0344;-0.0184
0000814320;-3.7206;-5.1475;-0.7087;-0.0163;-0.0290;-0.0141
0000814329;-3.6990;-5.0925;-0.7901;-0.0073;-0.0330;-0.0163
0000814338;-3.5578;-5.0709;-0.6919;-0.0105;-0.0282;-0.0149
0000814347;-3.5817;-5.0637;-0.6393;-0.0083;-0.0316;-0.0208
0000814356;-3.6631;-5.0613;-0.8068;-0.0117;-0.0296;-0.0191
0000814365;-3.4069;-4.9153;-0.8021;-0.0120;-0.0265;-0.0209
0000814374;-3.5769;-5.0566;-0.7278;-0.0105;-0.0308;-0.0269
0000814383;-3.7589;-5.1882;-0.6967;-0.0129;-0.0336;-0.0284
0000814392;-3.5171;-5.1427;-0.7039;-0.0133;-0.0330;-0.0272
0000814401;-3.6559;-5.1499;-0.8715;-0.0175;-0.0286;-0.0189
0000814410;-3.5937;-5.0757;-0.7063;-0.0163;-0.0314;-0.0250
0000814419;-3.4788;-5.0063;-0.7542;-0.0107;-0.0362;-0.0215
0000814428;-3.5721;-5.1044;-0.7733;-0.0152;-0.0320;-0.0115
0000814437;-3.6559;-5.0805;-0.7805;-0.0160;-0.0413;-0.0109
0000814446;-3.8547;-5.2888;-0.6823;-0.0149;-0.0405;-0.0085
0000814455;-3.6344;-5.1164;-0.6321;-0.0127;-0.0453;-0.0141
0000814464;-3.6272;-5.1595;-0.6823;-0.0151;-0.0401;-0.0083
0000814473;-3.5769;-5.0111;-0.6632;-0.0180;-0.0364;-0.0101
0000814482;-3.5721;-5.0901;-0.6560;-0.0129;-0.0398;-0.0131
0000814491;-3.5698;-5.0757;-0.7901;-0.0128;-0.0348;-0.0104
0000814500;-3.5243;-4.9967;-0.7087;-0.0168;-0.0364;-0.0125
0000814509;-3.5195;-5.0589;-0.7518;-0.0145;-0.0338;-0.0068
0000814518;-3.4285;-4.9297;-0.7757;-0.0181;-0.0308;-0.0085
0000814527;-3.5554;-5.1380;-0.7422;-0.0125;-0.0329;-0.0099
0000814536;-3.6081;-5.0326;-0.8045;-0.0167;-0.0345;-0.0131
0000814545;-3.4836;-5.1308;-0.6440;-0.0120;-0.0354;-0.0155
0000814554;-3.5650;-5.1044;-0.6967;-0.0172;-0.0301;-0.0116
0000814563;-3.7469;-5.1858;-0.8140;-0.0192;-0.0322;-0.0136
0000814572;-3.6176;-5.1978;-0.7661;-0.0123;-0.0376;-0.0137
0000814581;-3.6224;-5.1787;-0.7015;-0.0149;-0.0272;-0.0103
0000814590;-3.6679;-5.2026;-0.7302;-0.0163;-0.0390;-0.0139
0000814599;-3.6081;-5.2720;-0.6584;-0.0171;-0.0333;-0.0045
0000814608;-3.6033;-4.9991;-0.6369;-0.0092;-0.0369;-0.0135
0000814617;-3.5626;-4.9991;-0.6704;-0.0101;-0.0286;-0.0103
0000814626;-3.5099;-4.9680;-0.6680;-0.0041;-0.0324;-0.0181
0000814635;-3.5793;-5.0039;-0.6991;-0.0149;-0.0257;-0.0244
0000814644;-3.7158;-5.0589;-0.6895;-0.0111;-0.0302;-0.0285
0000814653;-3.7781;-5.1475;-0.7542;-0.0238;-0.0265;-0.0306
0000814662;-3.4357;-4.9560;-0.7063;-0.0163;-0.0338;-0.0406
0000814671;-3.5769;-5.1236;-0.7398;-0.0084;-0.0270;-0.0334
0000814680;-3.6081;-5.0589;-0.7159;-0.0193;-0.0241;-0.0317
0000814689;-3.6272;-5.1356;-0.7135;-0.0105;-0.0269;-0.0310
0000814698;-3.5147;-5.0494;-0.7494;-0.0135;-0.0189;-0.0293
0000814707;-3.6272;-5.0613;-0.6321;-0.0116;-0.0199;-0.0336
0000814716;-3.6272;-5.1475;-0.6800;-0.0159;-0.0200;-0.0270
0000814725;-3.5243;-5.0446;-0.8308;-0.0224;-0.0149;-0.0260
0000814734;-3.6200;-5.0422;-0.7709;-0.0192;-0.0215;-0.0222
0000814743;-3.6512;-5.2361;-0.7518;-0.0183;-0.0211;-0.0191
0000814752;-3.7589;-5.2481;-0.7733;-0.0131;-0.0297;-0.0116
0000814761;-3.5769;-5.1930;-0.8092;-0.0167;-0.0330;-0.0021
0000814770;-3.5817;-5.1954;-0.8380;-0.0107;-0.0433;0.0017
0000814779;-3.7302;-5.2696;-0.7087;-0.0151;-0.0428;0.0068
0000814788;-3.5985;-5.2361;-0.7925;-0.0140;-0.0425;0.0085
0000814797;-3.5362;-5.0446;-0.6632;-0.0048;-0.0446;0.0021
0000814806;-3.6129;-4.8890;-0.7638;-0.0044;-0.0397;-0.0012
0000814815;-3.5362;-4.8770;-0.7446;-0.0148;-0.0400;-0.0113
0000814824;-3.5123;-4.9775;-0.7015;-0.0120;-0.0350;-0.0157
0000814833;-3.5338;-5.0254;-0.6105;-0.0137;-0.0389;-0.0268
0000814842;-3.5027;-5.0302;-0.6393;-0.0119;-0.0350;-0.0293
0000814851;-3.6655;-5.1260;-0.6345;-0.0120;-0.0318;-0.0298
0000814860;-3.4788;-5.1763;-0.8092;-0.0101;-0.0318;-0.0305
0000814869;-3.6871;-5.1739;-0.7781;-0.0083;-0.0312;-0.0290
0000814878;-3.4237;-4.9847;-0.7278;-0.0060;-0.0394;-0.0264
0000814887;-3.5434;-5.1332;-0.7973;-0.0100;-0.0354;-0.0197
0000815029;-3.5721;-5.0637;-0.7350;-0.0045;-0.0516;-0.0068
0000815038;-3.7302;-5.1356;-0.6728;-0.0108;-0.0444;-0.0075
0000815047;-3.5314;-5.0159;-0.7733;-0.0095;-0.0494;-0.0159
0000815056;-3.8020;-5.1619;-0.7422;-0.0147;-0.0492;-0.0113
0000815065;-3.5171;-5.0326;-0.7326;-0.0169;-0.0433;-0.0108
0000815074;-3.6129;-4.9991;-0.6632;-0.0139;-0.0460;-0.0220
0000815083;-3.7182;-5.0709;-0.7230;-0.0200;-0.0368;-0.0143
0000815092;-3.7900;-5.2529;-0.7781;-0.0192;-0.0392;-0.0171
0000815101;-3.6129;-5.1954;-0.8571;-0.0132;-0.0456;-0.0167
0000815110;-3.5123;-5.0542;-0.7661;-0.0112;-0.0485;-0.0141
0000815119;-3.6081;-5.0494;-0.7518;-0.0103;-0.0504;-0.0119
0000815128;-3.5961;-5.1140;-0.7925;-0.0075;-0.0473;-0.0161
0000815137;-3.6871;-5.2648;-0.7278;-0.0115;-0.0458;-0.0099
0000815146;-3.6871;-5.1858;-0.6752;-0.0151;-0.0448;-0.0179
0000815155;-3.7302;-5.2194;-0.6800;-0.0027;-0.0490;-0.0201
0000815164;-3.7421;-5.0805;-0.6321;-0.0057;-0.0410;-0.0192
0000815173;-3.6224;-5.1954;-0.6680;-0.0051;-0.0442;-0.0273
0000815182;-3.4740;-5.0733;-0.6512;-0.0116;-0.0360;-0.0241
0000815191;-3.5027;-5.1404;-0.6943;-0.0097;-0.0416;-0.0184
0000815200;-3.6296;-5.1619;-0.6608;-0.0145;-0.0305;-0.0160
0000815209;-3.6464;-5.1547;-0.7614;-0.0079;-0.0305;-0.0131
0000815218;-3.5721;-5.1260;-0.7183;-0.0057;-0.0362;-0.0192
0000815227;-3.4955;-4.9847;-0.7518;-0.0095;-0.0309;-0.0117
0000815236;-3.6703;-5.2265;-0.7781;-0.0101;-0.0380;-0.0191
0000815245;-3.6464;-5.1595;-0.7661;-0.0107;-0.0396;-0.0132
0000815254;-3.5171;-4.9991;-0.7709;-0.0107;-0.0413;-0.0236
0000815263;-3.6919;-5.2481;-0.6608;-0.0152;-0.0370;-0.0209
0000815272;-3.4836;-5.0589;-0.6967;-0.0089;-0.0418;-0.0260
0000815281;-3.6272;-5.2074;-0.7254;-0.0133;-0.0308;-0.0200
0000815290;-3.6895;-5.0733;-0.7159;-0.0093;-0.0346;-0.0207
0000815299;-3.5961;-5.1547;-0.7350;-0.0179;-0.0377;-0.0233
0000815308;-3.5195;-5.0542;-0.6728;-0.0145;-0.0408;-0.0244
0000815317;-3.6751;-5.1715;-0.6823;-0.0184;-0.0358;-0.0133
0000815326;-3.7709;-5.2265;-0.7302;-0.0180;-0.0376;-0.0155
0000815335;-3.6512;-5.2265;-0.6560;-0.0104;-0.0428;-0.0083
0000815344;-3.6655;-5.1834;-0.7494;-0.0159;-0.0385;-0.0004
0000815353;-3.6751;-5.0733;-0.7207;-0.0125;-0.0408;0.0015
0000815362;-3.7230;-5.2481;-0.7230;-0.0139;-0.0436;-0.0057
0000815371;-3.7206;-5.2074;-0.7446;-0.0108;-0.0457;-0.0056
0000815380;-3.7397;-5.1954;-0.6847;-0.0135;-0.0421;-0.0141
0000815389;-3.6823;-5.1787;-0.7039;-0.0141;-0.0386;-0.0068
0000815398;-3.5985;-5.0949;-0.8140;-0.0168;-0.0412;-0.0163
0000815407;-3.5362;-5.0518;-0.7638;-0.0145;-0.0370;-0.0159
0000815416;-3.6655;-5.1332;-0.7949;-0.0177;-0.0325;-0.0157
0000815425;-3.5698;-5.0781;-0.6321;-0.0168;-0.0374;-0.0185
0000815434;-3.4572;-5.0613;-0.6560;-0.0151;-0.0364;-0.0136
0000815443;-3.6536;-5.2337;-0.6057;-0.0157;-0.0285;-0.0119
0000815452;-3.5602;-5.1092;-0.7087;-0.0099;-0.0342;-0.0145
0000815461;-3.5482;-5.0829;-0.6991;-0.0193;-0.0241;-0.0123
0000815470;-3.5937;-5.1260;-0.7159;-0.0113;-0.0333;-0.0157
0000815479;-3.5338;-5.0206;-0.7254;-0.0177;-0.0326;-0.0192
0000815488;-3.6392;-5.1571;-0.7135;-0.0163;-0.0288;-0.0201
0000815497;-3.7206;-5.1116;-0.6656;-0.0148;-0.0293;-0.0201
0000815506;-3.4836;-4.9177;-0.6823;-0.0125;-0.0274;-0.0269
0000815515;-3.5171;-5.1643;-0.6512;-0.0147;-0.0250;-0.0213
0000815524;-3.4979;-5.1404;-0.7374;-0.0176;-0.0215;-0.0156
0000815533;-3.5721;-5.1116;-0.6728;-0.0144;-0.0193;-0.0220
0000815542;-3.7062;-5.2146;-0.7159;-0.0156;-0.0124;-0.0203
0000815551;-3.6847;-5.2098;-0.7973;-0.0175;-0.0120;-0.0156
0000815560;-3.4285;-4.9225;-0.7638;-0.0139;-0.0226;-0.0225
0000815569;-3.6248;-5.0709;-0.7470;-0.0143;-0.0205;-0.0180
0000815578;-3.5434;-4.9584;-0.6680;-0.0164;-0.0173;-0.0149
0000815587;-3.5698;-5.1116;-0.6871;-0.0113;-0.0204;-0.0173
0000815596;-3.5458;-5.1020;-0.7015;-0.0159;-0.0226;-0.0125
0000815605;-3.7134;-5.1188;-0.7997;-0.0183;-0.0175;-0.0119
0000815614;-3.6751;-5.2218;-0.7853;-0.0133;-0.0286;-0.0107
0000815623;-3.6799;-5.1930;-0.8547;-0.0140;-0.0281;-0.0128
0000815632;-3.6057;-5.2050;-0.8116;-0.0092;-0.0384;-0.0139
0000815719;-3.7158;-5.1691;-0.7063;-0.0119;-0.0400;-0.0105
0000815728;-3.4500;-5.0039;-0.7566;-0.0120;-0.0380;-0.0096
0000815737;-3.6727;-5.1523;-0.7446;-0.0100;-0.0410;-0.0139
0000815746;-3.7134;-5.1906;-0.6704;-0.0141;-0.0369;-0.0096
0000815755;-3.5817;-5.0637;-0.7422;-0.0068;-0.0398;-0.0175
0000815764;-3.6416;-5.0805;-0.6369;-0.0148;-0.0301;-0.0192
0000815773;-3.5171;-4.9752;-0.6393;-0.0152;-0.0293;-0.0240
0000815782;-3.6631;-5.2122;-0.6009;-0.0209;-0.0234;-0.0246
0000815791;-3.3710;-5.0518;-0.6321;-0.0196;-0.0124;-0.0196
0000815800;-3.6009;-5.1667;-0.6584;-0.0172;-0.0075;-0.0218
0000815809;-3.6224;-5.2505;-0.8284;-0.0175;-0.0095;-0.0181
0000815818;-3.6536;-5.2170;-0.8164;-0.0089;-0.0125;-0.0175
0000815827;-3.8164;-5.1906;-0.7422;-0.0091;-0.0139;-0.0156
0000815836;-3.6057;-5.0326;-0.8380;-0.0144;-0.0149;-0.0091
0000815845;-3.6272;-5.1787;-0.6847;-0.0155;-0.0163;-0.0175
0000815854;-3.7637;-5.2457;-0.7470;-0.0159;-0.0203;-0.0128
0000815863;-3.5985;-5.1930;-0.7542;-0.0129;-0.0136;-0.0175
0000815872;-3.4620;-5.0949;-0.6656;-0.0099;-0.0177;-0.0184
0000815881;-3.5889;-5.1356;-0.7470;-0.0128;-0.0075;-0.0168
0000815890;-3.8164;-5.1332;-0.6560;-0.0119;-0.0144;-0.0260
0000815899;-3.6368;-5.1691;-0.8859;-0.0103;-0.0143;-0.0268
0000815908;-3.6105;-5.1451;-0.8643;-0.0222;-0.0137;-0.0218
0000815917;-3.6129;-5.0398;-0.8045;-0.0181;-0.0284;-0.0268
0000815926;-3.6224;-5.2720;-0.7925;-0.0225;-0.0203;-0.0168
0000815935;-3.5147;-5.2888;-0.8116;-0.0203;-0.0269;-0.0145
0000815944;-3.7110;-5.2553;-0.8332;-0.0155;-0.0340;-0.0172
0000815953;-3.7948;-5.2960;-0.7925;-0.0208;-0.0258;-0.0051
0000815962;-3.6631;-5.2265;-0.8452;-0.0180;-0.0349;-0.0060
0000815971;-3.4764;-5.1715;-0.8260;-0.0113;-0.0364;-0.0069
0000815980;-3.7589;-5.2481;-0.8643;-0.0101;-0.0396;-0.0081
0000815989;-3.6081;-5.0470;-0.7973;-0.0164;-0.0450;-0.0004
0000815998;-3.5793;-5.1787;-0.7805;-0.0147;-0.0501;-0.0001
0000816007;-3.6488;-5.1763;-0.6680;-0.0164;-0.0482;-0.0008
0000816016;-3.6224;-5.1643;-0.6800;-0.0141;-0.0398;-0.0001
0000816025;-3.6679;-5.1858;-0.6895;-0.0159;-0.0413;-0.0131
0000816034;-3.6200;-5.1068;-0.6584;-0.0125;-0.0376;-0.0133
0000816043;-3.6583;-5.0613;-0.7733;-0.0091;-0.0386;-0.0207
0000816052;-3.5123;-4.9488;-0.7063;-0.0136;-0.0312;-0.0241
0000816061;-3.5698;-5.0661;-0.8212;-0.0144;-0.0324;-0.0284
0000816070;-3.4237;-5.0206;-0.6895;-0.0160;-0.0258;-0.0258
0000816079;-3.6559;-5.1930;-0.7398;-0.0143;-0.0320;-0.0264
0000816088;-3.5817;-5.1739;-0.7781;-0.0131;-0.0334;-0.0230
0000816097;-3.5458;-5.0853;-0.7661;-0.0095;-0.0316;-0.0183
0000816106;-3.7876;-5.2146;-0.8164;-0.0120;-0.0284;-0.0095
0000816115;-3.4716;-5.0374;-0.7853;-0.0128;-0.0330;-0.0103
0000816124;-3.5291;-5.0374;-0.7805;-0.0087;-0.0313;-0.0139
0000816133;-3.7326;-5.1763;-0.7877;-0.0177;-0.0258;-0.0113
0000816142;-3.6895;-5.1260;-0.6704;-0.0107;-0.0237;-0.0140
0000816151;-3.5626;-5.1068;-0.6823;-0.0125;-0.0167;-0.0220
0000816160;-3.7182;-5.2218;-0.8308;-0.0061;-0.0234;-0.0249
0000816169;-3.6224;-5.1475;-0.7829;-0.0173;-0.0236;-0.0164
0000816178;-3.7158;-5.2505;-0.8068;-0.0165;-0.0230;-0.0123
0000816187;-3.6631;-5.1954;-0.7590;-0.0096;-0.0304;-0.0177
0000816196;-3.7278;-5.0996;-0.7374;-0.0103;-0.0273;-0.0073
0000816205;-3.7062;-5.1667;-0.7422;-0.0089;-0.0321;-0.0088
0000816214;-3.6583;-5.0542;-0.7566;-0.0116;-0.0312;-0.0023
0000816223;-3.5434;-5.0757;-0.8811;-0.0152;-0.0342;-0.0104
0000816232;-3.7709;-5.1451;-0.8092;-0.0179;-0.0324;-0.0073
0000816241;-3.6033;-5.1667;-0.7422;-0.0212;-0.0340;-0.0179
0000816250;-3.5745;-5.0206;-0.7566;-0.0179;-0.0300;-0.0180
0000816259;-3.4836;-5.0254;-0.7422;-0.0238;-0.0221;-0.0160
0000816268;-3.6105;-5.2313;-0.6297;-0.0177;-0.0238;-0.0171
0000816277;-3.6559;-5.1715;-0.7757;-0.0111;-0.0260;-0.0197
0000816286;-3.4740;-5.0709;-0.8882;-0.0167;-0.0216;-0.0128
0000816295;-3.6464;-5.1068;-0.8045;-0.0169;-0.0302;-0.0183
0000816304;-3.5961;-4.9991;-0.7925;-0.0175;-0.0302;-0.0183
0000816313;-3.5027;-4.9632;-0.8212;-0.0217;-0.0289;-0.0180
0000816322;-3.4189;-5.1236;-0.7015;-0.0208;-0.0325;-0.0199
0000816331;-3.5338;-5.0542;-0.6847;-0.0172;-0.0280;-0.0205
0000816418;-3.6033;-5.2840;-0.7422;-0.0187;-0.0308;-0.0104
0000816427;-3.4907;-5.0182;-0.7039;-0.0129;-0.0328;-0.0137
0000816436;-3.6344;-5.0996;-0.7685;-0.0133;-0.0300;-0.0169
0000816445;-3.6176;-5.0733;-0.7015;-0.0052;-0.0346;-0.0230
0000816454;-3.6583;-5.1451;-0.8092;-0.0177;-0.0258;-0.0117
0000816463;-3.4836;-5.0254;-0.7159;-0.0148;-0.0346;-0.0173
0000816472;-3.6727;-5.1667;-0.9242;-0.0143;-0.0390;-0.0153
0000816481;-3.6392;-5.1739;-0.7470;-0.0200;-0.0362;-0.0124
0000816490;-3.5578;-5.1619;-0.7159;-0.0120;-0.0389;-0.0173
0000816499;-3.3399;-5.1499;-0.7374;-0.0189;-0.0301;-0.0115
0000816508;-3.6655;-5.1020;-0.7997;-0.0120;-0.0354;-0.0209
0000816517;-3.5793;-5.1212;-0.6776;-0.0141;-0.0270;-0.0128
0000816526;-3.5099;-5.0566;-0.7781;-0.0220;-0.0272;-0.0237
0000816535;-3.4333;-5.0111;-0.7781;-0.0180;-0.0224;-0.0175
0000816544;-3.4860;-5.0230;-0.8859;-0.0200;-0.0205;-0.0212
0000816553;-3.6727;-5.2577;-0.8188;-0.0193;-0.0249;-0.0232
0000816562;-3.5434;-5.0326;-0.7661;-0.0241;-0.0193;-0.0144
0000816571;-3.6823;-5.2002;-0.8140;-0.0101;-0.0342;-0.0220
0000816580;-3.7086;-5.2289;-0.8499;-0.0168;-0.0274;-0.0068
0000816589;-3.6583;-5.1308;-0.7661;-0.0179;-0.0274;-0.0024
0000816598;-3.4860;-5.1427;-0.8380;-0.0072;-0.0370;-0.0071
0000816607;-3.6655;-5.0302;-0.8116;-0.0156;-0.0333;-0.0003
0000816616;-3.6775;-5.1236;-0.8571;-0.0136;-0.0382;-0.0032
0000816625;-3.7086;-5.0781;-0.7781;-0.0185;-0.0389;-0.0059
0000816634;-3.5530;-5.1308;-0.7566;-0.0123;-0.0352;-0.0089
0000816643;-3.7062;-5.1164;-0.7614;-0.0137;-0.0342;-0.0132
0000816652;-3.5602;-4.9775;-0.7063;-0.0081;-0.0389;-0.0155
0000816661;-3.6272;-5.0901;-0.7518;-0.0161;-0.0336;-0.0095
0000816670;-3.5698;-5.1834;-0.7542;-0.0129;-0.0361;-0.0176
0000816679;-3.5889;-5.1188;-0.7111;-0.0180;-0.0284;-0.0139
0000816688;-3.6464;-5.0973;-0.7757;-0.0052;-0.0304;-0.0173
0000816697;-3.7014;-5.1427;-0.8452;-0.0149;-0.0254;-0.0172
0000816706;-3.5099;-5.1116;-0.7350;-0.0169;-0.0298;-0.0264
0000816715;-3.5817;-5.0709;-0.7350;-0.0184;-0.0217;-0.0193
0000816724;-3.7445;-5.1858;-0.8452;-0.0137;-0.0264;-0.0284
0000816733;-3.5530;-5.1092;-0.8212;-0.0139;-0.0317;-0.0236
0000816742;-3.5889;-5.0494;-0.8092;-0.0180;-0.0277;-0.0248
0000816751;-3.6655;-5.1380;-0.7350;-0.0096;-0.0316;-0.0268
0000816760;-3.5745;-5.1380;-0.7566;-0.0181;-0.0285;-0.0168
0000816769;-3.5530;-5.0494;-0.7829;-0.0111;-0.0353;-0.0246
0000816778;-3.7254;-5.2457;-0.8045;-0.0151;-0.0290;-0.0144
0000816787;-3.5099;-5.0063;-0.8691;-0.0111;-0.0349;-0.0242
0000816796;-3.7230;-5.1140;-0.7661;-0.0208;-0.0354;-0.0156
0000816805;-3.6009;-5.0422;-0.8212;-0.0171;-0.0348;-0.0203
0000816814;-3.5889;-5.0709;-0.7590;-0.0209;-0.0324;-0.0139
0000816823;-3.6583;-5.2002;-0.7590;-0.0165;-0.0288;-0.0148
0000816832;-3.5027;-5.0542;-0.7973;-0.0116;-0.0314;-0.0153
0000816841;-3.6416;-5.1763;-0.7781;-0.0160;-0.0302;-0.0123
0000816850;-3.7517;-5.2577;-0.7757;-0.0128;-0.0416;-0.0173
0000816859;-3.6799;-5.1811;-0.7901;-0.0161;-0.0310;-0.0112
0000816868;-3.6272;-5.2002;-0.8404;-0.0088;-0.0425;-0.0115
0000816877;-3.5889;-5.1020;-0.7638;-0.0176;-0.0364;-0.0044
0000816886;-3.4477;-5.1619;-0.8021;-0.0176;-0.0426;-0.0095
0000816895;-3.5362;-5.0853;-0.7781;-0.0107;-0.0429;-0.0124
0000816904;-3.7445;-5.1188;-0.6967;-0.0187;-0.0344;-0.0160
0000816913;-3.7206;-5.1715;-0.7183;-0.0157;-0.0386;-0.0172
0000816922;-3.6583;-5.1356;-0.7949;-0.0160;-0.0396;-0.0252
0000816931;-3.4812;-5.0566;-0.7422;-0.0177;-0.0324;-0.0197
0000816940;-3.5434;-5.1451;-0.7973;-0.0153;-0.0333;-0.0187
0000816949;-3.6272;-5.2936;-0.7685;-0.0120;-0.0357;-0.0189
0000816958;-3.5769;-5.1834;-0.7925;-0.0172;-0.0313;-0.0112
0000816967;-3.6512;-5.1236;-0.7518;-0.0113;-0.0385;-0.0193
0000816976;-3.6105;-5.0326;-0.6488;-0.0168;-0.0300;-0.0097
0000816985;-3.7757;-5.1882;-0.7709;-0.0111;-0.0346;-0.0151
0000816994;-3.6344;-5.1954;-0.8404;-0.0163;-0.0284;-0.0077
0000817003;-3.5458;-5.0111;-0.7901;-0.0123;-0.0297;-0.0161
0000817012;-3.5817;-5.1236;-0.8116;-0.0089;-0.0365;-0.0167
0000817021;-3.5482;-5.0254;-0.8021;-0.0137;-0.0297;-0.0160
0000817108;-3.5817;-5.0901;-0.7805;-0.0093;-0.0317;-0.0250
0000817117;-3.5458;-5.0398;-0.9122;-0.0159;-0.0316;-0.0241
0000817126;-3.5386;-5.0589;-0.8068;-0.0167;-0.0344;-0.0224
0000817135;-3.7589;-5.0877;-0.8715;-0.0250;-0.0301;-0.0171
0000817144;-3.5721;-5.1595;-0.8260;-0.0147;-0.0425;-0.0225
0000817153;-3.5003;-5.0757;-0.7757;-0.0192;-0.0346;-0.0112
0000817162;-3.3615;-5.0494;-0.7494;-0.0176;-0.0358;-0.0104
0000817171;-3.6344;-5.1308;-0.7494;-0.0092;-0.0332;-0.0083
0000817180;-3.5291;-5.0278;-0.7997;-0.0088;-0.0337;-0.0104
0000817189;-3.5482;-4.9608;-0.7925;-0.0164;-0.0254;-0.0100
0000817198;-3.7757;-5.1547;-0.7901;-0.0153;-0.0324;-0.0229
0000817207;-3.6105;-4.9991;-0.8021;-0.0155;-0.0274;-0.0187
0000817216;-3.6392;-5.1523;-0.7709;-0.0242;-0.0257;-0.0168
0000817225;-3.6224;-5.1404;-0.9409;-0.0149;-0.0372;-0.0230
0000817234;-3.7158;-5.2912;-0.7805;-0.0176;-0.0293;-0.0093
0000817243;-3.5937;-5.2289;-0.8092;-0.0121;-0.0345;-0.0117
0000817252;-3.7493;-5.2146;-0.8068;-0.0153;-0.0320;0.0000
0000817261;-3.5410;-5.0494;-0.8092;-0.0179;-0.0337;-0.0031
0000817270;-3.6200;-5.1140;-0.6967;-0.0120;-0.0368;0.0027
0000817279;-3.4716;-5.0996;-0.7590;-0.0160;-0.0348;-0.0055
0000817288;-3.6033;-5.1475;-0.8380;-0.0149;-0.0369;-0.0056
0000817297;-3.6679;-5.1332;-0.7733;-0.0191;-0.0288;-0.0084
0000817306;-3.5985;-5.0757;-0.8308;-0.0089;-0.0313;-0.0195
0000817315;-3.6823;-5.1739;-0.7685;-0.0107;-0.0333;-0.0218
0000817324;-3.6176;-5.1332;-0.7470;-0.0195;-0.0314;-0.0241
0000817333;-3.6368;-5.1691;-0.7733;-0.0151;-0.0317;-0.0228
0000817342;-3.5913;-5.1643;-0.7685;-0.0036;-0.0345;-0.0228
0000817351;-3.6679;-5.2648;-0.8332;-0.0127;-0.0300;-0.0144
0000817360;-3.5003;-5.0661;-0.8308;-0.0132;-0.0349;-0.0155
0000817369;-3.4357;-4.9177;-0.8332;-0.0085;-0.0321;-0.0113
0000817378;-3.7086;-5.1236;-0.7997;-0.0079;-0.0376;-0.0137
0000817387;-3.6033;-5.0446;-0.7422;-0.0153;-0.0329;-0.0109
0000817396;-3.5195;-5.0781;-0.7422;-0.0200;-0.0361;-0.0181
0000817405;-3.4812;-5.1020;-0.6800;-0.0125;-0.0264;-0.0216
0000817414;-3.5961;-5.1020;-0.6919;-0.0140;-0.0302;-0.0248
0000817423;-3.7397;-5.1308;-0.8164;-0.0147;-0.0293;-0.0261
0000817432;-3.8403;-5.2433;-0.7901;-0.0189;-0.0250;-0.0240
0000817441;-3.5674;-5.0709;-0.8739;-0.0063;-0.0313;-0.0290
0000817450;-3.6033;-5.0781;-0.8547;-0.0160;-0.0288;-0.0176
0000817459;-3.6416;-5.1427;-0.8595;-0.0131;-0.0370;-0.0229
0000817468;-3.5817;-5.1475;-0.8643;-0.0145;-0.0350;-0.0133
0000817477;-3.6990;-5.1978;-0.8787;-0.0112;-0.0477;-0.0165
0000817486;-3.4788;-5.0709;-0.7949;-0.0139;-0.0414;-0.0073
0000817495;-3.6607;-5.1188;-0.7661;-0.0105;-0.0418;-0.0111
0000817502;-3.7373;-5.2840;-0.7685;-0.0123;-0.0472;-0.0121
0000817510;-3.6105;-5.0733;-0.7757;-0.0163;-0.0406;-0.0120
0000817518;-3.5602;-4.9512;-0.7326;-0.0140;-0.0453;-0.0205
0000817526;-3.6631;-5.0709;-0.7901;-0.0165;-0.0388;-0.0197
0000817534;-3.6536;-5.1451;-0.7039;-0.0201;-0.0329;-0.0135
0000817542;-3.4716;-5.0350;-0.7901;-0.0195;-0.0329;-0.0213
0000817550;-3.6919;-5.2409;-0.7733;-0.0195;-0.0356;-0.0244
0000817558;-3.5913;-5.1451;-0.7757;-0.0171;-0.0324;-0.0167
0000817566;-3.7421;-5.2170;-0.8116;-0.0117;-0.0336;-0.0168
0000817574;-3.5219;-5.1164;-0.8428;-0.0180;-0.0309;-0.0149
0000817582;-3.6416;-5.1523;-0.8045;-0.0176;-0.0310;-0.0115
0000817590;-3.6751;-5.2337;-0.7422;-0.0173;-0.0368;-0.0128
0000817598;-3.6559;-5.0613;-0.7566;-0.0153;-0.0340;-0.0133
0000817606;-3.5075;-5.0254;-0.7997;-0.0133;-0.0401;-0.0177
0000817614;-3.6009;-5.1236;-0.7350;-0.0183;-0.0328;-0.0169
0000817622;-3.4261;-5.0781;-0.7638;-0.0212;-0.0285;-0.0163
