time;acc_x;acc_y;acc_z;gyro_x;gyro_y;gyro_z
0000762825;6.9599;2.1691;3.4524;-0.0544;-0.2661;-0.1006
0000762834;7.0222;2.2577;3.4740;-0.0437;-0.2589;-0.0969
0000762841;6.9671;2.2266;3.5219;-0.0397;-0.2470;-0.0938
0000762849;7.1826;2.3703;3.5578;-0.0397;-0.2368;-0.0927
0000762912;7.0677;2.2673;3.6392;0.0065;-0.2125;-0.0636
0000762920;7.0485;2.2170;3.5602;0.0160;-0.2173;-0.0690
0000762932;7.3119;2.2482;3.5961;0.0228;-0.1916;-0.0677
0000762940;7.1395;2.2314;3.6440;0.0280;-0.1841;-0.0673
0000762948;7.4244;2.2984;3.5410;0.0388;-0.1708;-0.0717
0000762959;7.3502;2.4277;3.4453;0.0305;-0.1436;-0.0620
0000762967;7.3933;2.6624;3.4524;0.0317;-0.1370;-0.0580
0000762979;7.1347;2.6576;3.3878;0.0084;-0.1187;-0.0505
0000762987;7.0749;2.6480;3.3303;-0.0099;-0.0965;-0.0413
0000762998;7.2113;2.6624;3.4141;-0.0193;-0.0871;-0.0346
0000763006;7.0437;2.4636;3.3447;-0.0262;-0.0715;-0.0252
0000763014;7.1060;2.4636;3.3495;-0.0294;-0.0621;-0.0262
0000763026;7.0820;2.2769;3.2753;-0.0370;-0.0420;-0.0136
0000763034;7.0820;2.2793;3.3662;-0.0329;-0.0246;-0.0024
0000763097;7.2760;2.3487;3.3016;0.0000;0.0901;0.0353
0000763105;7.2257;2.3343;3.3662;0.0056;0.1021;0.0365
0000763117;7.3861;2.5235;3.4069;0.0099;0.1210;0.0448
0000763125;7.1084;2.3008;3.3639;0.0183;0.1308;0.0510
0000763133;7.0126;2.3056;3.3591;0.0234;0.1415;0.0518
0000763144;6.9695;2.3152;3.4333;0.0261;0.1434;0.0517
0000763152;6.9384;2.4253;3.3878;0.0322;0.1418;0.0436
0000763164;6.9336;2.4541;3.4046;0.0294;0.1499;0.0506
0000763172;6.8067;2.2841;3.4788;0.0325;0.1410;0.0374
0000763183;7.1108;2.4756;3.3567;0.0304;0.1451;0.0409
0000763191;6.9121;2.3391;3.3423;0.0310;0.1356;0.0386
0000763199;6.9264;2.4134;3.3734;0.0321;0.1344;0.0461
0000763211;6.8402;2.3343;3.4117;0.0320;0.1255;0.0374
0000763219;6.8163;2.2601;3.3255;0.0340;0.1178;0.0301
0000763230;7.0557;2.4157;3.4357;0.0322;0.1074;0.0309
0000763238;6.9671;2.4445;3.4117;0.0301;0.1038;0.0278
0000763250;6.8905;2.3272;3.3471;0.0273;0.0983;0.0188
0000763258;6.9504;2.3990;3.3351;0.0203;0.0941;0.0191
0000763266;6.9456;2.4636;3.3303;0.0237;0.0886;0.0143
0000763277;6.9001;2.3343;3.3136;0.0153;0.0859;0.0100
0000763285;7.0366;2.4110;3.3974;0.0197;0.0842;0.0133
0000763297;6.8618;2.4229;3.4500;0.0220;0.0794;0.0071
0000763305;7.0437;2.3870;3.3662;0.0284;0.0686;0.0124
0000763368;7.0390;2.4828;3.3088;-0.0008;0.0437;-0.0064
0000763376;7.0413;2.4086;3.4189;-0.0049;0.0509;-0.0036
0000763384;6.9983;2.3535;3.3639;0.0001;0.0524;-0.0051
0000763396;7.0006;2.3008;3.3208;0.0023;0.0665;-0.0089
0000763404;7.0366;2.2817;3.4093;0.0061;0.0703;-0.0080
0000763415;7.1036;2.3343;3.2154;0.0075;0.0795;-0.0051
0000763423;7.1539;2.4301;3.3567;0.0041;0.0889;-0.0072
0000763435;7.0246;2.4181;3.3639;0.0207;0.0955;-0.0072
0000763443;7.0749;2.3559;3.3950;0.0318;0.1046;-0.0036
0000763451;6.9432;2.4134;3.3399;0.0324;0.1196;0.0039
0000763462;7.1611;2.3415;3.1508;0.0392;0.1275;0.0007
0000763470;7.1706;2.2098;3.1723;0.0364;0.1454;-0.0048
0000763482;7.2377;2.1644;3.2370;0.0320;0.1747;-0.0065
0000763490;7.4723;2.1931;3.2274;0.0361;0.1896;-0.0091
0000763501;7.4675;2.2290;3.1244;0.0344;0.2294;-0.0200
0000763509;7.4986;2.1189;3.1388;0.0356;0.2661;-0.0226
0000763517;7.4651;2.2314;3.1244;0.0345;0.2991;-0.0137
0000763529;7.3741;2.3128;3.0909;0.0346;0.3431;-0.0100
0000763537;7.2065;2.4684;3.0119;0.0386;0.3768;0.0016
0000763548;7.2257;2.5019;3.1603;0.0452;0.4193;0.0104
0000763556;7.2329;2.5953;3.2681;0.0465;0.4479;0.0258
0000763568;6.8953;2.5283;3.2848;0.0541;0.4851;0.0508
0000763576;6.8690;2.7342;3.2825;0.0548;0.5164;0.0749
0000763584;6.7469;2.6863;3.2801;0.0510;0.5369;0.0999
0000763647;7.0725;2.2841;3.1292;0.0461;0.6700;0.2030
0000763655;7.2760;2.4038;3.1532;0.0488;0.6852;0.1943
0000763667;7.1156;2.4708;3.1077;0.0438;0.7032;0.1803
0000763675;7.1850;2.5474;3.0885;0.0393;0.7104;0.1765
0000763683;6.9480;2.5881;3.0143;0.0338;0.7144;0.1664
0000763694;6.9336;2.5786;3.1029;0.0294;0.7089;0.1532
0000763702;6.6535;2.6791;3.1340;0.0276;0.6977;0.1488
0000763714;6.5553;2.5786;3.0670;0.0244;0.6659;0.1434
0000763722;6.2417;2.3559;3.1101;0.0216;0.6443;0.1355
0000763733;6.1531;2.3463;3.1101;0.0400;0.6101;0.1244
0000763741;6.1627;2.2865;3.2417;0.0490;0.5792;0.1234
0000763749;6.2632;2.3631;3.2513;0.0561;0.5589;0.1244
0000763761;6.1603;2.3415;3.1987;0.0674;0.5303;0.1218
0000763769;6.5457;2.4493;3.1460;0.0649;0.5216;0.1215
0000763780;6.7014;2.4421;3.1675;0.0765;0.5171;0.1212
0000763788;6.8570;2.5283;3.1532;0.0809;0.5143;0.1224
0000763800;6.9743;2.5522;3.0191;0.1035;0.5195;0.1243
0000763808;7.1204;2.5091;3.2082;0.1066;0.5317;0.1298
0000763816;7.0964;2.3463;3.1484;0.1096;0.5458;0.1271
0000763827;7.2065;2.6576;3.1196;0.1088;0.5709;0.1403
0000763835;7.0725;2.5762;3.0981;0.1031;0.5882;0.1503
0000763847;6.8546;2.4972;3.0622;0.1071;0.6057;0.1613
0000763855;6.9456;2.8012;3.1077;0.1003;0.6269;0.1757
0000763863;7.0174;2.8898;2.9832;0.0874;0.6390;0.1892
0000763926;7.1395;2.7869;2.7988;-0.0899;0.7971;0.2435
0000763934;7.0533;2.5402;2.8635;-0.0837;0.8270;0.2422
0000763946;7.1180;2.4995;2.8874;-0.0730;0.8708;0.2493
0000763954;6.8115;2.5067;2.9066;-0.0588;0.8976;0.2515
0000763965;6.8953;2.6408;2.8036;-0.0642;0.9330;0.2635
0000763973;6.6750;2.5833;2.8012;-0.0691;0.9498;0.2675
0000763981;6.7516;2.5618;2.7940;-0.0786;0.9637;0.2765
0000763993;6.8809;2.7485;2.7054;-0.0961;0.9883;0.2906
0000764001;6.9623;2.6959;2.7390;-0.1030;1.0028;0.2912
0000764012;6.7253;2.5450;2.7533;-0.1047;1.0191;0.2990
0000764020;6.7062;2.4852;2.8252;-0.1057;1.0340;0.3026
0000764032;6.9312;2.7150;2.9425;-0.0977;1.0539;0.3036
0000764040;6.7828;2.5642;2.8922;-0.0957;1.0655;0.3063
0000764048;6.9288;2.6504;2.8970;-0.0919;1.0754;0.3107
0000764059;6.6990;2.6288;2.7845;-0.0903;1.0812;0.3070
0000764067;6.5841;2.5163;2.8539;-0.0949;1.0824;0.3056
0000764079;6.4715;2.5594;2.8012;-0.1014;1.0808;0.3074
0000764087;6.3470;2.4756;2.9066;-0.0919;1.0752;0.2967
0000764098;6.3351;2.5259;2.9161;-0.0878;1.0676;0.2966
0000764106;6.2848;2.4541;2.9904;-0.0766;1.0669;0.2880
0000764114;6.2106;2.4445;3.0837;-0.0632;1.0559;0.2910
0000764126;6.1890;2.2458;3.1843;-0.0581;1.0463;0.2923
0000764134;6.2704;2.3248;3.2537;-0.0508;1.0399;0.2916
0000764197;6.1962;2.3176;3.4141;0.0064;1.0572;0.2497
0000764205;6.1148;2.4229;3.4477;0.0117;1.0613;0.2491
0000764217;6.3710;2.5857;3.4285;0.0124;1.0633;0.2470
0000764225;6.1555;2.6983;3.2896;0.0020;1.0655;0.2398
0000764233;6.2920;2.8036;3.3710;-0.0193;1.0824;0.2350
0000764244;6.2441;2.9209;3.3423;-0.0445;1.0921;0.2196
0000764252;6.1124;2.8252;3.3399;-0.0686;1.0946;0.2124
0000764264;6.0908;2.9090;3.3758;-0.0885;1.0989;0.1960
0000764272;6.0501;2.9209;3.4453;-0.0959;1.1000;0.1793
0000764284;5.8012;2.7007;3.3830;-0.1094;1.0906;0.1711
0000764292;5.6288;2.7246;3.2801;-0.1094;1.0822;0.1679
0000764300;5.5306;2.7342;3.2801;-0.1239;1.0661;0.1720
0000764311;5.6000;2.8060;3.2154;-0.1452;1.0535;0.1743
0000764319;5.5354;2.6480;3.1388;-0.1552;1.0421;0.1729
0000764331;5.6336;2.6743;3.0718;-0.1833;1.0159;0.1881
0000764339;5.5905;2.4181;3.1149;-0.1904;0.9882;0.1972
0000764350;5.4875;2.2769;3.1412;-0.1989;0.9631;0.2117
0000764358;5.1691;2.0423;3.1436;-0.1769;0.9405;0.2174
0000764366;5.0805;1.8962;2.9544;-0.1500;0.9166;0.2302
0000764378;4.3790;1.7765;2.6911;-0.0989;0.8723;0.2459
0000764386;4.2425;1.9992;2.8611;-0.0847;0.8324;0.2682
0000764398;4.3886;2.4157;2.8587;-0.0969;0.7699;0.2880
0000764406;4.5969;2.5283;2.9305;-0.1331;0.7437;0.3032
0000764474;7.0701;1.6999;3.5865;-0.2250;0.8688;0.4934
0000764482;6.8618;1.6688;3.6081;-0.1908;0.8867;0.5177
0000764490;6.5769;1.4868;3.7182;-0.1723;0.8962;0.5457
0000764501;6.2752;1.8483;3.6775;-0.1330;0.8811;0.5601
0000764509;5.9879;1.6448;3.7733;-0.1043;0.8691;0.5565
0000764521;5.9113;2.0542;3.8355;-0.0526;0.8386;0.5259
0000764529;5.4181;1.9178;3.9241;-0.0225;0.8111;0.5019
0000764540;5.2313;2.1668;3.8595;0.0173;0.7722;0.4583
0000764548;5.0350;2.4301;3.8595;0.0270;0.7465;0.4206
0000764556;4.8052;2.5666;3.7637;0.0306;0.7135;0.3838
0000764568;4.4891;2.8659;3.9433;0.0015;0.6572;0.3295
0000764576;4.4149;3.0646;3.9241;-0.0253;0.6222;0.2979
0000764587;4.6328;3.1220;4.0462;-0.0655;0.5657;0.2414
0000764595;4.8195;3.2130;4.0294;-0.0867;0.5193;0.1972
0000764607;4.9321;2.9449;3.9456;-0.1208;0.4599;0.1224
0000764615;5.0470;2.6839;3.9840;-0.1442;0.4297;0.0913
0000764623;5.1834;2.5498;3.8786;-0.1589;0.3976;0.0634
0000764634;5.4708;2.3200;3.7613;-0.1903;0.3643;0.0622
0000764642;5.7174;2.1428;3.7445;-0.1937;0.3401;0.0618
0000764654;6.1627;1.9345;3.6631;-0.1881;0.3301;0.0863
0000764662;6.2417;1.7980;3.5721;-0.1668;0.3320;0.1029
0000764674;6.5074;1.7262;3.4668;-0.1332;0.3431;0.1339
0000764682;6.4883;1.9034;3.4644;-0.1027;0.3539;0.1573
0000764690;6.5984;1.8364;3.4069;-0.0745;0.3625;0.1749
0000764758;5.5785;2.9042;3.5027;-0.0258;0.1880;0.1797
0000764766;5.3415;2.7964;3.5745;-0.0556;0.1597;0.1671
0000764777;5.7748;2.9497;3.6847;-0.0958;0.1256;0.1438
0000764785;5.8083;2.7198;3.6296;-0.1155;0.1091;0.1259
0000764797;6.0573;2.3822;3.5027;-0.1379;0.0989;0.0970
0000764805;6.2058;2.2122;3.5314;-0.1414;0.1007;0.0738
0000764813;6.4356;2.2338;3.5961;-0.1348;0.1130;0.0573
0000764824;6.4979;2.0087;3.5889;-0.1092;0.1296;0.0417
0000764832;6.5936;2.0901;3.5769;-0.0979;0.1471;0.0410
0000764844;6.3470;2.2338;3.7804;-0.0901;0.1564;0.0506
0000764852;6.3375;2.4349;3.8642;-0.0961;0.1695;0.0699
0000764863;6.0717;2.7031;4.0103;-0.1007;0.1764;0.0629
0000764871;5.9304;3.0406;4.0127;-0.1147;0.1799;0.0577
0000764883;5.8155;3.0837;3.9337;-0.1302;0.1661;0.0478
0000764891;5.7221;2.8778;3.8379;-0.1490;0.1463;0.0180
0000764899;5.7365;2.7964;3.9887;-0.1760;0.1296;-0.0008
0000764910;5.7030;2.7270;3.9169;-0.2022;0.0943;-0.0358
0000764918;5.4109;2.6432;3.9433;-0.2128;0.0517;-0.0525
0000764930;5.1404;2.5283;3.9768;-0.2427;-0.0007;-0.0604
0000764938;4.8219;2.4349;3.8355;-0.2655;-0.0497;-0.0594
0000764950;4.7309;1.9441;3.6033;-0.2980;-0.1235;-0.0588
0000764958;4.6855;1.5467;3.5291;-0.3190;-0.1520;-0.0574
0000764966;5.4181;1.4150;3.5027;-0.3068;-0.1653;-0.0789
0000765034;5.8514;1.5299;3.5027;0.2354;0.0967;-0.0665
0000765042;5.6455;1.8052;3.5147;0.2399;0.0734;-0.0272
0000765053;5.1068;2.0327;3.3567;0.2124;0.0289;0.0250
0000765061;4.8195;2.1404;3.1747;0.1948;-0.0184;0.0406
0000765073;4.5586;2.5091;3.1316;0.1475;-0.0962;0.0663
0000765081;4.5993;2.7174;3.1388;0.1208;-0.1498;0.0667
0000765089;4.4772;2.7869;3.2178;0.0907;-0.1877;0.0733
0000765100;4.9368;2.9497;3.2705;0.0632;-0.2501;0.0671
0000765108;5.1595;2.7581;3.2561;0.0377;-0.2718;0.0678
0000765120;5.8275;2.6983;3.2561;0.0225;-0.2884;0.0626
0000765128;6.2632;2.7701;3.3758;0.0157;-0.2705;0.0574
0000765139;6.7373;2.6001;3.6536;0.0372;-0.2438;0.0340
0000765147;6.8690;2.4134;3.8116;0.0540;-0.2040;0.0104
0000765155;7.1587;2.5115;4.0127;0.0827;-0.1660;-0.0073
0000765167;6.7181;2.2625;4.1875;0.1160;-0.1091;0.0012
0000765175;6.4189;2.3176;4.0199;0.1248;-0.0861;0.0218
0000765186;5.9328;2.3822;3.9025;0.1123;-0.0849;0.0633
0000765194;5.8299;2.5091;3.7350;0.0875;-0.0962;0.0939
0000765206;5.6072;2.5762;3.7373;0.0368;-0.1100;0.1324
0000765214;5.5378;2.5570;3.9193;0.0005;-0.1199;0.1540
0000765222;5.7772;2.6264;3.8451;-0.0228;-0.1174;0.1495
0000765233;6.2800;2.5690;3.8810;-0.0638;-0.1002;0.1537
0000765241;6.3063;2.3822;3.9025;-0.0687;-0.0903;0.1468
0000765309;5.7772;2.0806;3.7014;0.0173;-0.0321;0.1709
0000765317;5.7245;2.3032;3.6966;0.0164;-0.0396;0.1591
0000765328;5.7150;2.3296;3.7709;0.0216;-0.0636;0.1303
0000765336;5.7748;2.3272;3.7828;0.0208;-0.0653;0.1135
0000765348;5.8873;2.2482;3.7182;0.0136;-0.0683;0.0839
0000765356;5.8969;2.1979;3.6607;0.0151;-0.0691;0.0745
0000765364;5.9520;2.1356;3.8379;0.0268;-0.0766;0.0616
0000765375;5.9520;2.0518;3.7996;0.0462;-0.0849;0.0488
0000765383;6.1268;2.1213;3.8355;0.0473;-0.0823;0.0518
0000765395;6.1723;2.2769;3.7781;0.0557;-0.0771;0.0566
0000765403;6.1148;2.2745;3.7278;0.0513;-0.0759;0.0558
0000765414;6.2848;2.3990;3.8211;0.0449;-0.0759;0.0644
0000765422;6.1268;2.3463;3.8666;0.0345;-0.0843;0.0677
0000765430;6.3710;2.4062;3.8307;0.0356;-0.0866;0.0723
0000765442;6.2584;2.3798;3.8283;0.0149;-0.0833;0.0838
0000765450;6.4452;2.4541;3.9433;0.0133;-0.0745;0.0802
0000765461;6.3015;2.3511;4.0175;0.0185;-0.0742;0.0783
0000765469;6.2297;2.4732;3.9576;0.0204;-0.0742;0.0810
0000765481;6.1316;2.3511;3.9073;0.0196;-0.0905;0.0670
0000765489;6.3231;2.4086;3.9696;0.0097;-0.0889;0.0598
0000765497;5.9233;2.0566;4.0917;-0.0011;-0.0967;0.0616
0000765509;5.9735;2.2553;4.0342;-0.0083;-0.1118;0.0581
0000765517;6.0573;2.0686;4.2042;-0.0180;-0.1278;0.0645
0000765585;7.0318;2.0375;3.8044;0.0297;-0.2689;-0.0345
0000765593;7.3574;2.4684;3.8427;0.0076;-0.2928;-0.0316
0000765604;7.2329;2.5139;3.7038;-0.0297;-0.3436;-0.0440
0000765612;7.5800;2.7342;3.6536;-0.0601;-0.3828;-0.0450
0000765620;7.6184;2.9353;3.4261;-0.0898;-0.3993;-0.0545
0000765632;7.6231;2.9975;2.8467;-0.1034;-0.4044;-0.0827
0000765640;7.6662;2.7869;2.6983;-0.0921;-0.3834;-0.1059
0000765651;7.3526;2.5809;2.4014;-0.0610;-0.3172;-0.0994
0000765659;7.5848;2.6288;2.2170;-0.0326;-0.2731;-0.0650
0000765671;7.7620;2.5498;2.0279;-0.0048;-0.1599;0.0201
0000765679;8.3103;2.4134;2.0758;0.0075;-0.0893;0.0691
0000765691;8.9543;2.0997;2.1883;0.0099;0.0557;0.1007
0000765699;9.4212;2.0255;2.3152;-0.0008;0.1827;0.1063
0000765707;9.7013;1.7597;2.3583;-0.0093;0.3187;0.1062
0000765718;9.7037;1.3144;2.3679;-0.0253;0.5129;0.0805
0000765726;9.2991;1.1995;2.4995;-0.0250;0.6291;0.0329
0000765738;8.4324;1.2091;2.6983;-0.0474;0.7623;-0.0632
0000765746;7.6207;1.3886;2.8970;-0.0677;0.7993;-0.1355
0000765757;6.6918;1.9393;3.6727;-0.0857;0.7629;-0.2068
0000765765;5.5976;2.3487;4.0438;-0.0456;0.6971;-0.2822
0000765773;4.4772;2.6528;4.2832;0.0176;0.6451;-0.3356
0000765785;2.8323;3.1532;5.1715;0.0942;0.5137;-0.3376
0000765793;1.8052;3.6129;5.4995;0.1214;0.3806;-0.2539
0000765860;9.2871;2.0710;3.4022;-0.0160;0.0075;0.1256
0000765868;9.3470;1.6209;3.3232;-0.0111;0.0758;0.1026
0000765880;9.2656;1.5395;3.3830;0.0007;0.1544;0.0983
0000765888;8.7843;1.6041;3.4764;0.0087;0.1986;0.1086
0000765896;8.0469;1.4581;3.7781;0.0281;0.2226;0.1388
0000765907;7.0749;1.8100;3.7134;0.0658;0.2336;0.1474
0000765915;6.5050;1.7310;3.8164;0.0775;0.2177;0.1543
0000765927;5.8347;2.1524;3.7182;0.0727;0.1691;0.1522
0000765935;5.2840;2.1715;3.6966;0.0533;0.1358;0.1420
0000765946;5.1978;2.1596;3.6703;0.0240;0.0901;0.1172
0000765954;5.4300;2.4301;3.7828;0.0121;0.0580;0.0871
0000765962;5.4899;2.2458;3.8259;-0.0091;0.0454;0.0553
0000765974;6.0286;2.2865;3.9744;-0.0216;0.0298;0.0149
0000765982;6.2225;2.2673;4.0366;-0.0312;0.0224;-0.0007
0000765993;6.6607;2.2601;4.0773;-0.0308;0.0368;0.0044
0000766001;6.8785;2.4157;4.0677;-0.0250;0.0434;0.0069
0000766013;6.9863;2.3439;4.0462;-0.0104;0.0486;0.0156
0000766021;6.9791;2.2745;3.9911;-0.0089;0.0613;0.0268
0000766029;6.8307;2.1500;4.0486;-0.0048;0.0605;0.0309
0000766040;6.9408;2.1308;3.9456;-0.0057;0.0510;0.0268
0000766048;6.6918;2.0279;4.0270;-0.0197;0.0488;0.0244
0000766060;6.5362;1.8818;3.9265;-0.0183;0.0388;0.0079
0000766068;6.3494;1.8220;3.9289;-0.0242;0.0318;-0.0001
0000766135;6.4835;1.8387;3.5219;0.0188;0.0314;-0.1713
0000766143;6.4691;2.0231;3.5434;0.0382;0.0338;-0.1945
0000766151;6.5362;2.2146;3.3495;0.0481;0.0362;-0.2080
0000766163;6.3614;2.3846;3.2633;0.0452;0.0416;-0.2218
0000766171;6.3398;2.5115;3.2465;0.0348;0.0544;-0.2177
0000766182;6.2225;2.5618;3.4764;0.0207;0.0584;-0.2153
0000766190;6.3805;2.6360;3.3926;0.0039;0.0602;-0.2045
0000766202;6.3207;2.6217;3.4548;-0.0181;0.0761;-0.1831
0000766210;6.2465;2.5594;3.4740;-0.0216;0.0821;-0.1723
0000766218;6.4236;2.5019;3.4668;-0.0306;0.0929;-0.1564
0000766229;6.6463;2.5953;3.3782;-0.0344;0.1110;-0.1504
0000766237;6.3327;2.4732;3.4333;-0.0293;0.1300;-0.1507
0000766249;6.1651;2.2362;3.4524;-0.0241;0.1419;-0.1464
0000766257;6.4428;2.2865;3.4572;-0.0269;0.1507;-0.1380
0000766268;6.3518;2.2769;3.5027;-0.0185;0.1415;-0.1487
0000766276;6.3351;2.2290;3.4979;-0.0128;0.1423;-0.1483
0000766288;6.3710;2.2194;3.4788;-0.0023;0.1358;-0.1576
0000766296;6.4380;2.3846;3.4405;-0.0071;0.1435;-0.1553
0000766304;6.5745;2.3559;3.4069;-0.0108;0.1411;-0.1635
0000766315;6.5027;2.2410;3.3878;-0.0015;0.1407;-0.1835
0000766323;6.4524;2.2601;3.2633;-0.0047;0.1422;-0.1908
0000766335;6.4500;2.4134;3.2250;0.0021;0.1528;-0.1923
0000766343;6.3997;2.3798;3.1340;0.0057;0.1547;-0.1994
0000766410;6.2968;2.1787;3.4213;0.0538;0.1613;-0.2324
0000766418;6.3494;2.0925;3.3255;0.0456;0.1535;-0.2633
0000766426;6.4476;2.1165;3.1915;0.0352;0.1396;-0.2835
0000766438;6.4548;2.0039;3.1891;0.0209;0.1119;-0.3220
0000766446;6.7564;2.0159;3.1747;0.0199;0.1111;-0.3461
0000766457;6.8091;1.8507;3.0670;0.0554;0.0953;-0.4049
0000766465;6.6774;1.5323;3.0765;0.0882;0.0863;-0.4514
0000766477;6.4883;1.6352;3.1244;0.1605;0.0841;-0.4996
0000766485;6.6583;1.9273;3.1220;0.2182;0.0706;-0.5292
0000766493;6.3542;1.8292;3.1268;0.2603;0.0652;-0.5446
0000766504;6.3111;2.0734;3.0670;0.3040;0.0528;-0.5486
0000766512;6.1603;2.0590;3.2058;0.3247;0.0465;-0.5415
0000766524;6.3877;2.1524;3.1747;0.3493;0.0416;-0.5405
0000766532;6.5218;2.4014;3.2896;0.3621;0.0394;-0.5493
0000766543;6.5290;2.4493;3.2681;0.3623;0.0430;-0.5556
0000766551;6.5697;2.7653;3.1029;0.3571;0.0671;-0.5493
0000766559;6.5003;2.8778;3.1891;0.3265;0.1124;-0.5247
0000766571;6.5290;3.6033;3.3591;0.2722;0.1691;-0.4770
0000766579;6.2920;3.9073;3.3399;0.2346;0.1911;-0.4266
0000766590;6.2417;4.3814;3.3208;0.1688;0.2050;-0.3288
0000766598;5.9017;4.5729;3.1795;0.1014;0.2073;-0.2422
0000766610;6.0094;4.4939;3.3375;-0.0045;0.2198;-0.1170
0000766618;6.4452;4.1037;3.4740;-0.0617;0.2342;-0.0554
0000766626;6.6679;3.5195;3.6512;-0.1081;0.2646;0.0027
0000766693;7.8314;2.4565;4.8459;-0.2641;0.6119;0.4490
0000766701;7.3789;1.9369;4.9273;-0.3183;0.6135;0.5291
0000766713;7.1467;1.3743;5.0111;-0.3754;0.6065;0.6551
0000766721;6.9192;0.6249;5.0398;-0.3777;0.5690;0.7334
0000766732;7.3119;0.1173;5.2816;-0.3692;0.5108;0.8564
0000766740;7.4172;-0.3950;5.6719;-0.3531;0.4720;0.9357
0000766748;7.6040;-0.7183;5.7868;-0.3503;0.4411;1.0099
0000766760;8.0086;-1.1061;5.6767;-0.3563;0.4020;1.1145
0000766768;8.0349;-1.4126;5.5019;-0.3716;0.3612;1.1904
0000766779;8.1499;-1.5275;5.3654;-0.4233;0.3016;1.3466
0000766787;8.2073;-1.4461;5.3606;-0.4778;0.2325;1.4895
0000766799;8.6095;-1.2234;5.3606;-0.5792;0.0866;1.6959
0000766807;8.6742;-1.2426;4.5873;-0.6045;0.0306;1.7549
0000766818;8.7771;-1.6065;4.7453;-0.5889;0.0763;1.6770
0000766826;8.4851;-2.0135;5.0661;-0.6027;0.2122;1.5174
0000766834;8.1116;-2.6576;4.8435;-0.6698;0.4101;1.3390
0000766846;7.2018;-3.2992;2.8826;-0.8708;0.8119;1.1459
0000766854;7.5657;-3.2777;1.1468;-0.9703;1.1318;1.0589
0000766865;7.4412;-3.0861;-1.1109;-1.0194;1.6177;0.9509
0000766873;7.3454;-2.6240;-1.9201;-0.9900;2.0082;0.9606
0000766885;6.8283;-2.2649;-1.7119;-0.9130;2.3224;1.0720
0000766893;7.3358;-1.7095;-1.2067;-0.9240;2.1789;1.1598
0000766956;6.2608;-1.6496;1.0726;-0.2677;0.7710;0.3802
0000766964;6.1770;-1.9034;0.9744;-0.3968;0.6189;0.2689
0000766972;5.8466;-1.8651;1.4557;-0.5604;0.4572;0.2590
0000766984;5.7868;-1.8340;1.2929;-0.7759;0.2595;0.4190
0000766992;5.4037;-1.9561;1.7023;-0.8628;0.2232;0.6090
0000767003;5.9664;-2.0351;2.1811;-0.8823;0.2380;0.9306
0000767011;6.1699;-2.3918;2.3008;-0.9270;0.2529;1.1346
0000767023;6.6846;-2.7126;2.1548;-0.9718;0.3300;1.4480
0000767031;6.6056;-2.7318;2.1668;-0.9844;0.4322;1.6125
0000767039;6.9599;-2.5019;1.9513;-0.9935;0.5405;1.7363
0000767051;7.3933;-2.4229;2.3224;-1.0660;0.6897;1.8195
0000767059;7.4891;-2.2889;2.9018;-1.0786;0.8198;1.8385
0000767070;8.5641;-1.6065;3.1173;-0.9900;1.0576;1.7984
0000767078;9.0022;-1.0989;3.0526;-0.8090;1.2305;1.6539
0000767090;10.1251;-0.0024;3.9002;-0.4930;1.4056;1.2806
0000767098;10.5608;0.0455;4.2904;-0.4290;1.3753;1.0070
0000767109;10.3022;0.4334;4.9728;-0.2358;1.3721;0.6348
0000767117;9.4858;0.4286;4.3191;0.1302;1.4757;0.3230
0000767125;8.1714;0.5076;3.3806;0.5891;1.5982;0.0103
0000767137;6.7157;1.2402;2.1596;0.9687;1.5677;-0.4273
0000767145;5.8826;2.2122;1.8459;1.0353;1.2898;-0.6972
0000767208;5.9735;-0.0048;6.1100;1.9337;0.1492;-1.4236
0000767216;7.7548;1.0798;2.6552;2.1866;0.2950;-1.5532
0000767228;10.1778;3.9672;0.0910;2.0973;0.6747;-1.8373
0000767236;10.5177;6.5457;2.8635;1.8544;0.7233;-1.9396
0000767244;10.3813;10.0652;5.2194;1.8285;0.8170;-1.8430
0000767255;9.3589;12.3397;3.8331;1.7171;1.3390;-1.8989
0000767263;7.4723;11.2647;2.5067;1.4137;1.4406;-2.0829
0000767275;5.2888;8.2265;4.4891;1.1427;1.2613;-2.1213
0000767283;5.3941;5.7365;6.0669;1.2466;1.1610;-2.1520
0000767295;5.4995;2.0997;5.3630;1.4549;1.1056;-2.3430
0000767303;4.9823;1.2139;3.9959;1.5811;1.1327;-2.5382
0000767311;3.7350;0.7781;2.4397;1.6614;1.1390;-2.6835
0000767323;1.1205;1.8004;3.8738;1.7840;1.0820;-2.7379
0000767331;1.4988;4.3981;5.3343;2.0539;1.1510;-2.7022
0000767342;3.7086;6.7947;3.2322;1.9761;1.1876;-2.5409
0000767350;5.8802;7.1539;2.0901;1.6868;1.2271;-2.5939
0000767362;8.3510;5.9304;2.0901;1.4097;1.3568;-3.0670
0000767370;8.6024;4.4652;1.5826;1.2602;1.3883;-3.4689
0000767378;8.4180;3.7182;1.3575;1.1018;1.3145;-3.8201
0000767390;6.3135;2.7557;2.3152;0.9867;1.1786;-4.1571
0000767398;4.7525;2.4253;2.4948;1.0261;1.0818;-4.2206
0000767410;2.7581;1.9130;1.0223;1.1459;1.0393;-4.1240
0000767418;1.9896;1.9393;-0.1700;1.1286;1.0243;-3.9921
0000767481;-40.5578;12.9502;2.2817;-0.7261;0.2533;-4.3657
0000767489;-30.3321;5.7437;2.0973;-1.0491;-0.3539;-4.1849
0000767501;-16.0603;-1.4772;1.2474;-1.6256;-1.3384;-3.5570
0000767509;-8.6000;-3.6631;3.0646;-1.5608;-1.4883;-3.0253
0000767517;-3.5889;-5.5043;4.4508;-1.0325;-1.2276;-2.4296
0000767529;2.0877;-5.8347;4.1061;0.1010;-1.0870;-1.5797
0000767537;2.8587;-5.5138;2.3487;0.8438;-1.1217;-1.0968
0000767549;3.2920;-5.0781;-0.4046;1.7419;-1.0593;-0.4487
0000767557;4.2641;-5.2241;-1.2546;2.0384;-0.9867;-0.1471
0000767569;5.3319;-5.7868;-1.9465;2.1895;-0.8986;0.0742
0000767577;6.1555;-6.3398;-2.3511;2.0636;-0.7941;0.1029
0000767589;6.7397;-6.2225;-3.2609;1.6168;-0.4530;0.0466
0000767597;7.3406;-6.3207;-3.7804;1.1318;-0.1982;-0.0837
0000767608;8.4827;-6.5817;-4.3311;0.2769;0.1768;-0.4385
0000767616;9.7205;-6.7062;-3.9840;-0.4153;0.3571;-0.8464
0000767624;11.2982;-7.7165;-1.4485;-1.0778;0.3725;-1.3799
0000767636;12.9885;-7.8195;5.5474;-1.5371;0.0863;-2.4050
0000767644;11.7388;-6.6822;7.3430;-1.4416;0.2858;-2.9099
0000767655;7.9559;-5.7485;6.2225;-1.0184;1.4041;-3.6182
0000767663;6.1004;-6.4667;4.4125;-0.5465;2.0741;-4.0669
0000767675;4.2042;-7.0557;1.2522;0.1799;2.7391;-4.3657
0000767683;3.5793;-7.6447;-0.6512;0.6087;2.9255;-4.3657
0000767746;-3.4788;-7.9033;-4.7046;-0.5882;3.7130;-4.3154
0000767754;0.8835;-7.3670;-2.7653;-0.6824;3.4708;-4.0632
0000767762;3.5243;-7.1060;-0.0790;-0.4362;3.0129;-3.8395
0000767774;10.0317;-6.5266;10.2927;0.6867;1.2808;-3.4672
0000767782;10.0772;-4.8985;3.9289;1.1544;0.6703;-2.9503
0000767794;15.2104;-5.0063;-4.5921;-0.0108;2.3435;-2.3005
0000767802;13.0436;-7.9727;1.7358;-0.8697;2.6470;-2.4842
0000767814;-0.2107;-12.5121;3.2106;-0.9423;3.5066;-2.7053
0000767822;-9.8569;-15.3971;-0.1149;-0.6837;4.1228;-2.9311
0000767835;-17.9924;-16.2758;-6.1794;-0.4752;4.3656;-2.5414
0000767844;-11.7819;-15.8783;-7.7524;-0.4227;4.2292;-1.8516
0000767857;-2.2338;-15.4402;-8.1499;-0.0123;3.4399;-1.0308
0000767866;0.0670;-15.7179;-9.4547;0.2104;2.8398;-0.6027
0000767878;0.5052;-16.0723;-12.1123;0.1931;1.8795;0.0200
0000767887;0.5890;-17.0419;-12.7156;0.1307;1.1759;0.5100
0000767896;0.6345;-17.5878;-9.7827;0.3475;0.7088;0.9348
0000767909;0.5291;-15.9550;-8.0924;0.9421;0.3246;1.4212
0000767918;0.8332;-13.5392;-8.8585;1.1134;0.2105;1.6715
0000767931;-0.6009;-10.4770;-8.8921;1.0147;0.1118;1.8375
0000767940;-1.9896;-8.5401;-8.5473;0.9920;0.0628;1.8008
0000767953;-2.8252;-5.8538;-8.7628;0.9639;0.0065;1.4919
0000767962;-2.4469;-4.3958;-8.7843;0.8996;-0.0855;1.1130
0000768026;-1.9321;-12.0476;-8.2241;-0.1075;-0.1438;-0.0890
0000768035;-1.9848;-12.0213;-8.4539;-0.1151;-0.2818;0.0096
0000768048;-1.0965;-11.4778;-9.6630;-0.1611;-0.5958;0.1323
0000768057;-1.4605;-11.8393;-7.8889;-0.2380;-0.7144;0.1949
0000768066;-1.8196;-11.6957;-6.1986;-0.1360;-0.8607;0.3036
0000768079;-2.3320;-11.0923;-5.2744;-0.0352;-1.0056;0.5201
0000768088;-2.4110;-10.6279;-5.3630;-0.0801;-1.0195;0.6495
0000768101;-2.0877;-9.6175;-5.5785;-0.1503;-1.0933;0.7778
0000768110;-2.4301;-8.7771;-5.3391;-0.1412;-1.2208;0.8358
0000768123;-2.2338;-8.1499;-5.4085;0.0033;-1.3805;0.7742
0000768132;-2.6193;-7.5896;-5.5737;0.1326;-1.4474;0.6690
0000768145;-2.5331;-7.3047;-4.7166;0.2530;-1.4985;0.4967
0000768154;-2.5809;-7.2401;-4.3910;0.3099;-1.5432;0.3780
0000768166;-2.5881;-7.5178;-3.5578;0.3573;-1.5623;0.2463
0000768175;-2.6959;-7.4771;-3.1196;0.3427;-1.5493;0.1875
0000768188;-2.4205;-7.7620;-2.7701;0.2971;-1.4967;0.1066
0000768197;-2.4876;-8.0685;-2.2936;0.2642;-1.4381;0.0580
0000768206;-2.3703;-8.0302;-1.9728;0.2294;-1.3612;0.0289
0000768218;-2.3918;-8.1738;-2.0638;0.1757;-1.2653;-0.0067
0000768227;-2.7150;-8.4707;-1.6568;0.1470;-1.1882;-0.0171
0000768240;-2.7892;-8.7053;-1.6161;0.1003;-1.0720;-0.0124
0000768249;-2.7916;-8.5401;-1.4724;0.0634;-1.0023;-0.0192
0000768313;-3.1388;-8.8298;-1.2737;0.0925;-0.4948;-0.0129
0000768322;-3.1292;-8.8681;-1.3599;0.0775;-0.4393;-0.0073
0000768335;-3.0933;-8.6886;-1.5036;0.0320;-0.3701;0.0084
0000768344;-3.3710;-8.7819;-1.6544;-0.0036;-0.3340;0.0195
0000768357;-3.1963;-8.7101;-1.5179;-0.0392;-0.2867;0.0282
0000768366;-3.2034;-8.6431;-1.6161;-0.0577;-0.2567;0.0320
0000768375;-3.0694;-8.7293;-1.5730;-0.0497;-0.2297;0.0294
0000768388;-3.1508;-8.6479;-1.8842;-0.0294;-0.2041;0.0211
0000768397;-3.3734;-8.7077;-1.7166;-0.0305;-0.1821;0.0159
0000768410;-3.2609;-8.5377;-1.7957;0.0032;-0.1649;-0.0112
0000768419;-3.2465;-8.4898;-1.9441;0.0216;-0.1581;-0.0274
0000768432;-3.2513;-8.4874;-1.8052;0.0382;-0.1472;-0.0521
0000768441;-3.3830;-8.6862;-1.6424;0.0422;-0.1303;-0.0560
0000768457;-3.2250;-8.5760;-1.5203;0.0478;-0.0865;-0.0737
0000768466;-3.1580;-8.6263;-1.5347;0.0448;-0.0632;-0.0819
0000768479;-3.0167;-8.6119;-1.4844;0.0478;-0.0222;-0.0987
0000768488;-3.0598;-8.5449;-1.4605;0.0521;0.0155;-0.1081
0000768500;-3.1388;-8.5569;-1.4868;0.0285;0.0481;-0.1120
0000768509;-3.2106;-8.6191;-1.5227;0.0199;0.0715;-0.1260
0000768518;-3.1627;-8.5497;-1.6544;0.0183;0.0925;-0.1515
0000768583;-3.2417;-8.8538;-2.0135;-0.0292;0.2172;-0.1752
0000768592;-3.3974;-9.1004;-1.9609;-0.0541;0.2337;-0.1585
0000768604;-3.2561;-9.1985;-1.9441;-0.0745;0.2621;-0.1358
0000768613;-3.1460;-9.1051;-2.0423;-0.0737;0.2650;-0.1259
0000768626;-3.2848;-9.0309;-2.3583;-0.0947;0.2661;-0.0923
0000768635;-3.3423;-9.1722;-2.3343;-0.0994;0.2545;-0.0837
0000768647;-3.3926;-9.1602;-2.4157;-0.0950;0.2390;-0.0682
0000768656;-3.4668;-9.2296;-2.4924;-0.0747;0.2204;-0.0613
0000768669;-3.3615;-9.2344;-2.4876;-0.0452;0.1980;-0.0573
0000768678;-3.3519;-9.0884;-2.4852;-0.0302;0.1840;-0.0517
0000768687;-3.1795;-9.0549;-2.3200;-0.0257;0.1819;-0.0376
0000768699;-3.1316;-9.0309;-2.2697;-0.0233;0.1755;-0.0305
0000768708;-3.2537;-8.8705;-2.2362;-0.0405;0.1863;-0.0156
0000768721;-3.2465;-9.1219;-2.1620;-0.0458;0.2010;-0.0013
0000768730;-3.1771;-8.7987;-2.1955;-0.0417;0.2090;-0.0011
0000768742;-3.0143;-8.9136;-2.2075;-0.0573;0.2320;-0.0015
0000768751;-3.0335;-8.9807;-2.3248;-0.0669;0.2376;0.0079
0000768764;-3.2585;-9.0070;-2.4397;-0.0677;0.2515;0.0023
0000768773;-3.0694;-8.9232;-2.6001;-0.0741;0.2543;0.0016
0000768785;-2.9353;-8.7795;-2.6240;-0.0621;0.2485;-0.0123
0000768794;-2.9928;-8.9016;-2.6743;-0.0512;0.2453;-0.0261
0000768859;-3.1915;-8.8992;-2.9736;-0.0540;0.2108;-0.0671
0000768868;-3.3423;-8.9807;-2.9544;-0.0538;0.1965;-0.0679
0000768877;-3.1603;-9.1842;-2.9281;-0.0366;0.1801;-0.0783
0000768889;-3.0287;-9.0549;-2.8946;-0.0286;0.1657;-0.0669
0000768898;-3.1244;-9.1698;-2.9928;-0.0185;0.1545;-0.0682
0000768911;-3.0909;-9.0836;-3.0382;-0.0249;0.1376;-0.0592
0000768920;-3.1149;-9.1004;-3.1077;-0.0390;0.1298;-0.0449
0000768932;-3.1244;-9.1411;-3.0861;-0.0365;0.1167;-0.0357
0000768941;-3.0143;-9.0357;-3.1292;-0.0329;0.0957;-0.0322
0000768954;-3.2537;-9.2416;-3.0526;-0.0257;0.0779;-0.0262
0000768963;-2.9880;-8.8969;-3.0885;-0.0253;0.0689;-0.0199
0000768975;-3.1484;-8.9878;-3.1699;-0.0184;0.0518;-0.0167
0000768984;-3.1580;-9.0644;-3.1460;-0.0225;0.0365;-0.0187
0000768997;-3.2992;-9.1219;-3.0670;-0.0262;0.0228;-0.0148
0000769006;-3.1029;-8.9280;-3.0646;-0.0167;0.0065;-0.0192
0000769015;-3.1005;-9.0453;-2.9664;-0.0104;-0.0031;-0.0192
0000769027;-3.0765;-9.0621;-3.0430;-0.0177;-0.0095;-0.0176
0000769036;-3.0095;-9.0261;-2.8970;-0.0221;-0.0069;-0.0140
0000769049;-3.1340;-8.8777;-3.0933;-0.0192;-0.0157;-0.0139
0000769058;-2.9377;-8.9256;-3.0622;-0.0244;-0.0195;-0.0087
0000769070;-2.9497;-9.0357;-3.1053;-0.0237;-0.0286;-0.0071
0000769079;-3.0454;-8.9759;-3.0406;-0.0152;-0.0408;-0.0135
0000769148;-3.1723;-8.9998;-2.8970;-0.0160;-0.0482;-0.0120
0000769157;-3.0023;-8.9088;-2.8683;-0.0232;-0.0424;-0.0095
0000769169;-2.9760;-8.8777;-2.8467;-0.0209;-0.0413;-0.0103
0000769178;-2.8659;-8.8849;-2.8228;-0.0244;-0.0305;-0.0027
0000769191;-3.0765;-9.1195;-2.9401;-0.0216;-0.0248;0.0004
0000769200;-3.0215;-8.9232;-2.9425;-0.0244;-0.0260;0.0003
0000769212;-3.0478;-8.9783;-2.9544;-0.0147;-0.0250;-0.0053
0000769221;-2.9808;-8.8873;-2.9928;-0.0143;-0.0324;-0.0119
0000769230;-3.1771;-9.0070;-2.9018;-0.0169;-0.0233;-0.0083
0000769243;-3.2920;-9.0980;-2.9042;-0.0088;-0.0185;-0.0188
0000769252;-2.9185;-8.8274;-2.9329;-0.0148;-0.0215;-0.0276
0000769264;-2.9688;-8.8490;-2.9018;-0.0211;-0.0153;-0.0333
0000769273;-3.2154;-9.0812;-2.8802;-0.0149;-0.0140;-0.0364
0000769286;-3.1603;-8.8346;-2.9904;-0.0133;-0.0136;-0.0322
0000769295;-3.0167;-9.1171;-2.9784;-0.0187;-0.0032;-0.0253
0000769307;-3.1292;-9.0884;-2.9999;-0.0246;-0.0124;-0.0176
0000769316;-3.1340;-9.0812;-2.8922;-0.0160;-0.0119;-0.0211
0000769329;-3.0885;-8.9783;-2.9544;-0.0167;-0.0071;-0.0153
0000769338;-2.8706;-8.9399;-2.9904;-0.0213;-0.0001;-0.0173
0000769350;-3.0909;-8.9950;-2.9760;-0.0169;0.0081;-0.0152
0000769359;-3.0670;-9.0070;-2.9856;-0.0121;0.0060;-0.0242
0000769428;-3.0694;-8.9783;-3.0095;-0.0218;0.0011;-0.0278
0000769437;-2.9784;-8.9998;-3.1484;-0.0193;-0.0125;-0.0268
0000769446;-3.0933;-9.1459;-3.0263;-0.0224;-0.0097;-0.0129
0000769458;-3.0071;-9.0357;-2.9592;-0.0245;-0.0156;-0.0091
0000769467;-3.0095;-8.9639;-2.9928;-0.0205;-0.0212;-0.0071
0000769480;-3.0622;-9.0190;-2.9928;-0.0177;-0.0277;-0.0036
0000769489;-2.9880;-9.0644;-2.9209;-0.0153;-0.0281;-0.0083
0000769501;-3.0023;-9.0214;-3.0311;-0.0173;-0.0257;-0.0068
0000769510;-3.0382;-9.0046;-2.9784;-0.0175;-0.0325;-0.0105
0000769523;-3.0023;-8.7939;-3.0478;-0.0173;-0.0293;-0.0163
0000769532;-3.0837;-8.9735;-3.0335;-0.0211;-0.0258;-0.0173
0000769544;-2.8898;-8.9591;-3.0430;-0.0184;-0.0236;-0.0199
0000769553;-3.0813;-8.9687;-3.0742;-0.0140;-0.0289;-0.0261
0000769566;-3.0670;-9.0190;-3.0454;-0.0144;-0.0364;-0.0266
0000769575;-3.0047;-8.9639;-3.0311;-0.0101;-0.0288;-0.0216
0000769587;-3.1149;-9.0166;-2.9832;-0.0084;-0.0350;-0.0250
0000769596;-3.2178;-9.1554;-2.9808;-0.0168;-0.0248;-0.0212
0000769609;-2.8539;-8.8681;-2.9377;-0.0289;-0.0238;-0.0200
0000769618;-3.0287;-9.0740;-3.0071;0.0032;-0.0218;-0.0282
0000769627;-3.0430;-9.0692;-3.1029;-0.0196;-0.0209;-0.0163
0000769639;-3.0478;-9.0860;-3.0478;-0.0230;-0.0200;-0.0199
0000769648;-3.1771;-9.0525;-3.0406;-0.0161;-0.0117;-0.0245
0000769717;-2.8922;-8.9399;-3.0287;-0.0191;-0.0152;-0.0145
0000769726;-3.0239;-9.0094;-3.0861;-0.0187;-0.0187;-0.0079
0000769738;-2.9401;-9.0764;-3.0598;-0.0208;-0.0157;-0.0064
0000769747;-3.0382;-9.0237;-3.0885;-0.0215;-0.0195;-0.0077
0000769760;-2.9760;-9.1051;-3.0239;-0.0193;-0.0183;-0.0104
0000769769;-3.0694;-9.1004;-3.1220;-0.0221;-0.0160;-0.0031
0000769781;-3.0047;-9.0549;-3.1340;-0.0199;-0.0244;-0.0031
0000769790;-3.0382;-8.8849;-3.0454;-0.0135;-0.0300;-0.0109
0000769803;-3.1005;-8.8346;-3.1220;-0.0128;-0.0265;-0.0051
0000769812;-3.0526;-8.9926;-3.0789;-0.0108;-0.0338;-0.0161
0000769824;-2.9951;-9.0237;-3.1053;-0.0092;-0.0302;-0.0189
0000769833;-2.8515;-8.7939;-3.0358;-0.0172;-0.0285;-0.0173
0000769842;-3.1101;-9.0261;-2.9425;-0.0218;-0.0397;-0.0204
0000769855;-3.0071;-8.8849;-3.1532;-0.0084;-0.0238;-0.0164
0000769864;-3.1053;-9.0237;-3.0358;-0.0230;-0.0197;-0.0172
0000769875;-3.2370;-9.1530;-3.0406;-0.0212;-0.0176;-0.0109
0000769884;-2.9473;-8.9807;-3.1436;-0.0124;-0.0180;-0.0180
0000769898;-3.0047;-9.0214;-3.0335;-0.0092;-0.0225;-0.0201
0000769907;-3.0311;-9.0501;-3.0215;-0.0151;-0.0143;-0.0159
0000769976;-2.9975;-9.0956;-3.1939;-0.0152;-0.0163;-0.0333
0000769985;-2.9233;-8.9352;-3.2202;-0.0209;-0.0123;-0.0284
0000769997;-3.0502;-9.0812;-3.1173;-0.0183;-0.0169;-0.0230
0000770006;-3.0598;-9.1123;-3.0335;-0.0193;-0.0232;-0.0228
0000770019;-2.8946;-9.0357;-3.0526;-0.0216;-0.0175;-0.0149
0000770028;-2.8874;-9.0597;-3.1747;-0.0187;-0.0218;-0.0096
0000770040;-3.0981;-9.0812;-3.1196;-0.0176;-0.0266;-0.0067
0000770049;-3.1651;-9.1506;-3.1603;-0.0218;-0.0248;-0.0029
0000770062;-3.0646;-8.9974;-3.2441;-0.0181;-0.0274;0.0020
0000770071;-2.8659;-8.9064;-3.0718;-0.0188;-0.0278;-0.0003
0000770080;-3.0263;-8.8945;-3.1125;-0.0108;-0.0414;-0.0072
0000770092;-3.1196;-9.0405;-3.0382;-0.0165;-0.0342;-0.0083
0000770101;-2.8754;-8.8873;-3.1005;-0.0071;-0.0384;-0.0152
0000770114;-2.9568;-8.7580;-2.9832;-0.0115;-0.0356;-0.0144
0000770123;-2.8347;-8.8442;-3.0765;-0.0147;-0.0273;-0.0179
0000770135;-2.9928;-8.9280;-3.1292;-0.0205;-0.0216;-0.0153
0000770144;-3.0071;-8.9663;-3.2058;-0.0159;-0.0316;-0.0171
0000770157;-3.1436;-8.8633;-3.0885;-0.0092;-0.0215;-0.0173
0000770166;-2.9137;-8.9112;-3.0909;-0.0115;-0.0209;-0.0192
0000770178;-2.8276;-8.8753;-3.0191;-0.0160;-0.0236;-0.0180
0000770187;-2.9784;-8.9735;-3.0861;-0.0128;-0.0226;-0.0246
0000770256;-3.0406;-9.0261;-3.1867;-0.0205;-0.0204;-0.0143
0000770265;-2.9832;-8.9471;-3.1603;-0.0144;-0.0317;-0.0253
0000770277;-2.8659;-8.9160;-3.1388;-0.0211;-0.0314;-0.0152
0000770286;-3.1220;-9.0932;-3.1053;-0.0129;-0.0329;-0.0205
0000770295;-3.0239;-9.1147;-3.1101;-0.0123;-0.0332;-0.0136
0000770308;-3.0478;-9.0668;-3.0813;-0.0151;-0.0250;-0.0089
0000770317;-3.0311;-9.0573;-3.1196;-0.0148;-0.0320;-0.0168
0000770329;-3.0287;-8.9783;-3.1053;-0.0137;-0.0268;-0.0195
0000770338;-3.1436;-8.9232;-3.0789;-0.0176;-0.0232;-0.0151
0000770351;-3.1340;-9.1459;-3.1556;-0.0179;-0.0221;-0.0169
0000770360;-2.9760;-8.8681;-3.1651;-0.0216;-0.0264;-0.0191
0000770372;-2.9209;-8.8729;-3.1532;-0.0172;-0.0352;-0.0234
0000770381;-3.1795;-9.2153;-3.1532;-0.0104;-0.0354;-0.0250
0000770394;-2.9066;-9.0597;-3.0215;-0.0116;-0.0393;-0.0252
0000770403;-2.8922;-8.9830;-3.1244;-0.0104;-0.0397;-0.0149
0000770415;-3.0167;-9.1171;-3.1029;-0.0127;-0.0313;-0.0127
0000770424;-3.1915;-9.2153;-3.0574;-0.0105;-0.0314;-0.0169
0000770437;-2.9999;-9.0381;-3.0694;-0.0212;-0.0234;-0.0107
0000770446;-3.1651;-9.0166;-3.1723;-0.0124;-0.0312;-0.0213
0000770455;-3.0861;-9.1004;-3.1651;-0.0188;-0.0262;-0.0099
0000770467;-2.9999;-9.0716;-3.1316;-0.0168;-0.0285;-0.0176
0000770476;-2.9880;-9.0166;-3.0789;-0.0101;-0.0292;-0.0191
0000770545;-2.9568;-8.8992;-3.1915;-0.0165;-0.0187;-0.0185
0000770554;-2.9808;-9.0692;-3.2394;-0.0177;-0.0229;-0.0197
0000770566;-3.0358;-9.0405;-3.1580;-0.0132;-0.0305;-0.0248
0000770575;-3.1723;-9.1459;-3.1603;-0.0157;-0.0298;-0.0165
0000770588;-2.9808;-9.0597;-3.1795;-0.0155;-0.0320;-0.0183
0000770597;-3.0119;-9.0860;-3.0909;-0.0179;-0.0313;-0.0131
0000770609;-2.9975;-9.0764;-3.1053;-0.0151;-0.0328;-0.0157
0000770618;-3.0694;-9.0070;-3.1484;-0.0200;-0.0289;-0.0139
0000770631;-3.0287;-9.0070;-3.2274;-0.0200;-0.0297;-0.0073
0000770640;-2.9688;-8.9328;-3.1508;-0.0079;-0.0400;-0.0168
0000770652;-2.9353;-9.0022;-3.1292;-0.0092;-0.0437;-0.0159
0000770661;-3.1149;-9.0932;-3.1077;-0.0089;-0.0417;-0.0116
0000770674;-2.9999;-8.9902;-3.0382;-0.0185;-0.0344;-0.0103
0000770683;-2.9640;-9.1315;-3.1508;-0.0125;-0.0329;-0.0104
0000770692;-3.0430;-8.8945;-3.1364;-0.0168;-0.0338;-0.0175
0000770704;-3.1556;-9.1913;-3.0957;-0.0176;-0.0333;-0.0145
0000770713;-2.9353;-8.8514;-3.2274;-0.0172;-0.0342;-0.0221
0000770726;-2.9616;-8.9759;-3.3112;-0.0063;-0.0420;-0.0241
0000770735;-3.0430;-9.1243;-3.1891;-0.0069;-0.0410;-0.0234
0000770747;-2.9042;-8.9711;-3.1053;-0.0091;-0.0394;-0.0232
0000770756;-3.0406;-9.1075;-3.0478;-0.0056;-0.0486;-0.0256
0000770823;-2.9425;-8.9998;-3.2034;-0.0144;-0.0486;-0.0140
0000770832;-2.9497;-8.8514;-3.1747;-0.0047;-0.0540;-0.0228
0000770844;-2.9521;-8.9232;-3.1603;-0.0077;-0.0496;-0.0225
0000770853;-2.9090;-8.9328;-3.0143;-0.0009;-0.0548;-0.0294
0000770866;-2.9353;-8.8131;-3.1340;-0.0155;-0.0450;-0.0233
0000770875;-3.0191;-9.0118;-3.0143;-0.0155;-0.0401;-0.0266
0000770887;-2.8922;-8.9926;-3.1723;-0.0161;-0.0398;-0.0199
0000770896;-2.7749;-8.9471;-3.1819;-0.0203;-0.0385;-0.0159
0000770905;-2.9161;-9.0549;-3.2561;-0.0111;-0.0460;-0.0132
0000770918;-3.0909;-9.2153;-3.2034;-0.0060;-0.0538;-0.0028
0000770927;-3.2226;-9.2512;-3.1508;-0.0105;-0.0550;0.0007
0000770939;-3.0287;-9.0094;-3.1364;-0.0005;-0.0621;-0.0025
0000770948;-2.9928;-9.0549;-3.0382;-0.0068;-0.0541;0.0039
0000770961;-3.1388;-8.9807;-3.1939;-0.0087;-0.0558;-0.0036
0000770970;-3.0239;-9.0668;-3.1484;-0.0108;-0.0581;-0.0163
0000770982;-2.9808;-8.9160;-3.0694;-0.0095;-0.0569;-0.0270
0000770991;-2.8276;-8.8609;-3.0837;-0.0048;-0.0538;-0.0294
0000771004;-2.9425;-8.8921;-3.0837;-0.0127;-0.0450;-0.0220
0000771013;-2.9497;-9.0836;-3.0765;-0.0105;-0.0494;-0.0248
0000771025;-3.0837;-9.0836;-3.1364;-0.0077;-0.0408;-0.0217
0000771034;-3.0287;-9.0908;-3.0670;-0.0076;-0.0426;-0.0233
0000771102;-3.0861;-9.0261;-3.0550;-0.0083;-0.0336;-0.0208
0000771111;-3.1436;-9.1075;-3.0909;-0.0147;-0.0278;-0.0244
0000771123;-3.0670;-9.1315;-3.2034;-0.0167;-0.0264;-0.0228
0000771132;-3.0071;-9.0525;-3.2010;-0.0157;-0.0309;-0.0276
0000771141;-2.9544;-8.9064;-3.1580;-0.0120;-0.0396;-0.0253
0000771154;-3.1292;-9.0908;-3.1244;-0.0108;-0.0420;-0.0143
0000771163;-2.8970;-8.9783;-3.1867;-0.0080;-0.0464;-0.0129
0000771175;-3.0598;-9.0956;-3.2058;-0.0125;-0.0434;-0.0073
0000771184;-2.9377;-8.9807;-3.1340;-0.0109;-0.0497;-0.0097
0000771197;-2.9473;-9.0094;-3.0047;-0.0099;-0.0484;-0.0113
0000771206;-2.9832;-8.9902;-3.1364;-0.0165;-0.0413;-0.0075
0000771218;-3.0718;-9.0836;-3.1747;-0.0187;-0.0398;-0.0100
0000771227;-3.1173;-9.0261;-3.1627;-0.0109;-0.0445;-0.0176
0000771240;-3.0335;-9.0022;-3.0885;-0.0095;-0.0444;-0.0177
0000771249;-3.0933;-9.1051;-3.1149;-0.0123;-0.0469;-0.0175
0000771261;-2.9377;-8.9878;-3.0861;-0.0133;-0.0406;-0.0156
0000771270;-2.9616;-8.9376;-3.0670;-0.0101;-0.0444;-0.0208
0000771284;-2.9784;-8.9854;-3.0598;-0.0145;-0.0397;-0.0155
0000771293;-2.9233;-8.9807;-3.1053;-0.0127;-0.0386;-0.0167
0000771302;-3.0622;-9.0453;-3.0718;-0.0139;-0.0393;-0.0168
0000771315;-2.9544;-9.0525;-3.1292;-0.0091;-0.0412;-0.0161
0000771324;-2.9377;-8.9328;-3.0023;-0.0127;-0.0449;-0.0217
0000771393;-2.8994;-8.9807;-3.0598;-0.0163;-0.0325;-0.0092
0000771402;-2.9137;-8.9304;-3.1915;-0.0104;-0.0344;-0.0179
0000771415;-3.0287;-9.1506;-3.0526;-0.0093;-0.0345;-0.0200
0000771424;-2.9975;-8.9352;-3.0670;-0.0160;-0.0324;-0.0097
0000771436;-3.1173;-8.9950;-2.9880;-0.0155;-0.0308;-0.0161
0000771445;-2.9688;-9.0453;-3.0358;-0.0108;-0.0238;-0.0148
0000771458;-3.0622;-9.0716;-3.1364;-0.0132;-0.0293;-0.0160
0000771467;-3.0933;-9.0980;-3.0430;-0.0172;-0.0195;-0.0132
0000771479;-2.9113;-8.9759;-3.1268;-0.0164;-0.0176;-0.0111
0000771488;-3.0287;-9.1195;-3.1340;-0.0192;-0.0224;-0.0131
0000771501;-2.9209;-9.0166;-3.1436;-0.0173;-0.0211;-0.0116
0000771510;-3.0023;-8.9902;-3.0933;-0.0113;-0.0328;-0.0226
0000771522;-2.9712;-8.9926;-3.1101;-0.0137;-0.0278;-0.0155
0000771531;-2.9736;-8.9711;-3.1532;-0.0107;-0.0304;-0.0228
0000771540;-3.0694;-9.0453;-3.0765;-0.0137;-0.0346;-0.0224
0000771553;-2.8323;-8.9184;-3.1340;-0.0108;-0.0338;-0.0228
0000771562;-2.8946;-8.9088;-3.1173;-0.0139;-0.0328;-0.0200
0000771574;-2.9832;-9.0668;-3.0263;-0.0129;-0.0288;-0.0147
0000771583;-2.9497;-9.1937;-3.0191;-0.0172;-0.0288;-0.0111
0000771596;-3.0646;-9.0477;-3.0550;-0.0180;-0.0281;-0.0100
0000771605;-2.9113;-8.9830;-3.1412;-0.0195;-0.0209;-0.0048
0000771674;-3.0095;-9.0261;-3.0287;-0.0195;-0.0069;-0.0286
0000771683;-3.1053;-9.0022;-2.9832;-0.0258;-0.0032;-0.0207
0000771696;-2.9736;-9.0142;-3.0861;-0.0276;0.0040;-0.0220
0000771705;-3.0167;-9.0357;-3.1316;-0.0264;-0.0021;-0.0199
0000771717;-3.0311;-9.1123;-3.1508;-0.0232;-0.0057;-0.0192
0000771726;-3.0813;-9.1459;-3.1532;-0.0205;-0.0112;-0.0177
0000771739;-3.1532;-9.2991;-3.1436;-0.0172;-0.0165;-0.0076
0000771748;-2.9880;-9.0381;-3.0670;-0.0144;-0.0185;-0.0053
0000771757;-3.0191;-9.0190;-3.0981;-0.0200;-0.0125;-0.0008
0000771769;-3.0119;-9.0477;-3.1364;-0.0232;-0.0124;-0.0020
0000771778;-2.8802;-8.9352;-3.1173;-0.0192;-0.0095;-0.0036
0000771791;-2.8132;-8.8322;-3.1101;-0.0212;-0.0087;-0.0056
0000771800;-3.0167;-9.0381;-3.1580;-0.0185;-0.0095;-0.0148
0000771812;-3.0765;-9.0094;-3.2034;-0.0164;-0.0135;-0.0199
0000771821;-2.8563;-8.9376;-3.1029;-0.0128;-0.0173;-0.0224
0000771834;-2.9113;-8.9735;-3.1987;-0.0160;-0.0107;-0.0207
0000771843;-3.0095;-9.0046;-3.1196;-0.0104;-0.0179;-0.0282
0000771855;-3.1101;-9.0956;-3.0885;-0.0164;-0.0165;-0.0281
0000771864;-2.9281;-9.0405;-3.1627;-0.0141;-0.0137;-0.0225
0000771877;-2.9377;-8.9352;-3.1819;-0.0192;-0.0084;-0.0196
0000771886;-2.9090;-8.9759;-3.1196;-0.0141;-0.0125;-0.0248
0000771955;-3.0119;-8.9735;-3.1532;-0.0193;-0.0176;-0.0116
0000771964;-3.0167;-9.0812;-3.0861;-0.0124;-0.0277;-0.0161
0000771977;-3.0287;-9.0309;-3.1915;-0.0119;-0.0286;-0.0159
0000771986;-2.9784;-8.9854;-3.2034;-0.0179;-0.0176;-0.0115
0000771995;-2.7916;-8.8131;-3.1627;-0.0112;-0.0234;-0.0133
0000772007;-2.9113;-8.9543;-3.1939;-0.0145;-0.0301;-0.0152
0000772016;-3.1005;-8.9854;-3.1603;-0.0175;-0.0204;-0.0116
0000772029;-2.9999;-9.0357;-3.1795;-0.0177;-0.0248;-0.0171
0000772038;-3.0742;-9.1267;-3.1556;-0.0120;-0.0281;-0.0155
0000772050;-2.9473;-8.9399;-3.1364;-0.0163;-0.0272;-0.0185
0000772059;-3.1268;-9.1746;-3.0670;-0.0175;-0.0241;-0.0148
0000772072;-3.1627;-9.2584;-3.1675;-0.0181;-0.0160;-0.0152
0000772081;-2.8922;-9.0549;-3.2370;-0.0136;-0.0272;-0.0195
0000772093;-2.8922;-9.0094;-3.1603;-0.0185;-0.0151;-0.0204
0000772102;-2.8635;-8.8897;-3.1173;-0.0209;-0.0140;-0.0172
0000772115;-3.0382;-9.0118;-3.1460;-0.0191;-0.0148;-0.0203
0000772124;-2.9736;-9.0309;-3.1173;-0.0124;-0.0184;-0.0175
0000772136;-2.9209;-9.0214;-3.1843;-0.0128;-0.0215;-0.0268
0000772145;-2.9257;-9.0357;-3.1627;-0.0184;-0.0137;-0.0168
0000772154;-3.0119;-8.9328;-3.1603;-0.0171;-0.0207;-0.0172
0000772167;-3.0622;-9.1123;-3.2417;-0.0129;-0.0226;-0.0234
0000772176;-2.8922;-9.1004;-3.1412;-0.0189;-0.0268;-0.0160
0000772245;-2.9928;-9.1291;-3.1987;-0.0127;-0.0320;-0.0161
0000772254;-2.9640;-9.0429;-3.1699;-0.0128;-0.0237;-0.0181
0000772267;-3.0406;-9.0142;-3.1101;-0.0157;-0.0184;-0.0151
0000772276;-2.9353;-9.0214;-3.0981;-0.0211;-0.0100;-0.0153
0000772288;-2.9832;-8.9663;-3.1963;-0.0188;-0.0091;-0.0226
0000772297;-3.0119;-8.9663;-3.3232;-0.0213;-0.0021;-0.0221
0000772310;-2.8036;-9.0046;-3.3016;-0.0191;-0.0101;-0.0177
0000772319;-2.9281;-8.9711;-3.2633;-0.0249;-0.0165;-0.0195
0000772331;-2.9856;-9.1219;-3.2992;-0.0224;-0.0203;-0.0181
0000772340;-2.9736;-8.9902;-3.2681;-0.0136;-0.0313;-0.0254
0000772353;-2.9377;-9.0549;-3.2657;-0.0147;-0.0330;-0.0151
0000772362;-2.9808;-9.0405;-3.2082;-0.0133;-0.0338;-0.0133
0000772374;-2.9951;-9.0836;-3.1220;-0.0168;-0.0340;-0.0144
0000772383;-2.9449;-8.9663;-3.2537;-0.0212;-0.0228;-0.0075
0000772392;-3.0694;-9.0429;-3.2920;-0.0272;-0.0169;-0.0072
0000772405;-2.9233;-9.0621;-3.1173;-0.0183;-0.0266;-0.0193
0000772414;-2.8347;-8.8490;-3.2657;-0.0168;-0.0264;-0.0173
0000772426;-3.0047;-9.0166;-3.2896;-0.0119;-0.0301;-0.0201
0000772435;-2.9975;-9.0501;-3.2441;-0.0117;-0.0318;-0.0165
0000772448;-3.0502;-9.0429;-3.3303;-0.0091;-0.0346;-0.0201
0000772457;-2.8898;-9.0429;-3.2441;-0.0171;-0.0306;-0.0124
0000772526;-2.9592;-8.9064;-3.2034;-0.0163;-0.0244;-0.0218
0000772535;-2.9066;-8.9783;-3.2346;-0.0144;-0.0297;-0.0197
0000772548;-2.9664;-9.0261;-3.2322;-0.0159;-0.0312;-0.0226
0000772557;-2.9233;-9.1004;-3.2298;-0.0136;-0.0286;-0.0200
0000772569;-3.1412;-9.1602;-3.2872;-0.0092;-0.0329;-0.0144
0000772578;-3.2178;-9.1722;-3.2513;-0.0191;-0.0270;-0.0145
0000772591;-2.9760;-9.0884;-3.2968;-0.0181;-0.0325;-0.0141
0000772600;-3.0167;-9.0309;-3.2034;-0.0159;-0.0341;-0.0107
0000772609;-2.9664;-9.0214;-3.2561;-0.0140;-0.0328;-0.0129
0000772621;-2.8850;-9.0118;-3.2872;-0.0168;-0.0316;-0.0143
0000772630;-2.8108;-8.9663;-3.1532;-0.0144;-0.0388;-0.0205
0000772643;-2.8874;-8.8562;-3.1867;-0.0123;-0.0346;-0.0193
0000772652;-2.9568;-9.1722;-3.2489;-0.0140;-0.0332;-0.0167
0000772664;-3.1340;-9.1770;-3.1220;-0.0101;-0.0294;-0.0105
0000772673;-3.0670;-9.1842;-3.1556;-0.0184;-0.0282;-0.0084
0000772686;-3.0047;-9.1339;-3.3112;-0.0181;-0.0296;-0.0075
0000772695;-2.9473;-8.9878;-3.2346;-0.0133;-0.0325;-0.0105
0000772707;-2.8347;-9.0214;-3.2585;-0.0187;-0.0310;-0.0136
0000772716;-2.9329;-8.9160;-3.2082;-0.0137;-0.0242;-0.0083
0000772730;-2.9185;-9.0357;-3.2561;-0.0176;-0.0244;-0.0137
0000772739;-2.9473;-8.9878;-3.2465;-0.0136;-0.0308;-0.0201
0000772808;-2.9425;-9.1411;-3.1939;-0.0207;-0.0276;-0.0125
0000772817;-3.1220;-9.0405;-3.2154;-0.0168;-0.0322;-0.0140
0000772829;-2.9066;-8.9807;-3.2537;-0.0173;-0.0261;-0.0128
0000772838;-3.1149;-9.1459;-3.2034;-0.0163;-0.0341;-0.0173
0000772847;-3.0215;-9.0860;-3.2777;-0.0151;-0.0300;-0.0129
0000772860;-3.0957;-9.1530;-3.2609;-0.0093;-0.0325;-0.0200
0000772869;-2.7821;-8.9423;-3.1915;-0.0140;-0.0316;-0.0131
0000772881;-3.0478;-9.1243;-3.1819;-0.0101;-0.0316;-0.0221
0000772890;-2.9808;-9.0573;-3.2322;-0.0159;-0.0232;-0.0161
0000772903;-2.9305;-9.0764;-3.2657;-0.0121;-0.0252;-0.0230
0000772912;-2.9664;-9.0405;-3.2801;-0.0173;-0.0226;-0.0179
0000772924;-2.9808;-9.0573;-3.2322;-0.0117;-0.0314;-0.0253
0000772933;-3.0287;-9.1722;-3.2896;-0.0128;-0.0380;-0.0233
0000772946;-2.8922;-9.1004;-3.3040;-0.0101;-0.0397;-0.0256
0000772955;-2.8706;-8.9352;-3.2058;-0.0119;-0.0413;-0.0151
0000772967;-2.9329;-8.9926;-3.2394;-0.0096;-0.0401;-0.0129
0000772976;-3.1196;-9.2632;-3.3303;-0.0180;-0.0425;-0.0101
0000772989;-2.9784;-9.0812;-3.1987;-0.0167;-0.0369;-0.0100
0000772998;-3.1244;-9.1099;-3.2777;-0.0167;-0.0329;-0.0053
0000773007;-3.0358;-8.9639;-3.2537;-0.0189;-0.0361;-0.0108
0000773019;-2.9975;-9.0094;-3.3088;-0.0153;-0.0421;-0.0136
0000773028;-2.8802;-8.9663;-3.2872;-0.0155;-0.0338;-0.0157
0000773097;-2.9999;-9.0597;-3.3399;-0.0124;-0.0378;-0.0152
0000773106;-2.9808;-9.0237;-3.3160;-0.0151;-0.0352;-0.0145
0000773118;-2.8778;-8.9543;-3.3782;-0.0124;-0.0442;-0.0157
0000773127;-2.9257;-9.0381;-3.2034;-0.0112;-0.0406;-0.0163
0000773140;-2.9209;-8.9639;-3.2609;-0.0088;-0.0418;-0.0157
0000773149;-2.8706;-9.0046;-3.2825;-0.0077;-0.0494;-0.0232
0000773161;-2.9353;-9.0501;-3.1340;-0.0052;-0.0497;-0.0246
0000773170;-2.8683;-9.0908;-3.2537;-0.0151;-0.0418;-0.0160
0000773183;-2.9377;-9.0573;-3.2106;-0.0139;-0.0394;-0.0165
0000773192;-2.9329;-8.9687;-3.2705;-0.0148;-0.0445;-0.0236
0000773204;-3.1125;-9.1794;-3.2082;-0.0056;-0.0494;-0.0199
0000773213;-2.9161;-9.0022;-3.2753;-0.0092;-0.0508;-0.0208
0000773226;-2.9209;-9.1315;-3.2777;-0.0100;-0.0505;-0.0171
0000773235;-2.9521;-8.9615;-3.2657;-0.0093;-0.0521;-0.0175
0000773244;-2.8036;-8.9711;-3.2394;-0.0092;-0.0549;-0.0135
0000773256;-2.9592;-8.9854;-3.2346;-0.0061;-0.0568;-0.0147
0000773265;-3.0358;-9.0621;-3.2106;-0.0167;-0.0478;-0.0103
0000773278;-3.0335;-9.0549;-3.2154;-0.0128;-0.0537;-0.0175
0000773287;-3.0478;-9.1028;-3.3232;-0.0145;-0.0482;-0.0144
0000773299;-2.8778;-9.0237;-3.2872;-0.0109;-0.0526;-0.0133
0000773308;-3.0071;-9.1028;-3.2513;-0.0135;-0.0457;-0.0163
0000773377;-2.9640;-9.0214;-3.2657;-0.0095;-0.0482;-0.0167
0000773386;-3.0095;-8.9878;-3.3088;-0.0092;-0.0534;-0.0232
0000773398;-3.0071;-9.1004;-3.2154;-0.0101;-0.0506;-0.0160
0000773407;-3.0047;-9.1339;-3.3184;-0.0068;-0.0554;-0.0180
0000773420;-3.0909;-9.1051;-3.2106;-0.0071;-0.0581;-0.0218
0000773429;-3.0622;-9.1387;-3.2250;-0.0095;-0.0586;-0.0176
0000773441;-2.8970;-8.9256;-3.1532;-0.0129;-0.0517;-0.0131
0000773450;-2.9353;-9.0214;-3.1388;-0.0099;-0.0561;-0.0156
0000773459;-2.9066;-8.9663;-3.1867;-0.0091;-0.0525;-0.0067
0000773472;-3.0287;-8.9711;-3.1963;-0.0129;-0.0438;-0.0080
0000773481;-2.9066;-8.9423;-3.2154;-0.0119;-0.0537;-0.0152
0000773493;-2.9281;-9.1866;-3.2346;-0.0048;-0.0542;-0.0164
0000773502;-2.9544;-8.8825;-3.2178;0.0003;-0.0516;-0.0187
0000773515;-2.8371;-8.9040;-3.0957;-0.0005;-0.0533;-0.0212
0000773524;-2.9185;-9.0405;-3.0478;-0.0092;-0.0456;-0.0220
0000773536;-3.0167;-8.9280;-3.1436;-0.0072;-0.0442;-0.0285
0000773545;-2.9113;-8.9759;-3.1364;-0.0121;-0.0401;-0.0242
0000773558;-2.8946;-9.0309;-3.1963;-0.0147;-0.0408;-0.0270
0000773567;-3.1244;-9.1770;-3.1915;-0.0145;-0.0437;-0.0187
0000773579;-2.8443;-9.1147;-3.2537;-0.0103;-0.0488;-0.0144
0000773588;-2.9185;-9.0716;-3.0885;-0.0153;-0.0441;-0.0083
0000773657;-3.0957;-9.0932;-3.1723;-0.0140;-0.0365;-0.0125
0000773666;-3.1244;-9.0668;-3.1220;-0.0107;-0.0476;-0.0177
0000773675;-3.0095;-9.0621;-3.1388;-0.0141;-0.0384;-0.0167
0000773687;-3.0095;-9.0692;-3.1196;-0.0156;-0.0373;-0.0161
0000773696;-2.9784;-9.1243;-3.1412;-0.0203;-0.0352;-0.0137
0000773709;-2.9808;-8.9926;-3.1173;-0.0159;-0.0333;-0.0131
0000773718;-3.0167;-9.1626;-3.1388;-0.0100;-0.0396;-0.0184
0000773730;-2.9951;-9.0621;-3.2034;-0.0136;-0.0349;-0.0121
0000773739;-2.9688;-9.1387;-3.1795;-0.0139;-0.0317;-0.0109
0000773752;-3.0981;-9.1363;-3.1484;-0.0132;-0.0334;-0.0121
0000773761;-3.0550;-9.0477;-3.1699;-0.0127;-0.0337;-0.0180
0000773773;-2.9975;-8.9447;-3.1484;-0.0121;-0.0298;-0.0153
0000773782;-3.0837;-9.1339;-3.1532;-0.0119;-0.0322;-0.0204
0000773795;-2.9281;-9.0070;-3.1196;-0.0125;-0.0325;-0.0269
0000773804;-2.9401;-9.0453;-3.2346;-0.0159;-0.0257;-0.0193
0000773816;-2.9808;-9.1698;-3.2154;-0.0163;-0.0292;-0.0184
0000773825;-3.1388;-9.1506;-3.2058;-0.0207;-0.0293;-0.0133
0000773838;-2.9880;-9.0261;-3.2322;-0.0160;-0.0266;-0.0133
0000773847;-2.9185;-9.0764;-3.1843;-0.0144;-0.0326;-0.0153
0000773856;-2.8419;-8.9591;-3.1915;-0.0176;-0.0314;-0.0136
0000773868;-3.0646;-9.0357;-3.1436;-0.0144;-0.0312;-0.0101
0000773877;-2.9257;-9.0573;-3.1819;-0.0111;-0.0298;-0.0148
0000773946;-2.8946;-9.0908;-3.2394;-0.0201;-0.0137;-0.0119
0000773955;-3.0550;-9.1459;-3.2106;-0.0215;-0.0157;-0.0095
0000773967;-3.1053;-9.2033;-3.2130;-0.0230;-0.0109;-0.0073
0000773976;-3.1101;-9.1219;-3.2298;-0.0188;-0.0160;-0.0145
0000773989;-3.0622;-9.0621;-3.1603;-0.0124;-0.0250;-0.0188
0000773998;-2.8659;-8.9376;-3.1939;-0.0164;-0.0193;-0.0125
0000774010;-3.0023;-9.1171;-3.2417;-0.0135;-0.0195;-0.0164
0000774019;-2.9736;-9.0046;-3.1963;-0.0177;-0.0205;-0.0187
0000774032;-3.0406;-9.0860;-3.2417;-0.0147;-0.0265;-0.0246
0000774041;-2.8970;-9.0668;-3.2322;-0.0103;-0.0234;-0.0209
0000774053;-3.0119;-9.1554;-3.2394;-0.0107;-0.0285;-0.0220
0000774062;-2.8994;-9.1099;-3.1963;-0.0179;-0.0203;-0.0116
0000774071;-2.9281;-9.0405;-3.2346;-0.0196;-0.0192;-0.0116
0000774084;-2.9640;-8.9926;-3.2202;-0.0165;-0.0237;-0.0171
0000774093;-3.0478;-9.0070;-3.2370;-0.0209;-0.0147;-0.0073
0000774105;-2.8228;-9.0644;-3.1867;-0.0156;-0.0242;-0.0124
0000774114;-3.0167;-9.0022;-3.1292;-0.0116;-0.0276;-0.0173
0000774128;-2.9975;-9.0118;-3.2226;-0.0151;-0.0191;-0.0104
0000774137;-2.9425;-9.0405;-3.1340;-0.0100;-0.0226;-0.0215
0000774206;-2.9233;-9.1387;-3.2896;-0.0209;-0.0124;-0.0121
0000774215;-3.0167;-9.1435;-3.2417;-0.0199;-0.0189;-0.0128
0000774227;-2.9760;-9.1387;-3.2274;-0.0217;-0.0205;-0.0053
0000774236;-2.9784;-9.0453;-3.1603;-0.0175;-0.0196;-0.0093
0000774249;-3.0095;-9.0692;-3.3040;-0.0185;-0.0193;-0.0100
0000774258;-2.8946;-8.9423;-3.1675;-0.0212;-0.0181;-0.0056
0000774270;-2.9880;-9.0214;-3.2537;-0.0192;-0.0160;-0.0060
0000774279;-3.0550;-9.0070;-3.2274;-0.0229;-0.0152;-0.0104
0000774292;-2.8922;-9.0118;-3.2825;-0.0156;-0.0218;-0.0176
0000774301;-2.9808;-9.0261;-3.2705;-0.0172;-0.0132;-0.0148
0000774310;-2.9066;-9.0022;-3.2202;-0.0181;-0.0195;-0.0173
0000774322;-2.8443;-8.8849;-3.1795;-0.0145;-0.0196;-0.0224
0000774331;-2.9880;-9.0214;-3.2154;-0.0179;-0.0180;-0.0189
0000774344;-2.9042;-8.9974;-3.2585;-0.0185;-0.0159;-0.0175
0000774353;-2.8850;-9.0405;-3.2394;-0.0161;-0.0238;-0.0253
0000774365;-2.8754;-9.0022;-3.2202;-0.0135;-0.0177;-0.0156
0000774374;-2.9975;-8.9567;-3.3255;-0.0104;-0.0250;-0.0209
0000774387;-3.0143;-9.0668;-3.2561;-0.0136;-0.0241;-0.0180
0000774396;-2.9951;-9.1698;-3.2489;-0.0169;-0.0213;-0.0180
0000774408;-2.8084;-8.9352;-3.2394;-0.0191;-0.0215;-0.0187
0000774417;-2.8706;-8.9423;-3.2609;-0.0137;-0.0288;-0.0209
0000774486;-2.9928;-9.0046;-3.2585;-0.0180;-0.0241;-0.0108
0000774495;-2.9832;-9.1554;-3.3160;-0.0179;-0.0298;-0.0112
0000774507;-2.9712;-9.0956;-3.1675;-0.0124;-0.0340;-0.0161
0000774516;-2.9544;-9.0932;-3.2657;-0.0155;-0.0316;-0.0124
0000774525;-2.9904;-9.1267;-3.2106;-0.0168;-0.0305;-0.0136
0000774538;-3.0622;-9.1746;-3.2034;-0.0168;-0.0300;-0.0177
0000774547;-2.8204;-9.0261;-3.2537;-0.0164;-0.0269;-0.0103
0000774559;-2.9018;-9.0381;-3.2705;-0.0160;-0.0252;-0.0152
0000774568;-2.8419;-9.0309;-3.2489;-0.0136;-0.0306;-0.0117
0000774581;-2.9544;-9.0429;-3.2058;-0.0163;-0.0257;-0.0125
0000774590;-2.9784;-8.9998;-3.2585;-0.0200;-0.0189;-0.0045
0000774602;-2.9449;-9.0860;-3.1915;-0.0169;-0.0245;-0.0116
0000774611;-3.0167;-8.9854;-3.3279;-0.0168;-0.0204;-0.0161
0000774624;-3.0239;-9.0094;-3.3064;-0.0157;-0.0208;-0.0159
0000774633;-2.9425;-8.9830;-3.2346;-0.0124;-0.0246;-0.0164
0000774645;-2.8132;-8.8801;-3.2777;-0.0127;-0.0309;-0.0238
0000774654;-3.0263;-9.0788;-3.2968;-0.0144;-0.0253;-0.0191
0000774667;-2.9185;-8.9998;-3.3184;-0.0157;-0.0260;-0.0197
0000774676;-2.9832;-9.1267;-3.2106;-0.0160;-0.0316;-0.0221
0000774688;-2.8922;-9.1554;-3.3543;-0.0140;-0.0273;-0.0196
0000774697;-2.8395;-8.9807;-3.2825;-0.0125;-0.0278;-0.0148
0000774706;-3.0143;-9.1674;-3.2346;-0.0131;-0.0285;-0.0197
0000774775;-3.0095;-9.0166;-3.1771;-0.0157;-0.0241;-0.0159
0000774782;-2.8299;-8.9064;-3.1723;-0.0116;-0.0292;-0.0156
0000774793;-2.8443;-8.8777;-3.1963;-0.0222;-0.0109;-0.0175
0000774801;-2.9568;-9.0357;-3.2825;-0.0196;-0.0121;-0.0211
0000774813;-2.9951;-9.0429;-3.2920;-0.0233;-0.0115;-0.0148
0000774821;-2.9113;-8.9807;-3.3854;-0.0207;-0.0148;-0.0211
0000774832;-2.9856;-8.9735;-3.2609;-0.0160;-0.0268;-0.0234
0000774840;-2.9928;-9.0908;-3.2944;-0.0155;-0.0254;-0.0183
0000774852;-2.9473;-9.0812;-3.2106;-0.0131;-0.0309;-0.0207
0000774860;-2.8922;-9.0333;-3.2058;-0.0153;-0.0322;-0.0116
0000774871;-2.8467;-9.0549;-3.2585;-0.0144;-0.0312;-0.0164
0000774879;-3.0215;-9.0788;-3.2753;-0.0163;-0.0281;-0.0097
