time;acc_x;acc_y;acc_z;gyro_x;gyro_y;gyro_z
0000546294;6.0430;-15.3780;3.3040;-0.0254;-0.0959;-0.0123
0000546302;6.0214;-15.3923;3.3782;-0.0193;-0.1050;-0.0244
0000546309;5.9879;-15.3923;3.3710;-0.0245;-0.0957;-0.0207
0000546317;6.0430;-15.3109;3.3950;-0.0282;-0.1042;-0.0277
0000546384;5.9041;-15.5192;3.2968;-0.0469;-0.1216;-0.0152
0000546392;5.9065;-15.4881;3.3208;-0.0513;-0.1212;-0.0107
0000546404;5.8610;-15.5815;3.3423;-0.0460;-0.1248;-0.0108
0000546412;6.1196;-15.3397;3.3088;-0.0446;-0.1255;-0.0059
0000546423;6.0430;-15.4737;3.3974;-0.0482;-0.1214;-0.0044
0000546431;5.9616;-15.3373;3.3519;-0.0550;-0.1226;-0.0032
0000546439;6.1052;-15.2989;3.4069;-0.0473;-0.1234;-0.0037
0000546451;5.9185;-15.3732;3.3734;-0.0524;-0.1216;-0.0044
0000546459;6.0047;-15.3349;3.4500;-0.0524;-0.1194;-0.0047
0000546470;6.0286;-15.4091;3.3399;-0.0565;-0.1199;-0.0057
0000546478;5.9687;-15.3899;3.3064;-0.0584;-0.1171;-0.0019
0000546490;6.0645;-15.3851;3.4477;-0.0600;-0.1095;-0.0080
0000546498;6.0645;-15.3971;3.3806;-0.0661;-0.1041;-0.0076
0000546509;6.2417;-15.2654;3.3279;-0.0677;-0.1026;-0.0145
0000546517;6.1411;-15.4282;3.3591;-0.0636;-0.1010;-0.0230
0000546529;6.3398;-15.2822;3.3567;-0.0681;-0.0873;-0.0262
0000546537;6.3590;-15.4737;3.3591;-0.0693;-0.0785;-0.0270
0000546548;6.0334;-15.5216;3.3758;-0.0652;-0.0790;-0.0381
0000546556;6.0047;-15.7682;3.3064;-0.0667;-0.0715;-0.0406
0000546564;6.0693;-15.4665;3.2872;-0.0558;-0.0709;-0.0474
0000546576;6.1268;-15.5910;3.1891;-0.0481;-0.0771;-0.0494
0000546584;5.8873;-15.7060;3.2992;-0.0472;-0.0710;-0.0377
0000546651;6.2465;-15.4426;3.3351;-0.0177;-0.0489;-0.0636
0000546659;6.3015;-15.5144;3.3112;-0.0208;-0.0362;-0.0648
0000546671;6.1627;-15.6341;3.2777;-0.0148;-0.0254;-0.0725
0000546679;6.2297;-15.5671;3.2968;-0.0107;-0.0240;-0.0813
0000546690;6.1579;-15.6509;3.2082;-0.0040;-0.0120;-0.0814
0000546698;6.3542;-15.6341;3.2274;0.0000;-0.0037;-0.0863
0000546710;6.3805;-15.5886;3.2465;0.0004;0.0100;-0.0847
0000546718;6.3494;-15.4857;3.1891;0.0032;0.0116;-0.0878
0000546726;6.3111;-15.4450;3.2082;-0.0001;0.0193;-0.0881
0000546737;6.2896;-15.2798;3.1675;-0.0140;0.0290;-0.0950
0000546745;6.2249;-15.4641;3.1627;-0.0212;0.0322;-0.0949
0000546757;6.1627;-15.5647;3.1963;-0.0261;0.0394;-0.0981
0000546765;6.3231;-15.5432;3.1053;-0.0290;0.0436;-0.1006
0000546776;6.0334;-15.5719;3.1603;-0.0281;0.0460;-0.0883
0000546784;6.3710;-15.4450;3.1388;-0.0353;0.0552;-0.0758
0000546796;6.2177;-15.4833;3.0550;-0.0393;0.0621;-0.0678
0000546804;6.1435;-15.5240;3.1484;-0.0317;0.0549;-0.0803
0000546815;5.8514;-15.5264;3.2202;-0.0325;0.0544;-0.0818
0000546823;6.0573;-15.5120;3.1316;-0.0328;0.0498;-0.0887
0000546831;5.9256;-15.6557;3.1603;-0.0353;0.0457;-0.0974
0000546843;6.3398;-15.4139;3.1173;-0.0349;0.0429;-0.0882
0000546851;6.1244;-15.7155;3.1795;-0.0382;0.0448;-0.0754
0000546918;6.0334;-15.5312;3.0646;-0.0481;0.0866;-0.0857
0000546926;6.0430;-15.5072;3.0143;-0.0540;0.0725;-0.0906
0000546938;5.9448;-15.6078;3.0957;-0.0565;0.0634;-0.0807
0000546946;6.1890;-15.4881;3.0861;-0.0544;0.0590;-0.0769
0000546957;6.1244;-15.5599;3.0622;-0.0476;0.0433;-0.0771
0000546965;6.0262;-15.6844;3.0287;-0.0473;0.0370;-0.0753
0000546977;6.0023;-15.6653;3.0358;-0.0450;0.0268;-0.0703
0000546985;6.0956;-15.5432;3.0454;-0.0432;0.0159;-0.0683
0000546993;6.1363;-15.6389;3.0478;-0.0437;0.0132;-0.0618
0000547004;6.1818;-15.5408;3.0311;-0.0380;0.0035;-0.0573
0000547012;6.1507;-15.5168;2.9377;-0.0488;0.0032;-0.0510
0000547024;6.0501;-15.7012;3.0813;-0.0458;0.0053;-0.0437
0000547032;6.2441;-15.4522;3.0622;-0.0473;0.0051;-0.0425
0000547043;6.0621;-15.6700;3.0933;-0.0325;0.0009;-0.0437
0000547051;6.2177;-15.6892;3.1819;-0.0288;0.0031;-0.0434
0000547063;6.1890;-15.7562;3.1508;-0.0188;0.0019;-0.0409
0000547071;6.1746;-15.6102;3.2226;-0.0051;-0.0040;-0.0452
0000547082;6.2800;-15.6892;3.1915;0.0024;-0.0019;-0.0461
0000547090;5.9951;-15.6557;3.2417;0.0103;-0.0044;-0.0430
0000547098;6.1076;-15.6054;3.2513;0.0085;-0.0015;-0.0396
0000547110;6.1794;-15.4833;3.1675;0.0065;-0.0088;-0.0376
0000547118;6.2010;-15.3229;3.1723;-0.0063;-0.0099;-0.0345
0000547186;6.1483;-15.6030;3.0478;-0.0566;-0.0541;-0.0171
0000547194;6.1531;-15.5958;2.9999;-0.0482;-0.0642;-0.0140
0000547206;6.0885;-15.5456;3.0071;-0.0524;-0.0630;-0.0035
0000547214;6.0932;-15.6365;3.0358;-0.0568;-0.0733;-0.0059
0000547225;6.1435;-15.4043;3.0191;-0.0633;-0.0662;0.0073
0000547233;6.1076;-15.4522;3.0239;-0.0636;-0.0761;0.0053
0000547245;6.0382;-15.5815;3.0215;-0.0693;-0.0794;-0.0003
0000547253;6.2201;-15.4163;3.1244;-0.0659;-0.0850;-0.0017
0000547261;6.1244;-15.6246;3.0263;-0.0679;-0.0897;-0.0028
0000547272;6.3039;-15.6341;3.1292;-0.0725;-0.0942;-0.0005
0000547280;6.0310;-15.7754;3.0215;-0.0753;-0.0915;0.0041
0000547292;6.3015;-15.5671;2.9808;-0.0802;-0.0866;0.0095
0000547300;6.0262;-15.6988;3.0646;-0.0759;-0.1003;0.0047
0000547311;6.1890;-15.4522;3.1149;-0.0671;-0.0954;0.0151
0000547319;6.2130;-15.6892;3.0047;-0.0747;-0.1063;0.0100
0000547331;6.1651;-15.6820;3.0478;-0.0632;-0.1031;0.0160
0000547339;6.0717;-15.6677;3.0694;-0.0592;-0.0998;0.0176
0000547350;6.2225;-15.6557;3.1651;-0.0529;-0.1042;0.0201
0000547358;6.3063;-15.5575;3.1987;-0.0482;-0.1085;0.0201
0000547366;6.2728;-15.6653;3.1436;-0.0486;-0.1007;0.0201
0000547378;6.1986;-15.7084;3.2082;-0.0418;-0.1009;0.0183
0000547386;6.1507;-15.6293;3.1508;-0.0308;-0.1051;0.0085
0000547453;5.9879;-15.8807;3.1603;-0.0043;-0.1147;-0.0121
0000547461;6.3566;-15.5408;3.0957;-0.0049;-0.1140;-0.0032
0000547473;6.1435;-15.6605;3.0550;0.0004;-0.1114;-0.0040
0000547481;6.2082;-15.7299;3.0598;-0.0009;-0.1134;-0.0015
0000547492;6.2824;-15.6772;2.9975;0.0065;-0.1188;-0.0004
0000547500;6.1172;-15.7538;3.1149;0.0141;-0.1238;-0.0096
0000547512;6.3734;-15.6365;3.0885;0.0171;-0.1310;-0.0099
0000547520;6.2752;-15.7203;3.0598;0.0278;-0.1343;-0.0121
0000547528;6.3351;-15.7945;3.0694;0.0248;-0.1239;-0.0021
0000547539;6.4236;-15.6844;3.1029;0.0298;-0.1136;0.0065
0000547547;6.5362;-15.6317;3.1436;0.0294;-0.1009;0.0057
0000547559;6.4284;-15.5575;3.1053;0.0340;-0.0909;0.0009
0000547567;6.3063;-15.5791;3.1364;0.0328;-0.0909;-0.0085
0000547578;6.3159;-15.5025;3.1292;0.0373;-0.0875;-0.0117
0000547586;6.2513;-15.5096;3.1196;0.0289;-0.0806;-0.0185
0000547598;6.3925;-15.5360;3.1963;0.0260;-0.0710;-0.0195
0000547606;6.3686;-15.5096;3.1556;0.0286;-0.0703;-0.0237
0000547617;6.4596;-15.4163;3.1340;0.0350;-0.0625;-0.0163
0000547625;6.3159;-15.4857;3.2010;0.0400;-0.0569;-0.0245
0000547633;6.3614;-15.4115;3.1484;0.0396;-0.0620;-0.0269
0000547645;6.2824;-15.4833;3.0909;0.0312;-0.0661;-0.0269
0000547653;6.3805;-15.5623;3.1053;0.0189;-0.0553;-0.0167
0000547721;6.0094;-15.5456;3.1675;0.0119;-0.0566;-0.0088
0000547729;6.0765;-15.5192;3.1939;0.0048;-0.0633;-0.0127
0000547740;6.3231;-15.4833;3.1436;-0.0001;-0.0588;-0.0107
0000547748;6.3231;-15.4450;3.2681;0.0067;-0.0694;-0.0125
0000547760;6.2584;-15.4809;3.1627;0.0021;-0.0667;-0.0137
0000547768;6.3686;-15.5432;3.1651;0.0021;-0.0632;-0.0148
0000547779;6.2560;-15.5264;3.2226;0.0081;-0.0620;-0.0193
0000547787;6.3207;-15.7084;3.1915;0.0001;-0.0508;-0.0121
0000547795;6.4284;-15.6772;3.1963;0.0008;-0.0485;-0.0132
0000547807;6.3877;-15.6461;3.1316;0.0025;-0.0432;-0.0156
0000547815;6.2249;-15.6030;3.1867;0.0044;-0.0390;-0.0128
0000547826;6.4332;-15.5456;3.0957;0.0165;-0.0485;-0.0177
0000547834;6.3111;-15.6222;3.2585;0.0125;-0.0440;-0.0173
0000547846;6.3470;-15.5527;3.2561;0.0195;-0.0420;-0.0252
0000547854;6.1723;-15.6174;3.1843;0.0160;-0.0410;-0.0208
0000547865;6.2920;-15.5599;3.1867;0.0218;-0.0405;-0.0171
0000547873;6.3925;-15.4641;3.2082;0.0203;-0.0365;-0.0155
0000547885;6.2920;-15.4402;3.2561;0.0234;-0.0297;-0.0109
0000547893;6.3686;-15.6102;3.2609;0.0281;-0.0394;-0.0091
0000547901;6.4715;-15.4234;3.3208;0.0246;-0.0402;-0.0128
0000547913;6.4356;-15.4594;3.2657;0.0237;-0.0428;-0.0139
0000547921;6.1770;-15.5001;3.3064;0.0225;-0.0397;-0.0105
0000547989;6.3614;-15.3397;3.2010;-0.0144;-0.0366;0.0007
0000547997;6.2321;-15.4641;3.1771;-0.0069;-0.0500;-0.0036
0000548008;6.2896;-15.4785;3.1747;-0.0087;-0.0498;-0.0035
0000548016;6.2465;-15.5264;3.1412;-0.0124;-0.0538;-0.0047
0000548028;6.2848;-15.5049;3.2441;-0.0089;-0.0542;-0.0012
0000548036;6.3375;-15.5671;3.1915;-0.0073;-0.0592;-0.0052
0000548047;6.2345;-15.5934;3.2705;-0.0169;-0.0542;0.0057
0000548055;6.4835;-15.4665;3.2729;-0.0101;-0.0606;0.0015
0000548063;6.2584;-15.6341;3.2202;-0.0135;-0.0500;0.0047
0000548075;6.1770;-15.7108;3.2417;-0.0064;-0.0505;-0.0009
0000548083;6.3398;-15.4905;3.2777;0.0008;-0.0477;-0.0033
0000548094;6.1675;-15.6150;3.3040;-0.0055;-0.0424;-0.0085
0000548102;6.1794;-15.6270;3.2585;0.0011;-0.0501;-0.0139
0000548114;6.2968;-15.5216;3.2896;0.0045;-0.0509;-0.0097
0000548122;6.4691;-15.5360;3.2417;0.0020;-0.0478;-0.0073
0000548133;6.3255;-15.4522;3.2322;0.0021;-0.0506;-0.0131
0000548141;6.3734;-15.3827;3.2992;0.0096;-0.0524;-0.0136
0000548153;6.1028;-15.5144;3.1939;0.0019;-0.0458;-0.0105
0000548161;6.2752;-15.3684;3.1843;-0.0049;-0.0534;-0.0120
0000548169;6.3782;-15.3660;3.1795;-0.0088;-0.0552;-0.0119
0000548181;6.2728;-15.5863;3.2058;-0.0151;-0.0610;-0.0031
0000548189;6.2944;-15.4043;3.1484;-0.0151;-0.0699;-0.0019
0000548257;6.2584;-15.6485;3.2825;-0.0101;-0.0718;0.0155
0000548265;6.4141;-15.5432;3.2872;-0.0001;-0.0693;0.0095
0000548276;6.2608;-15.5527;3.2777;0.0088;-0.0733;0.0079
0000548284;6.2728;-15.4881;3.2944;0.0011;-0.0662;0.0131
0000548296;6.2273;-15.5144;3.3303;0.0007;-0.0621;0.0153
0000548304;6.1818;-15.5001;3.3184;-0.0057;-0.0642;0.0109
0000548315;6.3231;-15.3253;3.2346;-0.0103;-0.0702;0.0132
0000548323;6.1028;-15.4785;3.2585;-0.0155;-0.0657;0.0135
0000548331;6.0980;-15.3540;3.2681;-0.0169;-0.0737;0.0112
0000548343;6.1866;-15.5671;3.3495;-0.0183;-0.0754;0.0139
0000548351;6.3231;-15.4618;3.2896;-0.0172;-0.0729;0.0181
0000548362;6.2776;-15.5240;3.3136;-0.0189;-0.0773;0.0171
0000548370;6.2991;-15.3947;3.2250;-0.0298;-0.0735;0.0280
0000548382;6.3231;-15.3181;3.3064;-0.0337;-0.0666;0.0224
0000548390;6.3015;-15.4474;3.2130;-0.0364;-0.0743;0.0147
0000548401;6.3039;-15.4761;3.3495;-0.0405;-0.0685;0.0209
0000548409;6.1387;-15.6006;3.3112;-0.0389;-0.0659;0.0221
0000548421;6.4093;-15.4594;3.2585;-0.0353;-0.0608;0.0261
0000548429;6.3901;-15.6198;3.2250;-0.0370;-0.0588;0.0236
0000548437;6.1435;-15.6605;3.3088;-0.0326;-0.0602;0.0274
0000548449;6.0813;-15.7586;3.2753;-0.0282;-0.0601;0.0250
0000548457;6.3494;-15.4641;3.2034;-0.0215;-0.0682;0.0216
0000548523;6.2896;-15.3971;3.2513;-0.0309;-0.0510;0.0121
0000548531;6.5362;-15.2942;3.2657;-0.0381;-0.0340;0.0145
0000548542;6.1866;-15.5312;3.1771;-0.0424;-0.0309;0.0072
0000548550;6.3279;-15.5815;3.1987;-0.0381;-0.0312;-0.0032
0000548562;6.1770;-15.5695;3.3232;-0.0296;-0.0418;-0.0143
0000548570;6.2896;-15.5120;3.2394;-0.0191;-0.0464;-0.0184
0000548581;6.2010;-15.5312;3.2226;-0.0136;-0.0501;-0.0196
0000548589;6.0166;-15.7347;3.2178;-0.0064;-0.0520;-0.0211
0000548597;6.1890;-15.7203;3.2801;-0.0112;-0.0493;-0.0163
0000548609;6.1220;-15.5288;3.2298;-0.0064;-0.0504;-0.0257
0000548617;6.2225;-15.6246;3.2441;-0.0119;-0.0432;-0.0207
0000548628;6.1890;-15.6198;3.2417;-0.0169;-0.0372;-0.0224
0000548636;6.4308;-15.4043;3.2633;-0.0179;-0.0393;-0.0258
0000548648;6.3877;-15.5647;3.2657;-0.0229;-0.0321;-0.0249
0000548656;6.1411;-15.5767;3.2489;-0.0242;-0.0230;-0.0203
0000548667;6.0645;-15.5120;3.1867;-0.0180;-0.0270;-0.0290
0000548675;6.2441;-15.3564;3.1939;-0.0220;-0.0232;-0.0256
0000548687;6.0669;-15.4354;3.1867;-0.0212;-0.0272;-0.0390
0000548695;6.0645;-15.4833;3.1771;-0.0218;-0.0345;-0.0417
0000548707;6.0885;-15.6078;3.2657;-0.0208;-0.0465;-0.0397
0000548715;6.1651;-15.6198;3.2465;-0.0189;-0.0461;-0.0310
0000548723;6.2321;-15.5623;3.2370;-0.0240;-0.0406;-0.0232
0000548789;6.4500;-15.3995;3.2130;-0.0362;-0.0386;-0.0189
0000548797;6.1459;-15.6078;3.1244;-0.0353;-0.0425;-0.0169
0000548808;6.2321;-15.6102;3.3423;-0.0384;-0.0358;-0.0101
0000548816;6.1411;-15.7323;3.2633;-0.0297;-0.0429;-0.0135
0000548828;6.1196;-15.7299;3.2250;-0.0258;-0.0470;-0.0115
0000548836;6.2560;-15.5288;3.2609;-0.0236;-0.0480;-0.0069
0000548847;6.0813;-15.5863;3.2465;-0.0205;-0.0533;-0.0132
0000548855;6.1363;-15.6006;3.2154;-0.0282;-0.0488;-0.0101
0000548867;6.2010;-15.4977;3.1891;-0.0286;-0.0574;-0.0072
0000548875;6.3734;-15.3468;3.2346;-0.0380;-0.0548;-0.0072
0000548886;6.3015;-15.4498;3.2298;-0.0361;-0.0510;-0.0041
0000548894;6.3063;-15.4282;3.1580;-0.0354;-0.0604;-0.0111
0000548902;6.2249;-15.4258;3.2417;-0.0384;-0.0508;-0.0121
0000548914;6.0238;-15.5288;3.2968;-0.0389;-0.0557;-0.0169
0000548922;6.2704;-15.5982;3.2250;-0.0325;-0.0597;-0.0260
0000548933;6.2273;-15.5599;3.0909;-0.0364;-0.0618;-0.0273
0000548941;6.2968;-15.5264;3.2058;-0.0252;-0.0706;-0.0330
0000548953;6.1196;-15.7419;3.2202;-0.0286;-0.0653;-0.0276
0000548961;6.4428;-15.6533;3.2322;-0.0244;-0.0655;-0.0249
0000548973;6.3901;-15.5551;3.1532;-0.0149;-0.0608;-0.0208
0000548981;6.3782;-15.5575;3.2154;-0.0144;-0.0661;-0.0324
0000549047;6.2776;-15.3253;3.1987;-0.0165;-0.0811;-0.0449
0000549055;6.4308;-15.4881;3.2202;-0.0482;-0.0715;-0.0334
0000549067;6.3829;-15.6509;3.2753;-0.0270;-0.0694;-0.0240
0000549075;6.3398;-15.8305;3.1843;-0.0187;-0.0714;-0.0260
0000549083;6.2321;-15.7586;3.3208;-0.0236;-0.0588;-0.0192
0000549094;6.4452;-15.5312;3.2250;-0.0144;-0.0605;-0.0254
0000549102;6.3997;-15.5479;3.2585;-0.0220;-0.0508;-0.0277
0000549114;6.1794;-15.6126;3.2777;-0.0249;-0.0424;-0.0282
0000549122;6.3398;-15.4378;3.1939;-0.0268;-0.0428;-0.0278
0000549133;6.2321;-15.5839;3.2585;-0.0253;-0.0382;-0.0309
0000549141;6.3829;-15.4737;3.2561;-0.0196;-0.0428;-0.0408
0000549153;6.4332;-15.3708;3.1771;-0.0093;-0.0420;-0.0441
0000549161;6.2153;-15.4785;3.1005;-0.0175;-0.0376;-0.0429
0000549172;6.1627;-15.5408;3.2010;-0.0108;-0.0396;-0.0524
0000549180;6.4021;-15.4258;3.2154;-0.0226;-0.0313;-0.0444
0000549192;6.2944;-15.4737;3.1987;-0.0288;-0.0357;-0.0509
0000549200;6.2704;-15.4689;3.0837;-0.0298;-0.0356;-0.0544
0000549208;6.2848;-15.5432;3.1316;-0.0410;-0.0298;-0.0493
0000549219;6.2058;-15.4234;3.1627;-0.0390;-0.0425;-0.0628
0000549227;6.2656;-15.4330;3.1508;-0.0476;-0.0480;-0.0538
0000549239;6.2680;-15.5767;3.0861;-0.0468;-0.0549;-0.0613
0000549247;6.2560;-15.4737;3.0909;-0.0554;-0.0564;-0.0618
0000549310;6.1675;-15.4665;3.1244;-0.0598;-0.1348;-0.0738
0000549318;6.3159;-15.3995;3.1029;-0.0654;-0.1383;-0.0636
0000549330;6.3159;-15.2128;3.0167;-0.0673;-0.1438;-0.0667
0000549338;6.1866;-15.3827;3.0358;-0.0734;-0.1504;-0.0713
0000549349;6.2441;-15.3061;2.9664;-0.0805;-0.1515;-0.0762
0000549357;6.2824;-15.2918;3.0646;-0.0786;-0.1539;-0.0761
0000549365;6.1555;-15.3325;3.0119;-0.0917;-0.1492;-0.0749
0000549377;6.2201;-15.4929;3.0358;-0.0954;-0.1612;-0.0834
0000549385;6.3279;-15.4426;2.9856;-0.0938;-0.1633;-0.0838
0000549396;6.2177;-15.5551;3.0095;-0.0974;-0.1636;-0.0866
0000549404;6.3518;-15.4522;3.0813;-0.1026;-0.1643;-0.0827
0000549416;6.2321;-15.6557;3.0526;-0.0981;-0.1637;-0.0807
0000549424;6.3255;-15.7491;3.0574;-0.0987;-0.1648;-0.0818
0000549435;6.4332;-15.6341;3.0742;-0.0899;-0.1676;-0.0861
0000549443;6.4667;-15.6006;3.0765;-0.0847;-0.1668;-0.0863
0000549455;6.3638;-15.6796;3.1077;-0.0795;-0.1663;-0.0922
0000549463;6.3183;-15.6509;3.1101;-0.0854;-0.1595;-0.0889
0000549474;6.4404;-15.4809;3.0765;-0.0862;-0.1597;-0.0942
0000549482;6.4069;-15.3684;3.0574;-0.0897;-0.1595;-0.1007
0000549490;6.3710;-15.3564;2.9951;-0.0945;-0.1644;-0.1114
0000549502;6.3782;-15.4570;3.0550;-0.1059;-0.1604;-0.1171
0000549510;6.3734;-15.4546;2.9808;-0.1055;-0.1599;-0.1238
0000549574;6.2920;-15.5049;3.0406;-0.1202;-0.1705;-0.1647
0000549582;6.3518;-15.5168;2.8898;-0.1196;-0.1783;-0.1672
0000549594;6.3901;-15.5120;2.9544;-0.1206;-0.1848;-0.1789
0000549602;6.4189;-15.3684;2.8515;-0.1195;-0.1927;-0.1962
0000549613;6.3542;-15.4211;3.0023;-0.1303;-0.2000;-0.1976
0000549621;6.3758;-15.3780;2.9042;-0.1348;-0.2114;-0.2117
0000549633;6.2560;-15.5503;2.7557;-0.1559;-0.2168;-0.2129
0000549641;6.1459;-15.6054;2.9161;-0.1672;-0.2302;-0.2216
0000549652;6.4428;-15.4402;2.9113;-0.1829;-0.2435;-0.2262
0000549660;6.3877;-15.5527;2.7581;-0.1931;-0.2525;-0.2168
0000549668;6.2441;-15.5886;2.8252;-0.1947;-0.2645;-0.2113
0000549680;6.2297;-15.7155;2.7031;-0.1980;-0.2846;-0.2108
0000549688;6.2249;-15.9430;2.6863;-0.1920;-0.2858;-0.2112
0000549699;6.1292;-16.0507;2.6336;-0.1721;-0.3050;-0.2365
0000549707;6.1866;-15.8951;2.6217;-0.1587;-0.3104;-0.2395
0000549719;6.0334;-15.9789;2.7150;-0.1392;-0.3327;-0.2614
0000549727;6.2345;-15.8257;2.7701;-0.1498;-0.3331;-0.2655
0000549738;5.9999;-15.6174;2.7438;-0.1572;-0.3404;-0.2689
0000549746;6.3303;-15.3085;2.7150;-0.1676;-0.3451;-0.2721
0000549758;6.4165;-15.1266;2.6863;-0.1833;-0.3545;-0.2783
0000549766;6.1962;-15.2702;2.7270;-0.2008;-0.3525;-0.2774
0000549829;6.2249;-15.0452;2.8898;-0.3345;-0.4568;-0.3385
0000549837;6.2082;-15.0308;3.0670;-0.3329;-0.4627;-0.3412
0000549845;6.3398;-15.1577;3.1987;-0.3316;-0.4786;-0.3541
0000549857;6.5864;-14.9183;3.1795;-0.3291;-0.4784;-0.3675
0000549865;6.9001;-14.7387;3.1603;-0.3336;-0.4742;-0.3846
0000549876;6.8905;-14.7028;3.2274;-0.3413;-0.4487;-0.4041
0000549884;7.0126;-14.6381;3.4572;-0.3230;-0.4382;-0.4293
0000549896;7.3023;-14.5615;3.5027;-0.2858;-0.3957;-0.4839
0000549904;7.5082;-14.4969;3.7182;-0.2405;-0.3484;-0.5056
0000549915;7.6662;-14.0085;3.4644;-0.1640;-0.2690;-0.5450
0000549923;7.6591;-13.6326;3.2920;-0.1170;-0.1915;-0.5756
0000549935;7.1084;-13.3094;3.0742;0.0008;-0.0442;-0.6075
0000549943;6.5769;-13.3285;2.6719;0.1223;0.0934;-0.6109
0000549954;6.1986;-13.0676;2.0901;0.3611;0.2914;-0.6119
0000549962;6.0214;-12.9598;2.0782;0.5774;0.4353;-0.6197
0000549970;5.7557;-13.1011;1.8340;0.8685;0.6083;-0.6483
0000549982;6.4380;-12.7180;1.0008;1.2875;0.8470;-0.7408
0000549990;7.1658;-11.8010;0.8715;1.5319;0.9820;-0.8641
0000550001;8.2337;-9.6558;1.0439;1.7701;1.1302;-1.0932
0000550009;8.3318;-8.3079;1.4030;1.8667;1.1627;-1.2501
0000550021;8.0756;-6.3351;1.3384;1.9219;1.1377;-1.4123
0000550029;7.5824;-5.5402;0.9481;1.8780;1.0852;-1.4537
0000550037;6.8977;-5.0494;0.5148;1.8427;0.9896;-1.4730
0000550100;5.1930;-5.6671;0.0120;1.5889;0.0356;-0.9737
0000550108;5.2361;-5.5665;0.0072;1.4743;0.0061;-0.8763
0000550120;4.8722;-5.8155;-0.0168;1.3584;-0.0429;-0.7153
0000550128;4.6160;-5.9951;0.0168;1.2822;-0.1035;-0.5971
0000550139;4.1132;-6.4069;-0.0311;1.1989;-0.2810;-0.3790
0000550147;3.7757;-7.0270;0.2825;1.0793;-0.4619;-0.1964
0000550159;3.8978;-8.7101;0.2777;0.5991;-0.7961;0.0881
0000550167;3.9480;-9.2680;0.6393;0.2169;-0.9361;0.2261
0000550175;4.0965;-10.0341;1.8699;-0.0825;-0.9663;0.3408
0000550186;4.3455;-11.4443;5.7006;-0.3652;-0.9807;0.4191
0000550194;5.2265;-12.6438;8.1547;-0.5002;-1.0433;0.4289
0000550206;6.5098;-14.4825;6.9911;-0.4624;-1.1065;0.3576
0000550214;7.1611;-15.4187;4.1994;-0.4044;-1.1056;0.2378
0000550225;7.7716;-16.0507;2.0997;-0.5706;-1.1141;-0.0461
0000550233;8.3629;-16.5751;2.3870;-0.8170;-1.1299;-0.2892
0000550245;9.3757;-17.8799;4.5610;-1.1816;-1.2758;-0.6991
0000550253;10.0916;-18.9405;5.6072;-1.3503;-1.3298;-0.9755
0000550265;10.5512;-20.2358;4.9632;-1.4971;-1.3241;-1.3547
0000550273;10.7595;-21.0833;4.5466;-1.5888;-1.3326;-1.5909
0000550285;11.1091;-20.9708;4.5801;-1.4926;-1.3599;-1.9729
0000550293;10.2975;-19.7043;3.8547;-1.2568;-1.3889;-2.2046
0000550301;9.9790;-17.8560;2.8036;-1.2117;-1.4337;-2.4148
0000550367;20.5830;-13.7954;14.1138;-2.6428;-2.7865;-3.3713
0000550375;22.7162;-16.8360;12.2799;-3.4995;-3.8664;-3.4271
0000550387;28.1678;-26.2357;-6.1316;-4.3657;-4.3023;-4.3657
0000550395;39.2242;-33.4949;-11.4682;-4.3657;-4.1711;-4.3657
0000550407;53.8959;-38.9010;1.4676;-3.3430;-4.1573;-4.3657
0000550415;60.1016;-42.0398;7.4508;-1.9032;-2.6330;-4.3657
0000550427;50.1178;-31.7519;5.5641;0.5938;0.1966;-4.3657
0000550435;30.8110;-21.1145;2.4229;1.3205;1.4783;-4.3657
0000550447;17.9876;-12.8162;-0.6680;0.7646;2.2503;-4.1280
0000550455;12.9359;-10.7476;-1.4102;0.1214;2.5059;-4.0304
0000550467;7.1874;-9.4164;-0.7590;-0.2610;2.2143;-3.8073
0000550475;4.9775;-9.8043;-3.8283;-0.1452;1.7477;-3.3881
0000550487;3.9289;-10.3813;-7.2257;0.0137;0.8455;-2.3209
0000550495;2.0710;-9.8090;-5.8634;-0.1065;0.1166;-1.5270
0000550503;0.4669;-7.5944;-2.9904;-0.1719;-0.6491;-0.9995
0000550515;-0.5100;-4.1132;0.1580;0.1970;-1.7011;-1.2177
0000550523;-1.0511;-2.6408;0.7135;0.5039;-2.2056;-1.8002
0000550535;-1.1923;-1.6616;-0.0646;0.9008;-2.9260;-2.8913
0000550543;-1.8651;-1.0511;-0.8356;0.9116;-3.3580;-3.6179
0000550610;74.4381;-1.5203;-21.7729;2.6119;-4.3657;-3.9103
0000550618;40.6368;-2.7102;-38.9441;4.2000;-3.5769;-3.0497
0000550630;16.7953;16.1178;-15.4234;3.1756;-0.3583;0.9498
0000550638;12.8760;22.0721;-10.5129;0.8139;0.8541;1.4807
0000550650;11.6047;9.7013;-16.4242;-1.1827;1.4579;2.1890
0000550658;13.4458;3.4261;-13.0771;-2.2613;1.7976;2.3565
0000550666;16.9509;-0.5076;-8.7532;-2.8177;1.9133;2.3943
0000550678;14.6573;-3.3758;-5.9735;-3.2366;2.0535;2.4829
0000550686;13.1106;-4.8530;-5.3774;-3.3697;1.8981;2.5017
0000550698;11.5903;-6.0023;-3.4165;-3.4511;1.5030;2.3240
0000550706;11.5616;-6.2393;-3.2250;-3.5317;1.3326;2.0392
0000550718;9.8689;-8.0637;-1.0343;-3.6252;0.9282;1.1930
0000550726;8.9399;-8.6646;-0.5602;-3.4817;0.5329;0.5445
0000550738;8.4827;-10.3501;0.3974;-3.1227;0.0969;-0.2395
0000550746;8.6167;-11.2360;0.6440;-2.7356;-0.0590;-0.5756
0000550758;9.7492;-12.5480;0.9433;-2.0159;-0.0417;-0.6061
0000550766;11.2839;-12.9981;0.8835;-1.5616;0.0566;-0.3734
0000550774;14.1689;-12.8042;0.5411;-1.0741;0.1176;-0.0981
0000550786;20.5470;-11.5257;-0.7805;-0.2194;-0.0981;-0.0746
0000550794;25.7784;-9.9647;-0.8882;0.2964;-0.2774;-0.3492
0000550806;28.7807;-7.9942;-3.0478;0.6342;-0.5565;-0.6873
0000550814;23.5996;-7.2544;-5.2816;0.5084;-0.5826;-0.8903
0000550882;18.3707;-1.1492;-5.7078;-0.1059;1.1151;0.8002
0000550890;18.0499;-1.7669;-5.1308;-0.5534;1.2553;0.7947
0000550902;18.0619;-3.1771;-4.8650;-1.1020;1.5150;0.7285
0000550910;18.1241;-4.1851;-4.9536;-1.3231;1.7150;0.6237
0000550922;18.5862;-5.2026;-4.1420;-1.6485;1.9129;0.5117
0000550930;18.7083;-5.7509;-3.7230;-1.8009;2.0213;0.4992
0000550942;18.3683;-6.9599;-3.4069;-1.8317;2.0879;0.5240
0000550950;17.7769;-7.7596;-2.9353;-1.7964;2.0197;0.5139
0000550958;16.8432;-8.2265;-2.2362;-1.7640;1.8574;0.4843
0000550970;15.4594;-9.1506;-2.0159;-1.6166;1.6269;0.4257
0000550978;14.4514;-9.5193;-1.2641;-1.4874;1.5404;0.3796
0000550990;14.0588;-9.1387;-0.0168;-1.2618;1.4614;0.3401
0000550998;14.5304;-8.6838;0.6823;-1.0560;1.4274;0.3095
0000551010;16.6804;-7.5992;2.7461;-0.9077;1.6245;0.2659
0000551018;17.1592;-7.8338;1.7071;-0.7120;1.8586;0.1924
0000551030;17.1305;-8.4036;0.6105;-0.3095;2.1988;-0.0361
0000551038;17.1880;-8.3486;1.0032;-0.2685;2.2200;-0.2064
0000551046;17.4920;-7.9272;1.2617;-0.2651;2.0339;-0.3428
0000551057;17.4465;-7.3622;2.7725;-0.2521;1.4938;-0.4518
0000551065;16.0603;-7.8817;2.2314;-0.1037;1.1591;-0.5509
0000551077;9.5193;-9.2201;1.9273;0.0681;1.0116;-0.6127
0000551085;7.2329;-8.7795;2.2601;0.2236;0.7518;-0.4509
0000551153;17.9326;-7.5489;0.5315;0.2834;-0.1524;0.3653
0000551161;18.7562;-7.1946;0.6728;0.0878;-0.1462;0.2518
0000551173;20.3076;-6.9647;1.5323;0.0532;-0.1595;0.1947
0000551181;21.1336;-6.9097;1.8579;0.1061;-0.1813;0.1867
0000551189;21.4257;-6.5649;2.2984;0.2001;-0.1851;0.1427
0000551201;18.8615;-5.8873;3.0502;0.2793;-0.1031;0.0133
0000551209;16.3739;-5.7197;2.9832;0.2805;-0.0262;-0.0600
0000551221;13.8385;-6.3015;2.3750;0.2750;-0.0725;-0.0995
0000551229;13.1609;-6.6032;2.3176;0.2426;-0.1557;-0.1063
0000551241;12.8281;-6.8546;2.4397;0.1575;-0.2803;-0.0967
0000551249;13.1633;-6.9528;2.6719;0.1360;-0.3702;-0.0750
0000551261;14.2742;-7.1611;2.7581;0.2069;-0.5105;-0.0462
0000551269;15.0547;-6.9623;2.4804;0.3164;-0.5965;-0.0230
0000551281;16.0052;-6.5146;2.2338;0.4357;-0.6648;0.0273
0000551289;16.0459;-6.3183;1.7047;0.4541;-0.6731;0.0678
0000551297;16.0603;-6.3398;1.5874;0.4771;-0.6783;0.0831
0000551310;16.6110;-5.8083;1.1779;0.4842;-0.6376;0.0973
0000551319;16.9246;-5.8514;0.7638;0.4843;-0.5966;0.1106
0000551332;17.4370;-5.7174;0.4118;0.4776;-0.5573;0.1420
0000551341;17.6429;-5.4660;0.2274;0.4366;-0.5393;0.1752
0000551354;17.8967;-5.1427;0.0694;0.3163;-0.5263;0.2221
0000551363;17.7554;-5.1906;-0.1341;0.2192;-0.5203;0.2575
0000551432;16.7786;-6.9121;0.0670;-0.4287;-0.2834;0.2976
0000551441;16.7259;-7.1898;0.1604;-0.4112;-0.2535;0.2895
0000551450;16.6421;-7.5561;0.1604;-0.3684;-0.2264;0.2595
0000551463;16.7522;-8.1187;0.2179;-0.2856;-0.2036;0.1992
0000551472;16.7187;-8.0302;0.2801;-0.2101;-0.1998;0.1463
0000551485;16.7546;-8.1977;0.1844;-0.0733;-0.1841;0.0867
0000551494;16.5775;-8.2696;0.1460;0.0306;-0.1708;0.0440
0000551507;16.8288;-7.8290;-0.0263;0.1547;-0.1427;-0.0084
0000551516;16.8241;-7.5417;-0.1245;0.2090;-0.1326;-0.0354
0000551529;16.5535;-7.3023;-0.0215;0.2489;-0.0990;-0.0743
0000551538;16.6373;-7.1515;-0.0407;0.2527;-0.0741;-0.0942
0000551551;16.5679;-7.0222;-0.1125;0.2535;-0.0414;-0.1131
0000551560;16.6804;-7.0054;0.0192;0.2615;-0.0224;-0.1276
0000551569;16.5703;-6.9049;-0.0287;0.2539;-0.0007;-0.1235
0000551582;16.7067;-6.6702;0.0599;0.2435;0.0167;-0.1260
0000551591;16.5415;-6.6942;0.1030;0.2184;0.0337;-0.1099
0000551604;16.4697;-6.6008;0.2155;0.1685;0.0496;-0.0971
0000551613;16.8001;-6.3638;0.1963;0.1270;0.0506;-0.0965
0000551626;16.6373;-6.4787;0.1652;0.0561;0.0693;-0.0845
0000551635;16.5344;-6.5505;0.1772;0.0232;0.0767;-0.0831
0000551648;16.4553;-6.8067;0.4094;0.0012;0.0787;-0.0822
0000551657;16.5320;-6.8019;0.4166;0.0177;0.0710;-0.0925
0000551726;16.2590;-6.4284;0.4094;0.0236;0.0609;-0.0502
0000551735;16.2830;-6.6056;0.4812;0.0165;0.0454;-0.0370
0000551744;16.2566;-6.4380;0.4597;-0.0071;0.0406;-0.0180
0000551757;16.5008;-6.5146;0.5219;-0.0211;0.0249;-0.0016
0000551766;16.3955;-6.8067;0.5028;-0.0209;0.0161;0.0040
0000551782;16.5128;-6.7756;0.5291;-0.0201;0.0069;0.0031
0000551791;16.4553;-6.7277;0.4956;-0.0127;0.0072;0.0041
0000551804;16.2901;-7.0126;0.4908;-0.0103;-0.0007;0.0017
0000551813;16.3596;-6.7612;0.6321;-0.0063;-0.0084;-0.0057
0000551825;16.4338;-6.7852;0.5818;-0.0100;-0.0143;-0.0065
0000551834;16.1417;-7.0294;0.5052;-0.0005;-0.0322;-0.0175
0000551843;16.2040;-6.9863;0.5722;-0.0060;-0.0305;-0.0191
0000551856;16.1537;-6.9791;0.5315;-0.0027;-0.0456;-0.0238
0000551865;16.3931;-6.8163;0.5291;0.0131;-0.0581;-0.0326
0000551877;16.2710;-6.8235;0.5914;0.0148;-0.0670;-0.0368
0000551886;16.2423;-6.7157;0.4764;0.0228;-0.0746;-0.0424
0000551899;16.3811;-6.7564;0.3950;0.0224;-0.0707;-0.0338
0000551908;16.2686;-6.7612;0.4429;0.0212;-0.0755;-0.0369
0000551920;16.4170;-6.6679;0.1628;0.0167;-0.0641;-0.0286
0000551929;16.6086;-6.6798;0.3879;0.0092;-0.0588;-0.0177
0000551998;16.5918;-6.6200;0.4525;-0.0039;0.0013;-0.0265
0000552007;16.5080;-6.6128;0.4836;-0.0035;-0.0067;-0.0296
0000552016;16.3716;-6.6559;0.4190;-0.0181;-0.0037;-0.0183
0000552028;16.3309;-6.6679;0.3926;-0.0237;-0.0095;-0.0088
0000552037;16.5224;-6.5793;0.4238;-0.0266;-0.0056;-0.0027
0000552050;16.4817;-6.6487;0.3783;-0.0421;-0.0063;0.0033
0000552059;16.5104;-6.6583;0.4717;-0.0378;-0.0101;0.0060
0000552071;16.3021;-6.8307;0.4956;-0.0332;-0.0132;0.0013
0000552080;16.3045;-6.8929;0.4405;-0.0353;-0.0105;0.0035
0000552093;16.3021;-6.7947;0.5363;-0.0280;-0.0168;-0.0016
0000552102;16.3213;-6.8378;0.4645;-0.0183;-0.0217;-0.0052
0000552114;16.3596;-6.7373;0.4525;-0.0085;-0.0316;-0.0112
0000552123;16.6277;-6.5410;0.5171;-0.0119;-0.0278;-0.0024
0000552136;16.4530;-6.5625;0.5339;-0.0151;-0.0334;-0.0009
0000552145;16.3644;-6.6535;0.5052;-0.0199;-0.0457;-0.0005
0000552154;16.4410;-6.7564;0.4597;-0.0277;-0.0460;0.0028
0000552166;16.4338;-6.8618;0.5459;-0.0280;-0.0489;-0.0012
0000552175;16.4314;-6.7900;0.5435;-0.0305;-0.0410;0.0048
0000552188;16.2878;-6.8331;0.5267;-0.0208;-0.0529;0.0016
0000552197;16.3309;-6.8905;0.4405;-0.0218;-0.0528;-0.0009
0000552209;16.3596;-6.8474;0.5148;-0.0180;-0.0520;-0.0008
0000552218;16.3548;-6.9623;0.3998;-0.0105;-0.0616;-0.0091
0000552287;16.5511;-6.6870;0.3663;-0.0005;-0.0478;-0.0073
0000552296;16.5200;-6.6870;0.3208;-0.0025;-0.0472;-0.0041
0000552308;16.4913;-6.7397;0.4238;-0.0069;-0.0386;0.0028
0000552317;16.5152;-6.6535;0.4453;-0.0029;-0.0388;-0.0011
0000552326;16.4338;-6.7564;0.3711;-0.0109;-0.0370;0.0003
0000552339;16.2734;-6.9288;0.4190;-0.0116;-0.0341;-0.0007
0000552348;16.5128;-6.7205;0.3855;-0.0104;-0.0384;-0.0027
0000552360;16.4530;-6.7636;0.4980;-0.0101;-0.0356;-0.0016
0000552369;16.2183;-6.9456;0.4573;-0.0009;-0.0437;-0.0089
0000552382;16.3285;-6.7445;0.4453;-0.0096;-0.0406;-0.0056
0000552391;16.3644;-6.7229;0.4932;-0.0032;-0.0496;-0.0112
0000552403;16.5200;-6.7109;0.4549;-0.0007;-0.0485;-0.0073
0000552412;16.3548;-6.7971;0.4501;-0.0037;-0.0454;-0.0028
0000552425;16.3596;-6.8546;0.4980;-0.0149;-0.0480;-0.0020
0000552434;16.5008;-6.7660;0.3496;-0.0151;-0.0500;-0.0063
0000552446;16.5152;-6.7038;0.3807;-0.0115;-0.0482;-0.0084
0000552455;16.2686;-7.0126;0.5267;-0.0076;-0.0450;-0.0195
0000552464;16.3716;-6.8259;0.3783;0.0017;-0.0424;-0.0137
0000552477;16.2111;-6.8594;0.5219;0.0089;-0.0450;-0.0109
0000552486;16.4266;-6.6822;0.4094;0.0111;-0.0529;-0.0211
0000552498;16.4338;-6.7301;0.4525;0.0028;-0.0488;-0.0132
0000552507;16.3332;-6.6966;0.4214;0.0029;-0.0564;-0.0136
0000552576;16.4553;-6.8091;0.4908;-0.0048;-0.0456;-0.0123
0000552585;16.5535;-6.7900;0.4094;-0.0043;-0.0393;-0.0093
0000552597;16.4577;-6.6798;0.3998;-0.0080;-0.0401;-0.0113
0000552606;16.3285;-6.8857;0.5243;-0.0057;-0.0364;-0.0099
0000552619;16.4170;-6.8498;0.4334;-0.0072;-0.0393;-0.0057
0000552628;16.4218;-6.7804;0.5076;-0.0060;-0.0414;-0.0123
0000552637;16.3572;-6.8211;0.4429;-0.0029;-0.0433;-0.0099
0000552649;16.4841;-6.7660;0.4812;-0.0008;-0.0466;-0.0127
0000552658;16.4075;-6.7780;0.3759;-0.0079;-0.0393;-0.0040
0000552671;16.4865;-6.8642;0.4070;-0.0055;-0.0434;-0.0075
0000552680;16.5080;-6.7493;0.4238;-0.0077;-0.0414;-0.0071
0000552692;16.2447;-7.0030;0.4094;-0.0077;-0.0405;-0.0111
0000552701;16.4865;-6.7205;0.3855;-0.0081;-0.0448;-0.0136
0000552714;16.3069;-6.8714;0.2993;-0.0064;-0.0489;-0.0157
0000552723;16.2710;-6.9743;0.3328;-0.0080;-0.0384;-0.0095
0000552735;16.4673;-6.8163;0.3831;-0.0071;-0.0378;-0.0111
0000552744;16.2423;-6.8738;0.3065;-0.0007;-0.0430;-0.0155
0000552757;16.5655;-6.7876;0.3903;0.0029;-0.0466;-0.0176
0000552766;16.4649;-6.7756;0.3424;-0.0060;-0.0385;-0.0091
0000552775;16.3979;-6.8953;0.3376;-0.0088;-0.0408;-0.0108
0000552787;16.5439;-6.7588;0.3448;-0.0032;-0.0436;-0.0145
0000552796;16.4242;-6.6966;0.3424;-0.0095;-0.0396;-0.0065
0000552865;16.3668;-6.8642;0.3735;-0.0029;-0.0446;-0.0144
0000552874;16.4530;-6.8163;0.4429;-0.0019;-0.0436;-0.0068
0000552886;16.4601;-6.7564;0.4262;-0.0029;-0.0481;-0.0136
0000552895;16.3500;-6.8402;0.3950;-0.0111;-0.0450;-0.0131
0000552908;16.5703;-6.8546;0.3089;-0.0027;-0.0485;-0.0135
0000552917;16.4194;-6.7732;0.3184;0.0003;-0.0438;-0.0132
0000552929;16.3763;-6.7732;0.4022;-0.0015;-0.0469;-0.0177
0000552938;16.3356;-6.8402;0.2969;-0.0044;-0.0478;-0.0143
0000552951;16.3404;-6.9049;0.3400;-0.0025;-0.0460;-0.0165
0000552960;16.3811;-6.8809;0.3112;-0.0039;-0.0460;-0.0163
0000552969;16.4577;-6.7588;0.3400;-0.0049;-0.0458;-0.0172
0000552981;16.2878;-6.9240;0.4381;-0.0047;-0.0473;-0.0196
0000552990;16.2973;-6.8426;0.4238;0.0065;-0.0522;-0.0277
0000553003;16.4721;-6.8450;0.4477;0.0033;-0.0512;-0.0189
0000553012;16.4482;-6.7732;0.3855;0.0065;-0.0490;-0.0211
0000553024;16.7905;-6.5912;0.3400;0.0064;-0.0506;-0.0230
0000553033;16.4290;-6.6439;0.3903;0.0016;-0.0469;-0.0193
0000553046;16.5248;-6.7445;0.2729;-0.0037;-0.0426;-0.0197
0000553055;16.3548;-6.7756;0.3759;-0.0115;-0.0366;-0.0125
0000553067;16.3811;-6.7493;0.3424;-0.0109;-0.0368;-0.0104
0000553076;16.5296;-6.6487;0.3280;-0.0069;-0.0449;-0.0147
0000553085;16.4506;-6.7277;0.3328;-0.0160;-0.0408;-0.0068
0000553152;16.4194;-6.7157;0.3184;0.0007;-0.0532;-0.0191
0000553161;16.4960;-6.6679;0.2610;-0.0059;-0.0449;-0.0151
0000553173;16.3763;-6.7564;0.3639;-0.0048;-0.0448;-0.0141
0000553182;16.3165;-6.8785;0.3017;-0.0051;-0.0486;-0.0196
0000553195;16.4099;-6.9360;0.3591;-0.0020;-0.0454;-0.0179
0000553204;16.6636;-6.7301;0.2418;-0.0125;-0.0416;-0.0152
0000553215;16.5368;-6.7828;0.2251;-0.0104;-0.0414;-0.0153
0000553224;16.3859;-6.8953;0.3448;-0.0051;-0.0412;-0.0168
0000553238;16.4530;-6.6846;0.2969;-0.0059;-0.0422;-0.0180
0000553247;16.5463;-6.7229;0.4046;-0.0048;-0.0401;-0.0180
0000553260;16.4889;-6.7995;0.3280;-0.0049;-0.0369;-0.0151
0000553269;16.2782;-6.8833;0.2897;-0.0009;-0.0406;-0.0188
0000553278;16.3835;-6.7828;0.3089;-0.0016;-0.0429;-0.0185
0000553290;16.4649;-6.8019;0.3089;-0.0071;-0.0425;-0.0209
0000553299;16.3620;-6.7469;0.3328;-0.0061;-0.0389;-0.0180
0000553312;16.3883;-6.8761;0.2179;-0.0020;-0.0394;-0.0169
0000553321;16.5727;-6.6415;0.2825;-0.0104;-0.0340;-0.0145
0000553333;16.4865;-6.7900;0.2729;-0.0096;-0.0330;-0.0152
0000553342;16.4099;-6.7612;0.2969;-0.0037;-0.0309;-0.0169
0000553409;16.2734;-6.8809;0.3543;-0.0092;-0.0096;-0.0076
0000553418;16.5176;-6.8235;0.3424;-0.0048;-0.0091;-0.0131
0000553430;16.4577;-6.7756;0.3424;-0.0003;-0.0087;-0.0148
0000553439;16.5032;-6.8211;0.4381;-0.0048;-0.0055;-0.0141
0000553452;16.2997;-6.8738;0.4190;-0.0084;-0.0115;-0.0187
0000553461;16.3787;-6.7397;0.4094;-0.0047;-0.0209;-0.0191
0000553470;16.4242;-6.7445;0.4429;-0.0095;-0.0232;-0.0124
0000553482;16.4099;-6.8235;0.3735;-0.0067;-0.0237;-0.0135
0000553491;16.3979;-6.7421;0.3041;-0.0105;-0.0242;-0.0120
0000553504;16.5775;-6.7229;0.2346;-0.0157;-0.0220;-0.0099
0000553513;16.5607;-6.7564;0.2682;-0.0160;-0.0270;-0.0217
0000553525;16.4984;-6.8163;0.3950;-0.0176;-0.0256;-0.0147
0000553534;16.3644;-6.7900;0.3472;-0.0093;-0.0285;-0.0245
0000553547;16.7187;-6.6128;0.3663;-0.0052;-0.0304;-0.0260
0000553556;16.4386;-6.7756;0.3974;-0.0009;-0.0365;-0.0300
0000553568;16.4218;-6.7756;0.2729;-0.0033;-0.0330;-0.0232
0000553577;16.5320;-6.8067;0.3998;-0.0059;-0.0344;-0.0254
0000553590;16.6158;-6.5984;0.2562;-0.0100;-0.0304;-0.0232
0000553599;16.4099;-6.8570;0.3472;-0.0183;-0.0254;-0.0141
0000553608;16.5894;-6.6894;0.3496;-0.0144;-0.0262;-0.0193
0000553620;16.4913;-6.7995;0.3807;-0.0148;-0.0304;-0.0189
0000553629;16.3835;-6.7205;0.2753;-0.0189;-0.0226;-0.0143
0000553696;16.3644;-6.7181;0.3855;-0.0104;-0.0313;-0.0212
0000553705;16.5822;-6.6224;0.4166;-0.0171;-0.0246;-0.0113
0000553717;16.3859;-6.8546;0.3041;-0.0200;-0.0246;-0.0153
0000553726;16.5320;-6.8139;0.3807;-0.0164;-0.0332;-0.0221
0000553739;16.5008;-6.7157;0.4381;-0.0136;-0.0304;-0.0250
0000553748;16.2447;-6.8666;0.3879;-0.0127;-0.0264;-0.0229
0000553760;16.3811;-6.9288;0.3304;-0.0161;-0.0222;-0.0196
0000553769;16.3692;-6.8043;0.3184;-0.0096;-0.0269;-0.0262
0000553782;16.3979;-6.8929;0.3735;-0.0116;-0.0268;-0.0289
0000553791;16.4506;-6.7253;0.3807;-0.0113;-0.0245;-0.0212
0000553800;16.5822;-6.6966;0.3519;-0.0152;-0.0256;-0.0207
0000553812;16.3883;-6.7564;0.3567;-0.0135;-0.0242;-0.0168
0000553821;16.4937;-6.7133;0.3639;-0.0092;-0.0277;-0.0248
0000553834;16.4003;-6.7229;0.3663;-0.0141;-0.0254;-0.0173
0000553843;16.3404;-6.7469;0.3472;-0.0145;-0.0292;-0.0226
0000553855;16.4266;-6.6319;0.3017;-0.0119;-0.0270;-0.0175
0000553864;16.5200;-6.7469;0.2849;-0.0129;-0.0266;-0.0252
0000553877;16.2566;-6.8067;0.3615;-0.0159;-0.0199;-0.0161
0000553886;16.5080;-6.6750;0.2969;-0.0173;-0.0248;-0.0157
0000553898;16.5344;-6.6942;0.3639;-0.0123;-0.0228;-0.0179
0000553907;16.5583;-6.7205;0.3759;-0.0104;-0.0270;-0.0173
0000553974;16.5583;-6.6487;0.3855;-0.0067;-0.0278;-0.0189
0000553983;16.5846;-6.6750;0.3998;-0.0095;-0.0232;-0.0148
0000553992;16.5463;-6.6607;0.3519;-0.0063;-0.0302;-0.0220
0000554004;16.3500;-6.7756;0.3735;-0.0085;-0.0286;-0.0203
0000554013;16.3380;-6.8522;0.3136;-0.0080;-0.0246;-0.0152
0000554026;16.4793;-6.6248;0.3974;-0.0069;-0.0250;-0.0071
0000554035;16.3045;-6.8115;0.3998;-0.0101;-0.0308;-0.0140
0000554047;16.5415;-6.7516;0.2682;-0.0187;-0.0272;-0.0096
0000554056;16.3620;-6.7708;0.3424;-0.0167;-0.0208;-0.0140
0000554069;16.3931;-6.8235;0.4381;-0.0104;-0.0209;-0.0226
0000554078;16.3285;-6.9025;0.4166;-0.0029;-0.0218;-0.0248
0000554090;16.4482;-6.8187;0.3496;0.0024;-0.0220;-0.0204
0000554099;16.3428;-6.7301;0.4717;0.0021;-0.0300;-0.0270
0000554112;16.3620;-6.6774;0.3496;-0.0107;-0.0265;-0.0216
0000554121;16.3763;-6.6726;0.3735;-0.0079;-0.0334;-0.0236
0000554130;16.4984;-6.6104;0.3903;-0.0203;-0.0241;-0.0145
0000554142;16.5487;-6.7325;0.3232;-0.0240;-0.0228;-0.0072
0000554151;16.4721;-6.6104;0.3065;-0.0171;-0.0326;-0.0164
0000554164;16.4769;-6.5817;0.2969;-0.0153;-0.0292;-0.0065
0000554173;16.4530;-6.6631;0.4070;-0.0215;-0.0266;-0.0091
0000554185;16.4865;-6.6439;0.3615;-0.0176;-0.0272;-0.0071
0000554194;16.5248;-6.7014;0.4190;-0.0121;-0.0393;-0.0144
0000554261;16.5248;-6.7373;0.3424;-0.0204;-0.0380;-0.0081
0000554270;16.4745;-6.7540;0.3950;-0.0149;-0.0461;-0.0191
0000554282;16.5200;-6.7038;0.4214;-0.0148;-0.0412;-0.0140
0000554291;16.4625;-6.7708;0.3831;-0.0159;-0.0373;-0.0124
0000554300;16.5200;-6.7253;0.4022;-0.0091;-0.0432;-0.0193
0000554313;16.4673;-6.7421;0.4334;-0.0081;-0.0380;-0.0193
0000554322;16.5032;-6.7445;0.3735;-0.0143;-0.0384;-0.0179
0000554334;16.3452;-6.7828;0.4166;-0.0105;-0.0362;-0.0188
0000554343;16.4793;-6.6942;0.4214;-0.0105;-0.0342;-0.0143
0000554356;16.5775;-6.5960;0.3328;-0.0167;-0.0305;-0.0135
0000554365;16.3021;-6.8474;0.3496;-0.0127;-0.0337;-0.0132
0000554377;16.4793;-6.6152;0.3519;-0.0157;-0.0346;-0.0145
0000554386;16.4721;-6.6990;0.3208;-0.0187;-0.0308;-0.0087
0000554399;16.4769;-6.7828;0.3543;-0.0201;-0.0286;-0.0099
0000554408;16.4146;-6.8809;0.3352;-0.0145;-0.0356;-0.0139
0000554420;16.3237;-6.8474;0.4118;-0.0144;-0.0326;-0.0137
0000554429;16.4003;-6.7660;0.4094;-0.0129;-0.0316;-0.0215
0000554438;16.4338;-6.8235;0.3903;-0.0133;-0.0302;-0.0148
0000554451;16.5320;-6.7109;0.3496;-0.0108;-0.0378;-0.0213
0000554460;16.3596;-6.7924;0.4334;-0.0135;-0.0300;-0.0113
0000554472;16.5942;-6.6607;0.3711;-0.0115;-0.0325;-0.0169
0000554481;16.3644;-6.8187;0.3974;-0.0165;-0.0348;-0.0143
0000554548;16.4673;-6.6990;0.4310;-0.0148;-0.0397;-0.0111
0000554555;16.4003;-6.7229;0.3208;-0.0125;-0.0408;-0.0167
0000554566;16.3931;-6.7445;0.4405;-0.0143;-0.0356;-0.0099
0000554574;16.3811;-6.6679;0.3184;-0.0145;-0.0341;-0.0108
0000554586;16.4458;-6.6200;0.4046;-0.0139;-0.0337;-0.0059
0000554594;16.4051;-6.7995;0.3735;-0.0208;-0.0341;-0.0072
0000554605;16.5966;-6.6607;0.3519;-0.0181;-0.0388;-0.0120
0000554613;16.2901;-6.9552;0.3112;-0.0192;-0.0309;-0.0100
0000554621;16.4697;-6.8809;0.3855;-0.0123;-0.0306;-0.0145
