time;acc_x;acc_y;acc_z;gyro_x;gyro_y;gyro_z
0000241966;5.9711;-16.0675;0.7542;-0.0155;-0.0100;-0.0072
0000241974;5.7006;-16.1800;0.7709;-0.0061;-0.0100;-0.0132
0000241981;5.8610;-16.0699;0.7111;-0.0140;-0.0065;-0.0069
0000241989;5.9161;-15.9526;0.6919;-0.0069;-0.0072;-0.0124
0000241997;5.6599;-16.1058;0.8715;-0.0075;-0.0017;-0.0048
0000242005;5.8107;-16.0675;0.8499;-0.0025;-0.0047;-0.0088
0000242013;5.8778;-16.0986;0.7374;-0.0067;-0.0039;-0.0105
0000242021;5.8610;-15.9143;0.7781;-0.0072;-0.0005;-0.0095
0000242029;5.8083;-16.0412;0.8260;-0.0127;0.0049;-0.0104
0000242037;5.5569;-16.2111;0.8021;-0.0131;0.0009;-0.0181
0000242045;5.8203;-16.1992;0.6919;-0.0127;0.0023;-0.0203
0000242053;5.5976;-16.1513;0.7709;-0.0139;-0.0003;-0.0260
0000242061;5.5330;-16.2494;0.7183;-0.0101;-0.0076;-0.0234
0000242069;5.7221;-16.1489;0.6512;-0.0132;-0.0048;-0.0241
0000242077;5.6623;-16.1680;0.7207;-0.0129;-0.0099;-0.0258
0000242085;5.7197;-16.1130;0.6728;-0.0087;-0.0112;-0.0209
0000242093;5.7102;-16.2375;0.7398;-0.0065;-0.0133;-0.0216
0000242101;5.7078;-16.0340;0.6991;-0.0012;-0.0220;-0.0238
0000242109;5.7317;-16.2135;0.7087;-0.0077;-0.0184;-0.0159
0000242117;5.7700;-16.0914;0.6919;-0.0004;-0.0262;-0.0234
0000242125;5.6551;-16.1585;0.7207;-0.0024;-0.0256;-0.0167
0000242133;5.8251;-16.0316;0.7350;-0.0053;-0.0200;-0.0173
0000242141;5.6671;-15.9909;0.7685;0.0012;-0.0300;-0.0249
0000242149;5.7748;-16.0842;0.6991;-0.0013;-0.0284;-0.0188
0000242157;5.6072;-16.1202;0.7302;-0.0080;-0.0257;-0.0157
0000242165;5.6719;-16.2135;0.7278;-0.0043;-0.0329;-0.0220
0000242173;5.7509;-16.1728;0.6800;-0.0065;-0.0278;-0.0135
0000242181;5.7676;-16.1345;0.7614;-0.0124;-0.0265;-0.0105
0000242189;5.6599;-16.1465;0.7757;-0.0069;-0.0382;-0.0187
0000242197;5.7796;-16.0100;0.7805;0.0005;-0.0424;-0.0189
0000242205;5.6192;-16.0531;0.7063;-0.0001;-0.0372;-0.0185
0000242213;5.6455;-16.1178;0.6895;-0.0019;-0.0468;-0.0205
0000242221;5.6623;-16.1178;0.6393;-0.0056;-0.0390;-0.0205
0000242229;5.6647;-16.1345;0.8068;-0.0061;-0.0389;-0.0124
0000242237;5.8251;-16.0795;0.7805;-0.0096;-0.0397;-0.0179
0000242245;5.7030;-16.0962;0.7685;-0.0065;-0.0434;-0.0183
0000242253;5.6551;-16.1393;0.7829;-0.0147;-0.0410;-0.0192
0000242261;5.6264;-16.1656;0.7638;-0.0115;-0.0497;-0.0226
0000242269;5.7245;-16.1920;0.7757;-0.0169;-0.0394;-0.0192
0000242277;5.8682;-15.8951;0.6823;-0.0234;-0.0396;-0.0156
0000242285;5.7844;-16.0819;0.8284;-0.0216;-0.0388;-0.0155
0000242293;5.6886;-16.1058;0.8116;-0.0246;-0.0341;-0.0127
0000242301;5.7293;-16.0914;0.7661;-0.0232;-0.0353;-0.0201
0000242309;5.7509;-16.0316;0.7925;-0.0199;-0.0396;-0.0183
0000242317;5.6838;-16.1489;0.8356;-0.0282;-0.0310;-0.0151
0000242325;5.7437;-16.1202;0.7302;-0.0222;-0.0348;-0.0161
0000242333;5.7150;-16.1249;0.7542;-0.0204;-0.0398;-0.0167
0000242341;5.7509;-16.0435;0.8380;-0.0282;-0.0292;-0.0116
0000242349;5.6599;-16.0627;0.8021;-0.0269;-0.0365;-0.0187
0000242357;5.7557;-16.0627;0.7853;-0.0258;-0.0352;-0.0135
0000242365;5.8323;-16.1704;0.8691;-0.0260;-0.0392;-0.0180
0000242373;5.6479;-16.1297;0.7015;-0.0269;-0.0392;-0.0123
0000242381;5.6072;-16.2279;0.7566;-0.0288;-0.0433;-0.0173
0000242389;5.7317;-16.1513;0.6393;-0.0180;-0.0445;-0.0171
0000242397;5.9472;-16.0771;0.7901;-0.0211;-0.0416;-0.0121
0000242405;5.6886;-16.0938;0.6967;-0.0200;-0.0366;-0.0133
0000242413;5.8873;-16.0866;0.7183;-0.0145;-0.0465;-0.0197
0000242421;5.7964;-16.0723;0.6871;-0.0211;-0.0386;-0.0107
0000242429;5.9328;-16.0435;0.7278;-0.0145;-0.0486;-0.0197
0000242437;5.8730;-16.1896;0.6800;-0.0188;-0.0408;-0.0116
0000242445;5.8778;-15.9669;0.7542;-0.0208;-0.0414;-0.0163
0000242453;5.7389;-16.0483;0.6967;-0.0177;-0.0380;-0.0128
0000242461;5.8035;-16.0579;0.7829;-0.0225;-0.0404;-0.0163
0000242469;5.6575;-16.1561;0.7422;-0.0123;-0.0390;-0.0185
0000242477;5.7988;-16.0603;0.7302;-0.0232;-0.0348;-0.0156
0000242485;5.8610;-15.9861;0.7422;-0.0169;-0.0388;-0.0184
0000242493;5.6192;-16.1297;0.7302;-0.0171;-0.0385;-0.0144
0000242501;5.5617;-16.3117;0.7422;-0.0173;-0.0306;-0.0120
0000242509;5.7221;-16.1633;0.7781;-0.0184;-0.0321;-0.0159
0000242536;5.8371;-16.0100;0.8140;-0.0141;-0.0296;-0.0184
0000242544;5.6982;-16.0938;0.7326;-0.0187;-0.0296;-0.0177
0000242552;5.8562;-16.1393;0.7207;-0.0141;-0.0304;-0.0189
0000242560;5.6647;-16.1034;0.7638;-0.0185;-0.0284;-0.0191
0000242568;5.7964;-16.1249;0.7757;-0.0129;-0.0309;-0.0204
0000242576;5.8873;-16.0842;0.7709;-0.0156;-0.0312;-0.0152
0000242584;5.6838;-16.2662;0.6967;-0.0185;-0.0273;-0.0151
0000242592;5.5761;-16.2518;0.7853;-0.0160;-0.0310;-0.0191
0000242600;5.8466;-16.0483;0.7805;-0.0159;-0.0288;-0.0157
0000242608;5.7174;-16.2207;0.7709;-0.0191;-0.0249;-0.0097
0000242616;5.7892;-16.1704;0.7829;-0.0132;-0.0338;-0.0203
0000242624;5.6216;-16.2973;0.6536;-0.0120;-0.0325;-0.0120
0000242632;5.6814;-16.2016;0.6991;-0.0157;-0.0248;-0.0137
0000242640;5.7150;-16.1082;0.6728;-0.0116;-0.0253;-0.0161
0000242648;5.6647;-16.3093;0.6752;-0.0035;-0.0317;-0.0200
0000242656;5.6455;-16.1537;0.6321;-0.0064;-0.0242;-0.0152
0000242664;5.7557;-16.2087;0.6393;-0.0005;-0.0300;-0.0172
0000242672;5.8299;-16.1465;0.7111;-0.0040;-0.0317;-0.0192
0000242680;5.8107;-16.1034;0.7254;0.0011;-0.0297;-0.0152
0000242688;5.8419;-16.1130;0.7733;-0.0075;-0.0220;-0.0125
0000242696;5.6790;-16.1728;0.7374;-0.0016;-0.0234;-0.0169
0000242704;5.6790;-16.2542;0.8260;-0.0029;-0.0207;-0.0143
0000242712;5.7940;-16.2135;0.8068;-0.0004;-0.0224;-0.0147
0000242720;5.7581;-16.2135;0.7494;0.0035;-0.0266;-0.0164
0000242728;5.7078;-16.1537;0.7446;0.0007;-0.0152;-0.0149
0000242736;5.7461;-16.3261;0.7350;0.0008;-0.0199;-0.0153
0000242744;5.8442;-16.1273;0.7470;0.0005;-0.0199;-0.0184
0000242752;5.8083;-16.1944;0.6464;0.0029;-0.0175;-0.0179
0000242760;5.6647;-16.2854;0.7087;-0.0051;-0.0153;-0.0161
0000242768;5.8562;-16.1609;0.7135;0.0029;-0.0236;-0.0192
0000242776;5.8035;-16.1393;0.6823;0.0105;-0.0185;-0.0187
0000242784;5.7461;-16.1058;0.6656;0.0039;-0.0195;-0.0176
0000242792;5.8107;-16.0795;0.7183;0.0027;-0.0195;-0.0233
0000242800;5.6575;-16.0340;0.7350;0.0083;-0.0222;-0.0248
0000242808;5.7245;-16.1249;0.6728;0.0015;-0.0244;-0.0201
0000242816;5.7365;-15.9981;0.7853;0.0025;-0.0240;-0.0160
0000242824;5.8227;-15.9502;0.7829;-0.0056;-0.0273;-0.0221
0000242832;5.6886;-15.9789;0.7254;-0.0032;-0.0338;-0.0204
0000242840;5.7389;-15.9286;0.7350;-0.0116;-0.0228;-0.0189
0000242848;5.7581;-15.9837;0.7111;-0.0109;-0.0332;-0.0228
0000242856;5.6216;-16.1776;0.7015;-0.0149;-0.0312;-0.0195
0000242864;5.7557;-16.0986;0.7422;-0.0185;-0.0314;-0.0215
0000242872;5.7174;-16.0076;0.7087;-0.0236;-0.0289;-0.0153
0000242880;5.8179;-16.0316;0.7949;-0.0266;-0.0256;-0.0144
0000242888;5.7197;-16.1728;0.7183;-0.0246;-0.0332;-0.0197
0000242896;5.7030;-16.1680;0.7063;-0.0264;-0.0301;-0.0157
0000242904;5.7557;-16.1848;0.7015;-0.0233;-0.0340;-0.0196
0000242912;5.8227;-16.1130;0.7925;-0.0269;-0.0333;-0.0177
0000242920;5.7700;-16.2878;0.7350;-0.0185;-0.0354;-0.0201
0000242928;5.6168;-16.2614;0.7278;-0.0288;-0.0304;-0.0163
0000242936;5.7892;-16.2925;0.7135;-0.0211;-0.0353;-0.0209
0000242944;5.8227;-16.1537;0.6656;-0.0261;-0.0322;-0.0119
0000242952;5.8802;-16.1058;0.6919;-0.0262;-0.0349;-0.0172
0000242960;5.7628;-16.0579;0.7901;-0.0200;-0.0397;-0.0191
0000242968;5.6336;-16.1441;0.7470;-0.0278;-0.0330;-0.0183
0000242976;5.7269;-16.2566;0.7302;-0.0288;-0.0273;-0.0115
0000242984;5.7557;-16.0579;0.7805;-0.0250;-0.0350;-0.0152
0000242992;5.7509;-16.1202;0.7805;-0.0228;-0.0341;-0.0189
0000243000;5.8083;-16.0986;0.6943;-0.0256;-0.0328;-0.0112
0000243008;5.8131;-16.1178;0.7230;-0.0240;-0.0349;-0.0160
0000243016;5.8035;-16.0986;0.8547;-0.0289;-0.0302;-0.0127
0000243024;5.8945;-16.0412;0.7781;-0.0262;-0.0340;-0.0129
0000243032;5.7341;-16.0675;0.7398;-0.0301;-0.0338;-0.0104
0000243040;5.7509;-16.1944;0.6919;-0.0232;-0.0382;-0.0168
0000243048;5.6503;-16.1728;0.8404;-0.0302;-0.0346;-0.0111
0000243056;5.6288;-16.2806;0.7159;-0.0301;-0.0392;-0.0139
0000243064;5.8083;-16.1513;0.7877;-0.0268;-0.0425;-0.0141
0000243072;5.6743;-16.2710;0.7230;-0.0294;-0.0400;-0.0163
0000243080;5.7221;-16.1417;0.7590;-0.0244;-0.0413;-0.0168
0000243088;5.8347;-16.0890;0.8452;-0.0278;-0.0464;-0.0169
0000243174;5.7461;-16.1345;0.7183;-0.0304;-0.0413;-0.0116
0000243182;5.7509;-16.1202;0.7326;-0.0282;-0.0448;-0.0212
0000243190;5.8131;-16.1704;0.7422;-0.0308;-0.0420;-0.0172
0000243198;5.8514;-15.9693;0.7446;-0.0310;-0.0385;-0.0167
0000243206;5.9280;-15.9981;0.6512;-0.0308;-0.0461;-0.0220
0000243214;5.7150;-16.0603;0.8212;-0.0278;-0.0449;-0.0199
0000243222;5.8155;-16.1130;0.6943;-0.0321;-0.0420;-0.0240
0000243230;5.7724;-16.1968;0.7781;-0.0304;-0.0388;-0.0188
0000243238;5.8203;-16.1633;0.7709;-0.0298;-0.0412;-0.0207
0000243246;5.6719;-16.2734;0.7518;-0.0289;-0.0377;-0.0175
0000243254;5.8993;-16.0507;0.7063;-0.0312;-0.0342;-0.0143
0000243262;5.8873;-16.0555;0.6416;-0.0290;-0.0364;-0.0129
0000243270;6.0334;-16.0771;0.6560;-0.0305;-0.0312;-0.0116
0000243278;5.8419;-16.0986;0.7039;-0.0260;-0.0369;-0.0173
0000243286;5.8993;-16.1441;0.7278;-0.0233;-0.0296;-0.0160
0000243294;5.7078;-16.2183;0.7949;-0.0167;-0.0329;-0.0157
0000243302;5.6623;-16.1297;0.6656;-0.0181;-0.0340;-0.0121
0000243310;5.6647;-16.2662;0.6943;-0.0141;-0.0390;-0.0220
0000243318;5.7772;-16.1992;0.6895;-0.0145;-0.0368;-0.0180
0000243326;5.8610;-16.1297;0.7733;-0.0196;-0.0325;-0.0153
0000243334;5.7006;-16.2854;0.6967;-0.0135;-0.0366;-0.0143
0000243342;5.7892;-16.1752;0.6823;-0.0100;-0.0365;-0.0152
0000243350;5.7509;-16.1824;0.6847;-0.0071;-0.0385;-0.0217
0000243358;5.8610;-16.0747;0.6488;-0.0129;-0.0292;-0.0163
0000243366;5.7772;-16.0962;0.7494;-0.0169;-0.0246;-0.0165
0000243374;5.7796;-16.1728;0.6704;-0.0153;-0.0229;-0.0184
0000243382;5.8514;-16.0675;0.6752;-0.0188;-0.0276;-0.0264
0000243390;5.8586;-15.9502;0.8260;-0.0181;-0.0207;-0.0222
0000243398;5.8921;-16.0938;0.7326;-0.0234;-0.0145;-0.0200
0000243406;6.0071;-15.9023;0.6847;-0.0237;-0.0145;-0.0233
0000243414;5.7557;-16.1800;0.6895;-0.0244;-0.0161;-0.0264
0000243422;5.9544;-15.9765;0.7638;-0.0246;-0.0184;-0.0264
0000243430;5.7341;-16.3117;0.7590;-0.0281;-0.0143;-0.0172
0000243438;5.8083;-16.0531;0.7398;-0.0330;-0.0109;-0.0153
0000243446;5.7868;-16.0890;0.7111;-0.0357;-0.0165;-0.0193
0000243454;5.9711;-16.0052;0.6273;-0.0330;-0.0147;-0.0161
0000243462;5.7844;-16.1106;0.5866;-0.0264;-0.0144;-0.0168
0000243470;5.7150;-16.2111;0.6847;-0.0310;-0.0127;-0.0120
0000243478;5.8035;-16.3117;0.6201;-0.0236;-0.0144;-0.0175
0000243486;5.7676;-16.1465;0.6393;-0.0199;-0.0077;-0.0105
0000243494;5.6767;-16.3668;0.6129;-0.0246;-0.0079;-0.0139
0000243502;5.7868;-16.2087;0.6105;-0.0188;-0.0084;-0.0195
0000243510;5.8131;-16.2135;0.5411;-0.0148;-0.0105;-0.0152
0000243518;5.8107;-16.1752;0.5818;-0.0152;-0.0087;-0.0177
0000243526;5.7964;-16.1776;0.7398;-0.0167;-0.0069;-0.0172
0000243534;5.7533;-16.2949;0.6656;-0.0108;-0.0087;-0.0189
0000243542;5.7341;-16.1561;0.7374;-0.0115;-0.0084;-0.0125
0000243550;5.8945;-16.0842;0.6919;-0.0203;-0.0060;-0.0145
0000243558;5.7581;-16.1130;0.6249;-0.0176;-0.0156;-0.0213
0000243566;5.8538;-15.9526;0.7015;-0.0152;-0.0109;-0.0222
0000243574;5.9568;-16.0842;0.7446;-0.0181;-0.0081;-0.0173
0000243582;5.7389;-16.0531;0.6225;-0.0236;-0.0080;-0.0171
0000243590;5.7748;-16.1345;0.5746;-0.0188;-0.0108;-0.0209
0000243598;5.6144;-16.1896;0.6728;-0.0232;-0.0084;-0.0226
0000243606;5.6934;-16.1202;0.6009;-0.0160;-0.0123;-0.0234
0000243614;5.7820;-16.1728;0.6345;-0.0217;-0.0068;-0.0160
0000243622;5.7844;-16.0890;0.6728;-0.0200;-0.0119;-0.0196
0000243630;5.8849;-16.0124;0.6177;-0.0168;-0.0137;-0.0212
0000243638;5.6527;-16.1417;0.6800;-0.0240;-0.0169;-0.0189
0000243646;6.0286;-16.0651;0.7087;-0.0254;-0.0139;-0.0131
0000243654;5.8347;-16.2542;0.6177;-0.0226;-0.0201;-0.0183
0000243662;5.7413;-16.0651;0.7015;-0.0229;-0.0169;-0.0148
0000243670;5.5617;-16.1226;0.6129;-0.0236;-0.0195;-0.0140
0000243678;5.6862;-16.1369;0.7183;-0.0149;-0.0258;-0.0153
0000243686;5.8682;-16.0244;0.7207;-0.0249;-0.0252;-0.0125
0000243694;5.7892;-16.1513;0.6345;-0.0278;-0.0208;-0.0127
0000243702;5.7365;-16.1585;0.7111;-0.0248;-0.0241;-0.0113
0000243710;5.8993;-16.0459;0.7302;-0.0238;-0.0209;-0.0149
0000243718;5.6503;-16.1082;0.7135;-0.0246;-0.0258;-0.0153
0000243804;5.7102;-16.2925;0.6201;-0.0185;-0.0328;-0.0216
0000243812;5.8921;-16.1369;0.5914;-0.0129;-0.0313;-0.0212
0000243820;5.8347;-16.1585;0.6249;-0.0155;-0.0377;-0.0233
0000243828;5.7102;-16.2040;0.7302;-0.0145;-0.0346;-0.0147
0000243836;5.9161;-16.0795;0.6369;-0.0176;-0.0342;-0.0192
0000243844;5.5713;-16.2734;0.6871;-0.0153;-0.0377;-0.0147
0000243852;5.7293;-16.1178;0.7183;-0.0179;-0.0342;-0.0132
0000243860;5.7509;-16.1920;0.6464;-0.0123;-0.0346;-0.0156
0000243868;5.7820;-16.0675;0.6823;-0.0057;-0.0409;-0.0207
0000243876;5.7509;-16.0962;0.6919;-0.0124;-0.0369;-0.0131
0000243884;5.7006;-16.1082;0.6129;-0.0159;-0.0328;-0.0140
0000243892;5.8802;-16.1178;0.6057;-0.0129;-0.0377;-0.0115
0000243900;5.8275;-16.0986;0.5076;-0.0089;-0.0400;-0.0163
0000243908;5.6934;-16.2518;0.6369;-0.0161;-0.0397;-0.0137
0000243916;5.7461;-16.1872;0.5938;-0.0128;-0.0329;-0.0115
0000243924;5.7940;-16.1513;0.5938;-0.0101;-0.0416;-0.0153
0000243932;5.8035;-16.1417;0.7207;-0.0048;-0.0377;-0.0157
0000243940;5.8012;-16.2016;0.6512;-0.0087;-0.0398;-0.0152
0000243948;5.8466;-15.9861;0.5650;-0.0100;-0.0369;-0.0161
0000243956;5.7437;-16.2087;0.6129;-0.0183;-0.0373;-0.0103
0000243964;5.6503;-16.1178;0.6129;-0.0151;-0.0409;-0.0157
0000243972;5.7461;-16.0507;0.7039;-0.0180;-0.0337;-0.0099
0000243980;5.6551;-16.2087;0.6488;-0.0254;-0.0392;-0.0099
0000243988;5.6886;-16.1058;0.6081;-0.0215;-0.0420;-0.0143
0000243996;5.8299;-16.1058;0.7087;-0.0270;-0.0350;-0.0103
0000244004;5.6360;-16.2111;0.6416;-0.0245;-0.0474;-0.0144
0000244012;5.7916;-16.2183;0.6991;-0.0254;-0.0378;-0.0121
0000244020;5.7365;-16.2806;0.6871;-0.0257;-0.0353;-0.0072
0000244028;5.7557;-16.0483;0.6369;-0.0257;-0.0392;-0.0159
0000244036;5.7293;-16.1633;0.6560;-0.0274;-0.0404;-0.0116
0000244044;5.7293;-16.1824;0.6512;-0.0228;-0.0428;-0.0141
0000244052;5.6503;-16.2806;0.6081;-0.0230;-0.0420;-0.0165
0000244060;5.7988;-16.2399;0.6871;-0.0228;-0.0377;-0.0136
0000244068;5.8371;-16.1656;0.7087;-0.0274;-0.0337;-0.0067
0000244076;5.6647;-16.3213;0.7063;-0.0230;-0.0384;-0.0167
0000244084;5.7174;-16.1848;0.6081;-0.0228;-0.0350;-0.0152
0000244092;5.7844;-16.0459;0.6201;-0.0282;-0.0280;-0.0072
0000244100;5.7844;-16.2087;0.5698;-0.0244;-0.0274;-0.0104
0000244108;5.7724;-16.1680;0.6584;-0.0185;-0.0284;-0.0143
0000244116;5.7772;-16.1824;0.6440;-0.0221;-0.0296;-0.0125
0000244124;5.7269;-16.2854;0.5866;-0.0169;-0.0310;-0.0147
0000244132;5.9376;-16.1202;0.6464;-0.0205;-0.0237;-0.0151
0000244140;5.8227;-16.1752;0.5578;-0.0220;-0.0213;-0.0108
0000244148;5.7341;-16.1393;0.7087;-0.0203;-0.0270;-0.0144
0000244156;5.8610;-16.0986;0.6321;-0.0155;-0.0230;-0.0192
0000244164;5.8969;-16.0795;0.5818;-0.0133;-0.0200;-0.0171
0000244172;5.6838;-16.1202;0.6009;-0.0140;-0.0225;-0.0140
0000244180;5.7652;-16.1106;0.6967;-0.0137;-0.0187;-0.0120
0000244188;5.9017;-16.0627;0.6416;-0.0196;-0.0169;-0.0096
0000244196;5.9664;-16.0220;0.6009;-0.0121;-0.0272;-0.0164
0000244204;5.6862;-16.1369;0.6345;-0.0160;-0.0176;-0.0137
0000244212;5.7078;-16.1824;0.6728;-0.0199;-0.0153;-0.0108
0000244220;5.7628;-16.2279;0.7159;-0.0167;-0.0168;-0.0125
0000244228;5.7628;-16.1968;0.5291;-0.0177;-0.0220;-0.0117
0000244236;5.7461;-16.1393;0.6393;-0.0217;-0.0184;-0.0079
0000244244;5.7317;-16.1465;0.6560;-0.0169;-0.0184;-0.0161
0000244252;5.7581;-16.1561;0.6033;-0.0192;-0.0168;-0.0109
0000244260;5.6096;-16.2854;0.6297;-0.0168;-0.0205;-0.0161
0000244268;5.8227;-16.1680;0.6895;-0.0205;-0.0160;-0.0091
0000244276;5.7174;-16.1297;0.6297;-0.0168;-0.0225;-0.0151
0000244284;5.8203;-16.0842;0.5866;-0.0148;-0.0240;-0.0139
0000244292;5.8347;-16.0627;0.6129;-0.0184;-0.0230;-0.0131
0000244300;5.6814;-16.2447;0.6800;-0.0222;-0.0185;-0.0095
0000244308;5.8682;-16.0675;0.5650;-0.0173;-0.0228;-0.0161
0000244316;5.5545;-16.2997;0.6464;-0.0226;-0.0200;-0.0077
0000244324;5.7437;-16.2255;0.6416;-0.0173;-0.0222;-0.0139
0000244332;5.8275;-16.1704;0.6273;-0.0201;-0.0236;-0.0156
0000244340;5.7461;-16.1417;0.5746;-0.0159;-0.0204;-0.0164
0000244348;5.7916;-16.1776;0.6488;-0.0164;-0.0132;-0.0101
0000244356;5.7748;-16.1824;0.6656;-0.0151;-0.0172;-0.0119
0000244443;5.8490;-16.2782;0.6297;-0.0069;-0.0300;-0.0117
0000244451;5.7341;-16.3572;0.5650;-0.0041;-0.0238;-0.0057
0000244459;5.8371;-16.1752;0.6201;0.0077;-0.0260;-0.0095
0000244467;5.6503;-16.3692;0.5171;0.0091;-0.0215;-0.0017
0000244475;5.7533;-16.4530;0.5770;0.0192;-0.0240;0.0009
0000244483;5.8706;-16.3021;0.5650;0.0212;-0.0189;0.0051
0000244491;5.7126;-16.4338;0.6009;0.0326;-0.0217;0.0003
0000244499;5.7581;-16.3285;0.5243;0.0456;-0.0249;0.0028
0000244507;5.6144;-16.3380;0.5842;0.0601;-0.0308;0.0032
0000244515;5.5138;-16.3213;0.6416;0.0650;-0.0372;0.0048
0000244523;5.6767;-16.1226;0.7207;0.0702;-0.0394;-0.0055
0000244531;5.6096;-16.0866;0.8140;0.0737;-0.0528;-0.0083
0000244539;5.5593;-16.0172;0.8212;0.0649;-0.0576;-0.0044
0000244547;5.5138;-15.9167;0.8571;0.0538;-0.0646;-0.0065
0000244555;5.5522;-15.8424;0.8547;0.0505;-0.0742;-0.0141
0000244563;5.6120;-15.9454;0.7877;0.0357;-0.0810;-0.0101
0000244571;5.6096;-15.8448;0.8260;0.0192;-0.0915;-0.0119
0000244579;5.5186;-15.8233;0.8428;0.0087;-0.0906;-0.0089
0000244587;5.6647;-15.8999;0.8475;-0.0027;-0.0983;-0.0091
0000244595;5.8490;-15.7826;0.8116;-0.0113;-0.0975;-0.0044
0000244603;5.7341;-15.9621;0.8116;-0.0204;-0.0969;-0.0091
0000244611;5.7581;-15.9813;0.7685;-0.0226;-0.0922;-0.0064
0000244619;5.8538;-15.9119;0.6871;-0.0332;-0.0931;-0.0095
0000244627;6.0047;-15.9693;0.6440;-0.0356;-0.0798;-0.0064
0000244635;5.7748;-16.1704;0.6560;-0.0388;-0.0790;-0.0132
0000244643;5.8682;-16.0507;0.6105;-0.0318;-0.0733;-0.0127
0000244651;5.9017;-16.2542;0.5483;-0.0318;-0.0610;-0.0067
0000244659;5.7150;-16.3069;0.4741;-0.0297;-0.0574;-0.0075
0000244667;5.7700;-16.3452;0.5291;-0.0180;-0.0577;-0.0067
0000244675;5.7700;-16.2734;0.5507;-0.0125;-0.0484;0.0015
0000244683;5.6503;-16.4865;0.5555;-0.0020;-0.0469;0.0076
0000244691;5.5115;-16.5918;0.5339;0.0101;-0.0469;0.0136
0000244699;5.6910;-16.3620;0.5938;0.0193;-0.0486;0.0228
0000244707;5.4971;-16.4769;0.6488;0.0356;-0.0592;0.0269
0000244715;5.4971;-16.3763;0.7087;0.0413;-0.0572;0.0373
0000244723;5.5952;-16.2614;0.6488;0.0485;-0.0576;0.0465
0000244731;5.4899;-16.2542;0.6752;0.0590;-0.0654;0.0468
0000244739;5.4109;-16.2997;0.6225;0.0581;-0.0661;0.0541
0000244747;5.5976;-16.0316;0.7494;0.0667;-0.0685;0.0606
0000244755;5.5426;-16.0196;0.8212;0.0641;-0.0687;0.0636
0000244763;5.4157;-16.2542;0.7422;0.0659;-0.0726;0.0677
0000244771;5.4229;-16.1633;0.7614;0.0713;-0.0779;0.0761
0000244779;5.3989;-16.2255;0.7949;0.0706;-0.0773;0.0818
0000244787;5.4779;-16.2255;0.7925;0.0773;-0.0777;0.0902
0000244795;5.3439;-16.2423;0.7015;0.0823;-0.0866;0.0863
0000244803;5.3008;-16.2471;0.7997;0.0882;-0.0877;0.0945
0000244811;5.2936;-16.2447;0.7925;0.0947;-0.0919;0.0930
0000244819;5.3726;-16.1297;0.8068;0.0997;-0.0906;0.0941
0000244827;5.1954;-16.2111;0.6464;0.1059;-0.0955;0.0895
0000244835;5.4755;-16.1800;0.7853;0.1159;-0.0973;0.0921
0000244843;5.2337;-16.2686;0.7518;0.1270;-0.1034;0.0854
0000244851;5.1451;-16.3069;0.7398;0.1374;-0.1035;0.0883
0000244859;5.1619;-16.2925;0.7063;0.1351;-0.0945;0.0905
0000244867;5.4396;-16.0028;0.6967;0.1423;-0.0963;0.0822
0000244875;5.3008;-16.1273;0.7302;0.1503;-0.0973;0.0669
0000244883;5.2050;-16.0459;0.7422;0.1579;-0.0987;0.0568
0000244891;5.1978;-16.0866;0.7111;0.1649;-0.1027;0.0432
0000244899;5.2026;-16.1776;0.8092;0.1775;-0.0977;0.0326
0000244907;4.9919;-16.2590;0.7494;0.1837;-0.0995;0.0224
0000244915;5.0589;-16.2016;0.7949;0.1939;-0.1081;0.0057
0000244923;4.9081;-16.2590;0.8260;0.2069;-0.1144;-0.0091
0000244931;4.8626;-16.1226;0.8068;0.2286;-0.1298;-0.0341
0000244939;4.9584;-16.2949;0.8164;0.2364;-0.1371;-0.0458
0000244947;4.7980;-16.2830;0.8428;0.2461;-0.1491;-0.0584
0000244955;4.8842;-16.1824;0.8787;0.2638;-0.1632;-0.0818
0000244963;4.8387;-16.2111;0.8404;0.2695;-0.1757;-0.0979
0000244971;4.9081;-16.1633;0.9242;0.2798;-0.1816;-0.1087
0000244979;4.9129;-16.1369;0.9385;0.2900;-0.1932;-0.1230
0000244987;4.7405;-16.1848;0.9792;0.3079;-0.2061;-0.1355
0000244995;4.8387;-16.1752;1.0439;0.3251;-0.2150;-0.1515
0000245003;5.0087;-15.9741;0.9529;0.3519;-0.2276;-0.1677
0000245089;4.3287;-14.9063;1.1971;0.6666;-0.3611;-0.5665
0000245097;4.4891;-14.3628;1.2665;0.6735;-0.3901;-0.6262
0000245105;4.2880;-14.2048;1.2641;0.6611;-0.4275;-0.6864
0000245113;3.9648;-13.9510;1.3862;0.6588;-0.4828;-0.7671
0000245121;3.6607;-13.9247;1.5634;0.6507;-0.5279;-0.8279
0000245129;3.4620;-13.8983;1.7023;0.6487;-0.5949;-0.9030
0000245137;3.2513;-13.7667;1.8124;0.6462;-0.6726;-0.9737
0000245145;2.6863;-13.9821;1.8483;0.6531;-0.7446;-1.0308
0000245153;2.6576;-13.7786;2.1117;0.6781;-0.8322;-1.0778
0000245161;2.4062;-13.8337;2.1069;0.7135;-0.9296;-1.0974
0000245169;2.3942;-13.8912;1.9656;0.7762;-1.0352;-1.1105
0000245177;2.6073;-13.7667;1.8794;0.8539;-1.1373;-1.0861
0000245185;2.8132;-13.6493;1.6305;0.9395;-1.2406;-1.0229
0000245193;2.8611;-13.5847;1.2761;1.0115;-1.3253;-0.8952
0000245201;3.2992;-13.1968;1.0918;1.0762;-1.4125;-0.7502
0000245209;3.7972;-12.7467;0.9385;1.1591;-1.4934;-0.5676
0000245217;4.3144;-12.2009;0.7781;1.2092;-1.5569;-0.3889
0000245225;4.7716;-11.6574;0.4741;1.2224;-1.5737;-0.2026
0000245233;5.1715;-11.1306;0.1221;1.2073;-1.5555;-0.0268
0000245241;5.4995;-10.6829;0.2538;1.2311;-1.5138;0.1187
0000245249;6.1292;-9.9479;0.3496;1.2690;-1.4273;0.2750
0000245257;6.7373;-9.2608;0.2993;1.3522;-1.3331;0.4170
0000245265;7.3334;-8.8418;0.3112;1.4127;-1.1911;0.5317
0000245273;7.8290;-8.7005;0.3400;1.4478;-1.0460;0.5978
0000245281;8.4635;-8.1858;0.3184;1.4778;-0.8825;0.6308
0000245289;9.0429;-7.6998;0.5555;1.5052;-0.7069;0.6498
0000245297;9.5361;-7.1180;0.7757;1.5439;-0.5335;0.6480
0000245305;9.9359;-6.7349;0.8595;1.5831;-0.3758;0.6203
0000245313;9.8330;-6.3590;1.4389;1.5917;-0.2212;0.5500
0000245321;9.7731;-5.8778;2.4541;1.5765;-0.0524;0.4511
0000245329;9.2512;-5.4300;3.5554;1.5068;0.1348;0.3512
0000245337;8.7125;-5.1643;4.0366;1.3861;0.3238;0.2370
0000245345;8.1666;-5.1332;3.7014;1.2204;0.5059;0.1115
0000245353;7.6686;-5.1380;3.1580;1.0457;0.6664;0.0015
0000245361;7.3358;-5.5929;2.8419;0.8836;0.8035;-0.1162
0000245369;6.8546;-6.3111;3.1987;0.7056;0.8573;-0.2563
0000245377;6.6056;-7.6088;3.3040;0.5283;0.8656;-0.4210
0000245385;6.2225;-9.4355;2.3966;0.3722;0.8483;-0.6544
0000245393;5.6599;-11.1402;1.1588;0.2467;0.8260;-0.8913
0000245401;5.0566;-12.7372;0.2155;0.1540;0.7500;-1.1225
0000245409;4.1108;-14.4322;-1.3958;0.1998;0.6891;-1.3307
0000245417;3.5865;-15.4234;-1.6137;0.3517;0.6734;-1.4420
0000245425;2.4086;-16.1273;-0.3184;0.4823;0.6023;-1.4097
0000245433;1.2977;-16.7738;0.7230;0.5738;0.4486;-1.3434
0000245441;0.4645;-17.3604;1.5395;0.6476;0.3096;-1.2608
0000245449;0.3950;-17.5734;1.9010;0.7438;0.1403;-1.1743
0000245457;1.9585;-17.1592;0.8356;0.9407;-0.0306;-1.0435
0000245465;3.8403;-16.5224;-0.3496;1.1433;-0.1402;-0.8780
0000245473;5.7221;-15.4570;-1.8076;1.2069;-0.2864;-0.7585
0000245481;6.6343;-14.3173;-0.9409;1.1478;-0.4126;-0.7229
0000245489;7.3670;-13.8122;2.6528;0.8612;-0.3528;-0.7020
0000245497;8.4970;-14.0947;4.3862;0.4996;-0.1604;-0.6149
0000245505;8.8681;-15.5599;5.2696;0.2738;0.0296;-0.5466
0000245513;8.9878;-16.8288;6.5122;0.1250;0.1612;-0.5736
0000245521;8.9830;-18.0212;6.9719;0.1243;0.1919;-0.7277
0000245529;8.0302;-19.3595;8.3151;0.0620;0.1046;-0.9088
0000245537;6.4715;-20.4034;9.6414;-0.1134;-0.0493;-1.0126
0000245545;4.0223;-20.7242;9.9886;-0.1240;-0.2663;-1.0395
0000245553;1.7119;-20.1688;7.1228;-0.0570;-0.5257;-1.0312
0000245561;-0.1389;-18.4258;5.4109;0.0561;-0.7508;-0.9731
0000245569;-1.2306;-15.8592;5.6407;0.0381;-0.9658;-0.9430
0000245577;-0.3831;-13.7284;4.1132;-0.1677;-1.1470;-0.9025
0000245585;1.4724;-13.4554;2.9018;-0.5853;-1.2808;-0.8972
0000245593;4.3000;-15.5551;2.7102;-1.1186;-1.3071;-1.0653
0000245601;6.4189;-20.1592;3.7876;-1.5286;-1.3507;-1.4132
0000245609;8.2073;-25.3666;5.2601;-1.5406;-1.3929;-1.8389
0000245617;9.7037;-29.1159;6.7014;-1.1097;-1.3520;-2.2099
0000245625;10.7212;-30.7846;8.6838;-0.4353;-1.2088;-2.4585
0000245633;10.9319;-30.3250;9.1866;0.2798;-1.0222;-2.5794
0000245641;10.3501;-27.9858;9.0333;0.8238;-0.8768;-2.7033
0000245649;8.9040;-25.2373;8.0517;1.1305;-0.8512;-2.8605
0000245735;21.7729;-19.9652;13.9127;1.9939;-2.2360;-4.1512
0000245743;34.7087;-22.3427;7.6184;1.9758;-2.5794;-4.3657
0000245751;43.3111;-22.8431;2.0279;2.1553;-2.8117;-4.3657
0000245759;50.2615;-21.9524;3.9002;2.1039;-2.2904;-4.3657
0000245767;50.4363;-20.0874;8.4324;2.1753;-1.1158;-4.3657
0000245775;41.6998;-14.6693;4.4987;2.4409;0.2178;-4.3657
0000245783;31.6537;-9.4858;2.8108;2.8024;1.0431;-4.3657
0000245791;24.2868;-5.3606;4.8315;2.7645;1.5235;-4.3657
0000245799;17.4465;-2.5091;7.1730;2.2278;1.7369;-4.3657
0000245807;11.3749;-0.9912;5.8754;1.3835;1.7618;-4.3657
0000245815;7.1275;-1.8818;2.2242;0.3372;1.5326;-4.3657
0000245823;2.4349;-4.4604;-0.2610;-0.6123;1.5868;-3.8888
0000245831;-1.5347;-6.4069;-0.6943;-0.8903;1.6619;-2.9032
0000245839;-6.1052;-8.8945;1.4581;-0.8611;1.3348;-2.0912
0000245847;-10.1394;-11.1713;4.0773;-0.6396;0.8158;-1.5343
0000245855;-11.4156;-13.0221;5.0949;0.0284;0.0993;-1.3143
0000245863;-10.0245;-13.9750;5.2840;1.0288;-0.6065;-1.1680
0000245871;-6.3829;-13.0149;3.9504;1.9866;-1.2204;-0.9156
0000245879;-2.6240;-10.3573;3.5937;2.5508;-1.7585;-0.4963
0000245887;0.9601;-7.9248;3.9456;2.6770;-2.2805;-0.0798
0000245895;5.5258;-5.4157;2.8467;2.5209;-2.9239;0.3872
0000245903;8.8825;-5.4564;3.3615;2.1174;-3.5658;0.7817
0000245911;9.1770;-2.9473;2.9544;1.7644;-4.1347;0.8895
0000245919;10.2424;-1.6568;4.7549;1.5312;-4.3657;0.8725
0000245927;11.1881;-0.2801;5.1523;1.3733;-4.3657;0.6451
0000245935;13.0652;0.7183;4.4005;1.2492;-4.3657;0.4038
0000245943;14.6286;0.0646;3.2729;1.0427;-4.3657;0.2006
0000245951;15.5025;0.1269;2.2194;0.8763;-4.3657;-0.0839
0000245959;17.5519;-0.0239;1.5634;0.8476;-4.3657;-0.4794
0000245967;20.5375;0.5219;1.2929;0.9068;-4.3657;-0.8428
0000245975;24.0569;2.1691;1.3623;0.9501;-4.3657;-1.1698
0000245983;27.0976;5.1164;1.5586;0.9999;-4.0553;-1.5038
0000245991;29.1757;8.1235;1.2282;1.0231;-3.6641;-1.7789
0000245999;29.9084;9.9359;-0.0144;0.8576;-3.3017;-1.9622
0000246007;28.2037;10.4579;-1.1133;0.3836;-2.9457;-2.0187
0000246015;25.8023;9.8090;-1.2330;-0.3889;-2.5454;-1.9861
0000246023;24.5238;8.3390;-1.1061;-1.0605;-2.1835;-1.8129
0000246031;23.6858;5.4444;-1.3767;-1.3952;-1.8752;-1.5980
0000246039;23.6547;1.7406;-1.8938;-1.4373;-1.7650;-1.3235
0000246047;24.5932;-1.1396;-1.7166;-1.2490;-1.6101;-1.0649
0000246055;25.5413;-3.2058;-1.7693;-0.9413;-1.4019;-0.7417
0000246063;27.1239;-4.7788;-0.4549;-0.6090;-1.1354;-0.3275
0000246071;27.6243;-4.6184;-0.6105;-0.3218;-0.8178;0.1470
0000246079;26.8127;-3.6057;-0.7159;-0.0537;-0.4676;0.5557
0000246087;25.7951;-2.2960;-1.5610;0.1359;-0.1359;0.8621
0000246095;23.0346;-1.5131;-2.9353;0.3214;0.1319;1.0058
0000246103;19.7617;-0.6991;-3.2417;0.4243;0.3150;1.0493
0000246111;16.8552;0.2179;-3.6344;0.4494;0.4567;1.0493
0000246119;13.7475;1.1851;-3.3686;0.3616;0.5969;0.9907
0000246127;11.1570;1.7310;-3.3543;0.2048;0.6847;0.9554
0000246135;9.4595;1.7933;-3.5506;0.0727;0.7100;1.0373
0000246143;8.6407;1.5730;-3.9433;0.0117;0.6554;1.1975
0000246151;8.4851;1.2857;-3.9959;-0.0072;0.5788;1.3093
0000246159;9.5170;0.8116;-3.9863;-0.0386;0.4758;1.3604
0000246167;10.5465;0.3256;-4.5083;-0.1075;0.3134;1.3430
0000246175;11.7053;-0.2394;-4.9153;-0.2276;0.1667;1.2814
0000246183;12.6150;-0.8332;-5.6503;-0.4068;0.0364;1.1910
0000246191;13.0580;-1.4629;-6.0861;-0.6146;-0.0849;1.0359
0000246199;13.6877;-2.1021;-6.7804;-0.8812;-0.1901;0.8112
0000246207;14.1569;-3.3399;-6.6367;-1.1999;-0.2830;0.5456
0000246215;14.8943;-4.4317;-6.5984;-1.5005;-0.3613;0.3058
0000246223;15.2511;-5.3558;-4.5969;-1.7597;-0.3889;0.1180
0000246231;15.5695;-7.2472;-3.9744;-1.8674;-0.4509;-0.0341
0000246239;15.8927;-8.7771;-2.7797;-1.7773;-0.4696;-0.1737
0000246247;16.2662;-9.8665;-2.6624;-1.5422;-0.4647;-0.2726
0000246255;16.5320;-10.5321;-2.5355;-1.2272;-0.4393;-0.3469
0000246263;16.5511;-10.7883;-2.4517;-0.9022;-0.4020;-0.3592
0000246271;16.8384;-10.3286;-2.4828;-0.5690;-0.3507;-0.3074
0000246279;16.6086;-9.9096;-2.5762;-0.1992;-0.3281;-0.2511
0000246287;16.8336;-9.4068;-2.3056;0.2214;-0.3419;-0.2053
0000246378;20.2406;-3.7014;-0.3998;-0.0861;1.0647;0.4001
0000246386;19.8719;-4.0390;-0.1772;-0.2498;1.1417;0.3786
0000246394;18.8663;-4.3694;0.6895;-0.4076;1.1880;0.3371
0000246402;17.5854;-4.6160;0.7973;-0.5630;1.2160;0.3194
0000246410;16.6924;-5.6479;1.0343;-0.6791;1.2183;0.2930
0000246418;16.1992;-6.0501;1.4293;-0.7659;1.2080;0.2687
0000246426;15.4282;-6.9959;1.7957;-0.8115;1.1719;0.2274
0000246434;14.9350;-7.7668;2.1620;-0.8154;1.1321;0.1720
0000246442;14.4538;-8.6239;2.4253;-0.7945;1.0940;0.1175
0000246450;14.1665;-9.2584;2.7270;-0.7155;1.0459;0.0402
0000246458;14.1521;-9.7492;2.8371;-0.6001;0.9908;-0.0398
0000246466;14.0372;-10.2424;2.7318;-0.4510;0.9288;-0.1379
0000246474;13.9510;-10.5872;2.7485;-0.2858;0.8625;-0.2336
0000246482;13.9199;-10.6877;2.6264;-0.1043;0.7942;-0.3234
0000246490;14.0683;-10.2735;2.7773;0.0690;0.7171;-0.3914
0000246498;14.0875;-9.8426;2.5833;0.2333;0.6460;-0.4289
0000246506;14.4131;-9.1626;2.6001;0.3581;0.5774;-0.4369
0000246514;14.5424;-8.4204;2.6001;0.4547;0.4990;-0.4289
0000246522;14.7148;-7.8889;2.5235;0.4964;0.4350;-0.4080
0000246530;14.7291;-7.1730;2.5594;0.5064;0.3772;-0.3853
0000246538;14.6477;-6.6511;2.3679;0.4994;0.3114;-0.3713
0000246546;14.7339;-6.1746;2.3320;0.4774;0.2558;-0.3451
0000246554;14.6932;-6.0549;2.2003;0.4395;0.2180;-0.3079
0000246562;14.9087;-5.6910;2.1931;0.3997;0.1751;-0.2793
0000246570;15.2726;-5.4037;2.3176;0.3540;0.1446;-0.2377
0000246578;15.4330;-5.4013;2.1811;0.3071;0.1198;-0.1988
0000246586;15.5623;-5.4324;2.2721;0.2550;0.0921;-0.1679
0000246594;15.9095;-5.3486;2.3846;0.2052;0.0653;-0.1499
0000246602;16.0723;-5.4444;2.4277;0.1564;0.0396;-0.1182
0000246610;16.2854;-5.5665;2.5474;0.1135;0.0300;-0.1018
0000246618;16.4482;-5.6144;2.7222;0.0758;0.0055;-0.0911
0000246626;16.2303;-5.8083;2.5833;0.0432;-0.0148;-0.0770
0000246634;16.3309;-5.9975;2.7509;0.0204;-0.0357;-0.0761
0000246642;16.1297;-5.9137;2.8946;0.0021;-0.0582;-0.0715
0000246650;15.7802;-5.8227;2.5690;-0.0073;-0.0802;-0.0731
0000246658;15.3301;-6.1531;2.7940;0.0332;-0.1094;-0.0695
0000246666;15.7538;-5.7796;2.3056;-0.0365;-0.1438;-0.0572
0000246674;15.2559;-6.1076;2.3128;-0.0269;-0.1697;-0.0671
0000246682;15.4306;-6.1555;2.2434;-0.0372;-0.2098;-0.0669
0000246690;15.6557;-5.8538;2.0686;-0.0469;-0.2357;-0.0452
0000246698;15.5886;-5.8083;2.1596;-0.0593;-0.2570;-0.0246
0000246706;15.4522;-6.1387;1.9752;-0.0592;-0.2799;-0.0245
0000246714;15.5886;-6.1316;1.8292;-0.0773;-0.3022;-0.0147
0000246722;15.8089;-5.7341;1.7238;-0.0947;-0.3035;0.0048
0000246730;15.8712;-6.0023;1.5850;-0.1034;-0.3126;0.0088
0000246738;16.0076;-5.9927;1.6328;-0.1226;-0.3135;0.0176
0000246746;16.0412;-6.2201;1.4892;-0.1236;-0.2983;0.0322
0000246754;16.4051;-6.2153;1.4676;-0.1302;-0.2879;0.0370
0000246762;16.5368;-6.1244;1.2929;-0.1278;-0.2678;0.0434
0000246770;16.6708;-6.4596;1.3551;-0.1263;-0.2467;0.0518
0000246778;16.6110;-6.6487;1.5203;-0.1166;-0.2304;0.0445
0000246786;17.1353;-6.6726;1.3934;-0.0730;-0.2093;0.0424
0000246794;16.9462;-6.2896;1.5610;-0.0814;-0.1828;0.0418
0000246802;16.9150;-6.6679;1.3982;-0.0613;-0.1727;0.0404
0000246810;16.9222;-6.8259;1.5993;-0.0324;-0.1522;0.0296
0000246818;16.9198;-6.6343;1.4916;-0.0217;-0.1256;0.0228
0000246826;16.7929;-6.6391;1.3958;-0.0089;-0.1123;0.0145
0000246834;16.6541;-6.6128;1.3599;0.0119;-0.0986;0.0159
0000246842;16.4338;-6.6774;1.4150;0.0257;-0.0801;0.0107
0000246850;16.4721;-6.4021;1.4246;0.0370;-0.0813;0.0013
0000246858;16.4577;-6.4524;1.3695;0.0385;-0.0666;-0.0024
0000246866;16.2590;-6.4548;1.4293;0.0452;-0.0682;-0.0060
0000246874;16.1369;-6.4260;1.4533;0.0374;-0.0554;-0.0031
0000246882;16.2327;-6.3829;1.4748;0.0332;-0.0584;-0.0108
0000246890;16.1154;-6.3590;1.3551;0.0301;-0.0588;-0.0164
0000246898;15.9957;-6.5050;1.5658;0.0277;-0.0580;-0.0244
0000246906;16.0699;-6.5362;1.5347;0.0117;-0.0529;-0.0221
0000246914;16.0699;-6.3015;1.5395;0.0059;-0.0520;-0.0253
0000246922;16.1680;-6.4667;1.5251;0.0193;-0.0549;-0.0281
0000246930;16.4984;-6.0956;1.5586;0.0063;-0.0453;-0.0244
0000246938;16.3572;-6.2225;1.4868;-0.0059;-0.0409;-0.0222
0000247025;16.3261;-6.2991;1.6352;-0.0368;0.0120;-0.0164
0000247034;16.5128;-6.3470;1.5490;-0.0400;0.0095;-0.0229
0000247043;16.5798;-6.2704;1.5251;-0.0432;0.0151;-0.0273
0000247052;16.4434;-6.2321;1.5203;-0.0509;0.0207;-0.0326
0000247061;16.2878;-6.3183;1.5371;-0.0529;0.0163;-0.0433
0000247070;16.3452;-6.2273;1.5299;-0.0658;0.0249;-0.0370
0000247079;16.1848;-6.2489;1.5490;-0.0600;0.0226;-0.0358
0000247088;16.0435;-6.3638;1.5323;-0.0553;0.0157;-0.0416
0000247097;16.0842;-6.5027;1.6448;-0.0502;0.0152;-0.0342
0000247106;16.1249;-6.3734;1.6975;-0.0425;0.0164;-0.0301
0000247115;16.0124;-6.4572;1.6903;-0.0456;0.0155;-0.0249
0000247124;16.1369;-6.3087;1.7023;-0.0226;0.0083;-0.0284
0000247133;16.2901;-6.3207;1.6113;-0.0140;0.0041;-0.0234
0000247142;16.4530;-6.0813;1.7621;-0.0035;0.0012;-0.0249
0000247151;16.3692;-6.2273;1.7071;-0.0080;-0.0028;-0.0245
0000247160;16.1944;-6.1938;1.7382;-0.0049;-0.0099;-0.0278
0000247169;16.3476;-6.2010;1.7573;-0.0117;-0.0045;-0.0184
0000247178;16.2399;-6.2417;1.7262;-0.0047;-0.0180;-0.0204
0000247187;15.9981;-6.4236;1.7765;-0.0060;-0.0207;-0.0097
0000247196;15.9669;-6.3542;1.8579;-0.0009;-0.0361;-0.0132
0000247205;15.9909;-6.3231;1.8148;-0.0044;-0.0389;-0.0055
0000247214;16.0675;-6.3279;1.7047;0.0028;-0.0526;-0.0060
0000247223;16.0771;-6.2608;1.7262;-0.0052;-0.0573;-0.0007
0000247232;16.0244;-6.3255;1.7142;-0.0031;-0.0721;-0.0035
0000247241;16.1465;-6.1842;1.7023;-0.0093;-0.0707;0.0029
0000247250;16.1800;-6.1435;1.6879;-0.0173;-0.0755;-0.0019
0000247259;16.0771;-6.3183;1.5443;-0.0226;-0.0825;-0.0115
0000247268;16.1680;-6.2968;1.6783;-0.0281;-0.0737;-0.0056
0000247277;16.1082;-6.4236;1.5299;-0.0260;-0.0729;-0.0045
0000247286;16.2878;-6.3422;1.5945;-0.0232;-0.0767;-0.0103
0000247295;16.2973;-6.2968;1.6041;-0.0147;-0.0759;-0.0145
0000247304;16.1489;-6.5721;1.6017;-0.0221;-0.0677;-0.0152
0000247313;16.4577;-6.3327;1.5251;-0.0109;-0.0671;-0.0228
0000247322;16.3309;-6.3207;1.5945;-0.0179;-0.0592;-0.0164
0000247331;16.3165;-6.4021;1.5993;-0.0127;-0.0508;-0.0193
0000247340;16.1249;-6.5074;1.4533;-0.0153;-0.0474;-0.0191
0000247349;16.0412;-6.5625;1.4868;-0.0104;-0.0257;-0.0188
0000247358;16.0124;-6.5362;1.3910;-0.0001;-0.0308;-0.0160
0000247367;16.1369;-6.4931;1.5371;0.0147;-0.0120;-0.0116
0000247376;16.4577;-6.3758;1.4700;0.0336;-0.0163;-0.0197
0000247385;16.5487;-6.3375;1.5562;0.0326;0.0017;-0.0211
0000247394;16.8049;-6.2345;1.4916;0.0366;0.0056;-0.0438
0000247403;16.6421;-6.2656;1.5275;0.0193;0.0215;-0.0461
0000247412;16.5032;-6.3470;1.4629;0.0179;0.0175;-0.0521
0000247421;16.4242;-6.2632;1.5538;0.0092;0.0421;-0.0446
0000247430;16.2542;-6.2752;1.5060;0.0083;0.0429;-0.0490
0000247439;16.3955;-6.1627;1.6113;0.0039;0.0530;-0.0458
0000247448;16.1369;-6.2153;1.6209;0.0135;0.0525;-0.0497
0000247457;16.2518;-6.1794;1.5634;0.0179;0.0533;-0.0476
0000247466;16.2806;-6.2752;1.6712;0.0075;0.0605;-0.0441
0000247475;16.2375;-6.3183;1.6783;0.0091;0.0601;-0.0376
0000247484;16.2830;-6.3327;1.7262;0.0069;0.0630;-0.0377
0000247493;16.2901;-6.1603;1.5754;0.0081;0.0584;-0.0378
0000247502;16.2111;-6.2369;1.8220;0.0024;0.0669;-0.0349
0000247511;16.3237;-6.1890;1.7837;0.0113;0.0574;-0.0390
0000247520;16.2662;-6.2417;1.7334;0.0085;0.0574;-0.0384
0000247529;16.1992;-6.2321;1.7430;0.0080;0.0652;-0.0292
0000247538;16.2159;-6.3183;1.7190;0.0100;0.0624;-0.0326
0000247547;16.0699;-6.1699;1.7645;0.0115;0.0502;-0.0336
0000247556;15.9454;-6.3231;1.7693;0.0076;0.0606;-0.0262
0000247565;16.0651;-6.2393;1.7669;0.0073;0.0494;-0.0296
0000247574;15.9861;-6.2537;1.8172;0.0052;0.0466;-0.0257
0000247583;16.1369;-6.2106;1.8340;0.0059;0.0420;-0.0241
0000247592;16.1728;-6.1962;1.8723;0.0017;0.0408;-0.0185
0000247601;16.0435;-6.3111;1.8292;-0.0020;0.0344;-0.0205
0000247610;16.1273;-6.2034;1.8483;0.0023;0.0238;-0.0257
0000247619;16.1776;-6.1699;1.9249;0.0037;0.0196;-0.0242
0000247628;16.0986;-6.2824;1.8794;-0.0012;0.0165;-0.0197
0000247637;16.0005;-6.2944;1.9058;0.0033;0.0108;-0.0197
0000247646;16.1489;-6.2560;1.9082;-0.0013;0.0063;-0.0167
0000247655;16.0172;-6.2848;1.9130;0.0000;-0.0028;-0.0184
0000247799;16.1704;-6.2489;1.7214;-0.0241;-0.0314;-0.0132
0000247808;16.3332;-6.2776;1.8196;-0.0161;-0.0252;-0.0123
0000247817;16.1273;-6.3303;1.7861;-0.0075;-0.0203;-0.0195
0000247826;16.1537;-6.3710;1.7957;0.0073;-0.0215;-0.0274
0000247835;16.2040;-6.3470;1.8148;0.0061;-0.0105;-0.0221
0000247844;16.3117;-6.2417;1.7717;0.0107;-0.0087;-0.0273
0000247853;16.2638;-6.3662;1.8292;0.0093;-0.0115;-0.0278
0000247862;16.3428;-6.0669;1.7478;0.0079;-0.0072;-0.0245
0000247871;16.2327;-6.2130;1.7502;-0.0013;-0.0039;-0.0230
0000247880;16.1992;-6.1555;1.7047;-0.0113;0.0011;-0.0208
0000247889;16.1154;-6.2345;1.8435;-0.0095;-0.0001;-0.0229
0000247898;16.2135;-6.0741;1.7813;-0.0161;0.0020;-0.0168
0000247907;16.2830;-6.1962;1.8627;-0.0225;0.0011;-0.0172
0000247916;16.3955;-6.0262;1.8627;-0.0266;0.0044;-0.0123
0000247925;16.3572;-6.1148;1.7957;-0.0216;0.0024;-0.0203
0000247934;16.1561;-6.2537;1.8699;-0.0232;0.0075;-0.0104
0000247943;16.1537;-6.4141;1.8172;-0.0183;0.0056;-0.0129
0000247952;16.1992;-6.2800;1.8747;-0.0187;-0.0007;-0.0187
0000247961;16.0938;-6.3518;1.8507;-0.0215;0.0096;-0.0139
0000247970;16.3045;-6.2249;1.8986;-0.0199;0.0056;-0.0189
0000247979;16.2279;-6.2704;1.8172;-0.0136;0.0083;-0.0159
0000247988;16.1920;-6.2608;1.8723;-0.0136;0.0027;-0.0218
0000247997;16.1226;-6.3207;1.9249;-0.0091;0.0032;-0.0207
0000248006;16.1609;-6.4380;1.9752;-0.0111;0.0047;-0.0137
0000248015;16.2016;-6.2632;1.8962;-0.0033;-0.0039;-0.0203
0000248024;15.9621;-6.2991;1.8962;-0.0055;0.0023;-0.0133
0000248033;16.2135;-6.1603;1.8675;-0.0077;-0.0085;-0.0246
0000248042;16.2494;-6.0454;1.9297;-0.0132;-0.0028;-0.0157
0000248051;16.0220;-6.2465;1.8938;-0.0121;-0.0115;-0.0171
0000248060;16.2064;-6.1579;1.9034;-0.0143;-0.0072;-0.0125
0000248069;15.9214;-6.3351;1.8531;-0.0200;-0.0095;-0.0217
0000248078;15.9574;-6.4643;1.9776;-0.0099;-0.0076;-0.0132
0000248087;16.1034;-6.2872;1.8531;-0.0105;-0.0076;-0.0144
0000248096;16.1561;-6.3207;1.9178;0.0009;-0.0111;-0.0191
0000248105;16.2447;-6.2728;1.8555;-0.0053;-0.0079;-0.0209
0000248114;16.1800;-6.1507;1.9417;0.0040;-0.0115;-0.0221
0000248123;16.0268;-6.3494;1.9010;-0.0057;-0.0091;-0.0173
0000248132;16.2087;-6.1052;1.8747;-0.0031;-0.0157;-0.0169
0000248141;16.1465;-5.9903;1.8555;-0.0061;-0.0152;-0.0216
0000248150;16.1800;-6.1220;1.8794;-0.0193;-0.0107;-0.0147
0000248159;16.1106;-6.1148;1.8148;-0.0230;-0.0216;-0.0191
0000248168;16.2040;-6.1316;1.8531;-0.0336;-0.0128;-0.0164
0000248177;16.1800;-6.2177;1.9249;-0.0364;-0.0195;-0.0193
0000248186;16.0723;-6.2345;1.8771;-0.0414;-0.0224;-0.0165
0000248195;16.1345;-6.1866;1.9297;-0.0432;-0.0213;-0.0141
0000248204;16.1680;-6.2321;1.8771;-0.0364;-0.0257;-0.0184
0000248213;16.2351;-6.1770;1.9632;-0.0370;-0.0177;-0.0161
0000248222;16.2183;-6.4069;1.9321;-0.0345;-0.0187;-0.0185
0000248231;16.0579;-6.3303;1.9249;-0.0285;-0.0230;-0.0199
0000248240;16.3644;-6.2632;2.0111;-0.0212;-0.0248;-0.0215
0000248249;16.1776;-6.2560;1.9273;-0.0131;-0.0211;-0.0225
0000248258;16.0292;-6.3782;1.9561;-0.0099;-0.0257;-0.0258
0000248267;16.2327;-6.0501;1.8890;-0.0120;-0.0220;-0.0216
0000248276;16.1058;-6.1196;1.8914;-0.0113;-0.0340;-0.0245
0000248285;16.1226;-6.1172;1.8100;-0.0189;-0.0328;-0.0181
0000248294;16.1489;-6.0669;1.8411;-0.0196;-0.0305;-0.0201
0000248303;16.2255;-6.2225;1.8292;-0.0326;-0.0274;-0.0161
0000248312;16.1537;-6.2034;1.9369;-0.0305;-0.0293;-0.0208
0000248321;15.9669;-6.4835;1.8747;-0.0296;-0.0293;-0.0293
0000248330;16.1369;-6.3494;1.8986;-0.0309;-0.0205;-0.0289
0000248339;16.1561;-6.2680;1.9297;-0.0215;-0.0216;-0.0356
0000248348;16.1656;-6.2393;1.8842;-0.0119;-0.0265;-0.0392
0000248357;16.2758;-6.1866;1.8771;-0.0131;-0.0185;-0.0372
0000248366;16.1824;-6.3063;1.9273;-0.0073;-0.0224;-0.0461
0000248375;16.3165;-6.0932;1.8004;-0.0144;-0.0141;-0.0420
0000248384;16.2327;-6.0334;1.8651;-0.0200;-0.0172;-0.0446
0000248393;16.3476;-6.1100;1.8771;-0.0221;-0.0125;-0.0376
0000248402;16.1345;-6.2273;1.8411;-0.0282;-0.0087;-0.0361
0000248411;16.2494;-6.1435;1.8627;-0.0250;-0.0073;-0.0310
0000248420;16.3692;-6.1244;1.8794;-0.0332;0.0009;-0.0270
0000248507;16.1010;-6.2177;1.9656;-0.0325;0.0041;-0.0091
0000248516;16.1824;-6.2441;1.9872;-0.0346;0.0079;-0.0043
0000248525;16.1321;-6.2537;1.9154;-0.0282;0.0053;-0.0068
0000248534;15.9813;-6.3351;1.9632;-0.0333;0.0095;-0.0075
0000248543;16.1249;-6.2728;2.0183;-0.0222;0.0033;-0.0124
0000248552;16.2518;-6.2177;2.0063;-0.0284;0.0072;-0.0073
0000248561;16.0771;-6.2728;1.9848;-0.0221;0.0004;-0.0156
0000248570;16.2351;-6.2345;2.0734;-0.0204;-0.0017;-0.0149
0000248579;16.0459;-6.2704;2.0446;-0.0209;0.0003;-0.0135
0000248588;15.9861;-6.2177;1.9728;-0.0252;0.0052;-0.0133
0000248597;15.9478;-6.3087;2.0327;-0.0160;-0.0040;-0.0250
0000248606;15.9597;-6.1986;1.9752;-0.0254;0.0020;-0.0148
0000248615;16.1010;-6.2297;2.0039;-0.0200;-0.0077;-0.0208
0000248624;16.3021;-6.2608;1.9920;-0.0179;-0.0049;-0.0225
0000248633;16.1752;-6.2944;2.0901;-0.0245;0.0019;-0.0201
0000248642;16.2878;-6.1675;1.9752;-0.0151;-0.0045;-0.0262
0000248651;16.1154;-6.2848;2.0542;-0.0125;-0.0085;-0.0218
0000248660;16.0819;-6.1890;2.0590;-0.0109;-0.0072;-0.0245
0000248669;16.0723;-6.2632;1.9824;-0.0101;-0.0076;-0.0286
0000248678;16.0172;-6.3398;1.9896;-0.0109;-0.0075;-0.0278
0000248687;16.0795;-6.2345;2.0351;-0.0111;-0.0091;-0.0273
0000248696;16.1609;-6.1818;2.0566;-0.0087;-0.0141;-0.0245
0000248705;16.1154;-6.1603;2.0135;-0.0056;-0.0149;-0.0242
0000248714;16.0819;-6.1387;1.9992;-0.0129;-0.0084;-0.0177
0000248723;15.9981;-6.1579;2.0327;-0.0125;-0.0100;-0.0160
0000248732;16.1249;-6.1411;2.0686;-0.0207;-0.0159;-0.0199
0000248741;16.0842;-6.2513;2.0255;-0.0244;-0.0197;-0.0185
0000248750;16.1226;-6.1339;2.0423;-0.0224;-0.0176;-0.0159
0000248759;16.1537;-6.2106;2.0255;-0.0238;-0.0196;-0.0143
0000248768;16.1010;-6.2776;2.0231;-0.0261;-0.0095;-0.0076
0000248777;16.1680;-6.0980;2.0686;-0.0241;-0.0195;-0.0159
0000248786;16.0268;-6.2968;2.0423;-0.0242;-0.0188;-0.0153
0000248795;16.0412;-6.1172;2.0039;-0.0204;-0.0165;-0.0120
0000248804;16.1728;-6.1531;2.0470;-0.0195;-0.0226;-0.0175
0000248813;15.9310;-6.2393;1.9872;-0.0133;-0.0273;-0.0131
0000248822;16.1800;-6.0190;1.9848;-0.0183;-0.0288;-0.0172
0000248831;16.0268;-6.2537;2.1284;-0.0237;-0.0270;-0.0081
0000248840;15.9717;-6.1531;2.0423;-0.0262;-0.0345;-0.0195
0000248849;16.0388;-6.3159;2.0016;-0.0322;-0.0297;-0.0171
0000248858;16.0052;-6.3901;2.0470;-0.0309;-0.0336;-0.0218
0000248867;16.1680;-6.2345;2.0758;-0.0183;-0.0302;-0.0216
0000248876;16.1393;-6.3398;1.9513;-0.0167;-0.0268;-0.0238
0000248885;16.2997;-6.2153;2.0686;-0.0064;-0.0282;-0.0308
0000248894;16.1249;-6.4021;2.0734;-0.0031;-0.0222;-0.0234
0000248903;16.1944;-6.2369;2.0662;-0.0011;-0.0272;-0.0329
0000248912;16.1058;-6.2082;2.0087;-0.0059;-0.0250;-0.0242
0000248921;16.1752;-6.0501;2.0087;-0.0020;-0.0289;-0.0297
0000248930;16.1082;-6.1483;2.0518;-0.0097;-0.0290;-0.0265
0000248939;16.0866;-6.0717;1.9800;-0.0221;-0.0258;-0.0242
0000248948;16.2638;-6.0214;2.0016;-0.0242;-0.0211;-0.0165
0000248957;15.9957;-6.2752;2.0518;-0.0257;-0.0230;-0.0145
0000248966;16.1417;-6.1770;2.0255;-0.0285;-0.0232;-0.0148
0000248975;16.1633;-6.2513;1.9944;-0.0322;-0.0228;-0.0144
0000248984;16.1992;-6.2920;2.0542;-0.0254;-0.0241;-0.0109
0000248993;16.2231;-6.2537;2.0494;-0.0272;-0.0180;-0.0069
0000249002;16.3117;-6.1842;1.9920;-0.0181;-0.0241;-0.0160
0000249011;16.1345;-6.2201;2.1332;-0.0234;-0.0189;-0.0159
0000249020;16.1249;-6.1675;2.0734;-0.0209;-0.0201;-0.0152
0000249029;16.2447;-6.1459;2.0111;-0.0236;-0.0185;-0.0148
0000249038;16.1202;-6.2537;2.0806;-0.0175;-0.0197;-0.0128
0000249047;15.9478;-6.3805;2.0830;-0.0193;-0.0237;-0.0230
0000249056;16.1609;-6.1770;2.0566;-0.0236;-0.0123;-0.0121
0000249065;16.2518;-6.1363;2.0183;-0.0185;-0.0230;-0.0207
0000249074;16.2399;-6.1531;2.0494;-0.0200;-0.0148;-0.0145
0000249083;16.1824;-6.2489;2.1069;-0.0183;-0.0238;-0.0209
0000249092;16.1800;-6.1986;2.0207;-0.0132;-0.0228;-0.0173
0000249101;15.9765;-6.2584;2.0183;-0.0163;-0.0260;-0.0191
0000249110;16.1704;-6.1770;2.1332;-0.0197;-0.0248;-0.0200
0000249119;16.0244;-6.2800;2.0901;-0.0204;-0.0200;-0.0175
0000249207;16.0388;-6.2465;2.1739;-0.0069;-0.0294;-0.0193
0000249216;16.1728;-6.0525;2.0542;-0.0087;-0.0313;-0.0157
0000249225;16.0124;-6.1100;1.9585;-0.0129;-0.0309;-0.0105
0000249234;16.1513;-6.1579;2.0494;-0.0068;-0.0354;-0.0147
0000249243;16.0388;-6.2968;2.0901;-0.0140;-0.0321;-0.0121
0000249252;16.0579;-6.1890;2.0806;-0.0169;-0.0348;-0.0060
0000249261;16.1010;-6.0717;2.0327;-0.0160;-0.0386;-0.0117
0000249270;16.1680;-6.1555;2.1213;-0.0226;-0.0354;-0.0076
0000249279;16.1417;-6.1675;1.9992;-0.0232;-0.0337;-0.0084
0000249288;16.0483;-6.1555;2.1117;-0.0205;-0.0376;-0.0084
0000249297;16.1297;-6.2321;2.0566;-0.0217;-0.0302;-0.0069
0000249306;16.2638;-6.2058;1.9992;-0.0165;-0.0321;-0.0129
0000249315;16.0819;-6.2273;2.0662;-0.0165;-0.0276;-0.0068
0000249324;16.1297;-6.2752;2.1021;-0.0160;-0.0277;-0.0083
0000249333;15.9813;-6.2872;2.0734;-0.0069;-0.0308;-0.0145
0000249342;16.1872;-6.1627;2.0925;-0.0137;-0.0241;-0.0088
0000249351;16.0651;-6.3015;2.0901;-0.0127;-0.0361;-0.0184
0000249360;15.9214;-6.2201;2.1069;-0.0129;-0.0301;-0.0104
0000249369;16.0340;-6.1100;2.0782;-0.0139;-0.0324;-0.0092
0000249378;16.0842;-6.0717;2.0949;-0.0155;-0.0358;-0.0103
0000249387;15.9143;-6.3159;2.0686;-0.0289;-0.0297;-0.0068
0000249396;16.0148;-6.2800;2.0853;-0.0236;-0.0409;-0.0187
0000249405;15.9885;-6.2010;2.0758;-0.0368;-0.0341;-0.0144
0000249414;16.2183;-6.2632;2.0806;-0.0274;-0.0401;-0.0192
0000249423;16.1680;-6.2441;2.1045;-0.0297;-0.0325;-0.0145
0000249432;16.0148;-6.3207;2.0255;-0.0234;-0.0320;-0.0208
0000249441;16.2159;-6.2848;2.0686;-0.0021;-0.0321;-0.0169
0000249450;16.1848;-6.1986;2.0542;-0.0061;-0.0332;-0.0242
0000249459;16.1297;-6.2369;2.0782;-0.0020;-0.0324;-0.0226
0000249468;16.2183;-6.1411;2.0303;-0.0097;-0.0301;-0.0212
0000249477;16.0172;-6.2177;2.1045;-0.0060;-0.0314;-0.0215
0000249486;16.0890;-6.1387;2.0327;-0.0201;-0.0293;-0.0153
0000249495;16.2111;-6.0454;2.0207;-0.0169;-0.0329;-0.0189
0000249504;15.9837;-6.1818;2.1165;-0.0245;-0.0292;-0.0120
0000249513;16.1489;-6.0789;2.0758;-0.0249;-0.0368;-0.0123
0000249522;16.0819;-6.1794;2.1165;-0.0277;-0.0369;-0.0155
0000249531;16.1321;-6.1794;2.1069;-0.0304;-0.0296;-0.0076
0000249540;16.1656;-6.2632;2.0399;-0.0230;-0.0349;-0.0128
0000249549;16.0531;-6.2824;2.0183;-0.0180;-0.0394;-0.0137
0000249558;16.1369;-6.1914;2.0446;-0.0187;-0.0385;-0.0152
0000249567;16.1848;-6.2249;2.0710;-0.0189;-0.0372;-0.0137
0000249576;16.0627;-6.2656;2.0303;-0.0204;-0.0354;-0.0153
0000249585;16.0507;-6.2345;1.9848;-0.0181;-0.0330;-0.0175
0000249594;15.9406;-6.3231;2.0806;-0.0236;-0.0306;-0.0135
0000249603;16.0866;-6.3327;2.0231;-0.0131;-0.0388;-0.0112
0000249612;16.1154;-6.2800;2.0399;-0.0101;-0.0276;-0.0131
0000249621;16.0771;-6.2728;2.0949;-0.0023;-0.0388;-0.0171
0000249630;16.1680;-6.1268;2.0327;-0.0124;-0.0322;-0.0152
0000249639;16.0771;-6.2369;2.0518;-0.0129;-0.0360;-0.0171
0000249648;16.1010;-6.1746;2.0853;-0.0087;-0.0381;-0.0181
0000249657;16.0435;-6.2225;2.1117;-0.0109;-0.0368;-0.0180
0000249666;16.2997;-6.1962;2.0662;-0.0207;-0.0330;-0.0140
0000249675;16.0986;-6.2369;2.0590;-0.0136;-0.0352;-0.0167
0000249684;15.9909;-6.2321;2.0686;-0.0151;-0.0381;-0.0187
0000249693;16.1010;-6.2177;2.0542;-0.0163;-0.0325;-0.0135
0000249702;16.2878;-6.1339;1.9920;-0.0217;-0.0329;-0.0155
0000249711;16.0435;-6.3518;2.0327;-0.0203;-0.0272;-0.0149
0000249720;16.1609;-6.2752;2.0590;-0.0168;-0.0266;-0.0161
0000249729;16.3069;-6.1004;2.0830;-0.0083;-0.0320;-0.0240
0000249738;16.2327;-6.0669;2.1165;-0.0156;-0.0269;-0.0156
0000249747;16.1824;-6.2393;1.9944;-0.0084;-0.0258;-0.0226
0000249754;16.0699;-6.3327;2.0111;-0.0141;-0.0244;-0.0195
0000249762;16.2255;-6.0478;2.0973;-0.0104;-0.0296;-0.0240
0000249770;15.9334;-6.2393;2.0207;-0.0119;-0.0297;-0.0220
0000249778;16.0364;-6.2106;2.1811;-0.0136;-0.0294;-0.0221
0000249786;16.1010;-6.1962;2.0255;-0.0183;-0.0290;-0.0200
0000249794;16.1393;-6.1387;2.1069;-0.0147;-0.0278;-0.0199
0000249802;16.2303;-6.1746;2.0925;-0.0153;-0.0261;-0.0163
0000249810;16.2686;-6.0597;2.1237;-0.0193;-0.0256;-0.0105
0000249818;16.1010;-6.1627;2.0949;-0.0168;-0.0292;-0.0161
