time;acc_x;acc_y;acc_z;gyro_x;gyro_y;gyro_z
0000333370;7.0102;2.7222;1.8627;-0.0103;-0.0384;-0.0087
0000333379;7.0940;2.7294;1.8794;-0.0077;-0.0486;-0.0167
0000333386;7.0916;2.6983;1.8579;-0.0093;-0.0482;-0.0151
0000333394;7.1491;2.6815;1.8675;-0.0087;-0.0521;-0.0168
0000333403;6.9767;2.6049;1.8316;-0.0105;-0.0558;-0.0156
0000333411;7.0270;2.6911;1.7789;-0.0160;-0.0560;-0.0151
0000333423;7.2042;2.7414;1.8387;-0.0177;-0.0548;-0.0176
0000333431;7.1012;2.8515;1.8292;-0.0113;-0.0609;-0.0187
0000333439;7.3454;2.8515;1.8627;-0.0181;-0.0602;-0.0140
0000333450;7.1204;2.7581;1.8196;-0.0157;-0.0673;-0.0195
0000333458;7.1946;2.6767;1.8268;-0.0192;-0.0650;-0.0176
0000333524;7.2520;2.8659;1.8579;-0.0258;-0.0436;-0.0159
0000333532;7.1395;2.6719;1.9106;-0.0242;-0.0412;-0.0189
0000333543;7.1012;2.7031;1.8699;-0.0221;-0.0361;-0.0145
0000333551;7.2975;2.9185;1.8603;-0.0135;-0.0381;-0.0175
0000333563;7.1060;2.6480;1.8771;-0.0099;-0.0338;-0.0192
0000333571;7.1563;2.6743;1.8603;-0.0127;-0.0277;-0.0143
0000333579;7.2018;2.7126;1.8148;-0.0077;-0.0310;-0.0176
0000333590;7.1802;2.7509;1.8316;-0.0145;-0.0224;-0.0144
0000333598;7.2903;2.8659;1.8411;-0.0068;-0.0265;-0.0132
0000333610;7.1204;2.7007;1.8364;-0.0115;-0.0147;-0.0145
0000333618;7.1347;2.6552;1.8364;-0.0093;-0.0164;-0.0189
0000333629;7.1275;2.8419;1.8172;-0.0148;-0.0032;-0.0123
0000333637;7.2305;2.7485;1.8699;-0.0076;-0.0080;-0.0215
0000333649;6.9528;2.7246;1.8435;-0.0101;0.0028;-0.0115
0000333657;7.2664;2.7940;1.8627;-0.0035;-0.0043;-0.0128
0000333665;6.9552;2.5642;1.8962;-0.0060;-0.0019;-0.0012
0000333676;7.1658;2.7366;1.7478;-0.0041;-0.0011;0.0024
0000333684;7.1204;2.7869;1.8196;-0.0087;-0.0015;-0.0003
0000333696;7.2377;2.7845;1.7980;-0.0087;-0.0109;-0.0043
0000333704;7.1467;2.7198;1.8531;-0.0092;-0.0135;-0.0035
0000333715;7.1539;2.7102;1.8962;-0.0081;-0.0257;-0.0124
0000333723;7.1946;2.7725;1.9010;-0.0140;-0.0192;-0.0096
0000333791;7.0054;2.8156;1.9106;-0.0270;-0.0417;-0.0160
0000333799;7.0174;2.7677;1.8292;-0.0384;-0.0428;-0.0156
0000333807;7.1228;2.7821;1.7980;-0.0522;-0.0488;-0.0144
0000333818;7.1156;2.8826;1.8316;-0.0424;-0.0600;-0.0164
0000333826;7.1635;2.7222;1.9154;-0.0397;-0.0554;-0.0176
0000333838;7.1706;2.7126;1.9273;-0.0392;-0.0606;-0.0160
0000333846;7.0342;2.5881;1.8794;-0.0414;-0.0590;-0.0152
0000333857;7.2065;2.7031;1.9249;-0.0488;-0.0606;-0.0096
0000333865;7.1539;2.6097;1.8627;-0.0453;-0.0638;-0.0128
0000333877;7.2329;2.7438;1.8914;-0.0376;-0.0612;-0.0165
0000333885;7.2592;2.7509;1.9704;-0.0308;-0.0742;-0.0237
0000333893;7.0557;2.6504;1.8603;-0.0330;-0.0714;-0.0209
0000333904;7.2209;2.6001;1.8794;-0.0281;-0.0770;-0.0281
0000333912;7.1922;2.7126;1.8220;-0.0340;-0.0725;-0.0256
0000333924;7.2640;2.6624;1.9465;-0.0244;-0.0717;-0.0276
0000333932;7.1778;2.5690;1.8866;-0.0269;-0.0663;-0.0205
0000333943;7.2903;2.6600;1.9201;-0.0216;-0.0589;-0.0147
0000333951;7.0868;2.7342;1.9609;-0.0244;-0.0529;-0.0171
0000333963;7.2185;2.6815;1.9082;-0.0241;-0.0464;-0.0193
0000333971;7.1491;2.6121;2.0327;-0.0163;-0.0390;-0.0246
0000333979;7.3143;2.8228;1.9776;-0.0092;-0.0392;-0.0252
0000333991;7.1467;2.6336;1.9632;-0.0033;-0.0285;-0.0237
0000333999;7.2281;2.7988;1.9513;-0.0061;-0.0187;-0.0135
0000334067;7.1395;2.8491;1.9609;-0.0222;-0.0009;-0.0175
0000334075;7.1347;2.6743;1.8794;-0.0269;-0.0020;-0.0123
0000334086;6.9839;2.7222;1.8794;-0.0286;0.0015;-0.0111
0000334094;7.1994;2.9090;1.9704;-0.0244;-0.0073;-0.0157
0000334106;7.1515;2.8371;1.9609;-0.0294;-0.0113;-0.0176
0000334114;6.8929;2.6025;1.9992;-0.0262;-0.0175;-0.0199
0000334122;7.0964;2.7869;1.9417;-0.0382;-0.0157;-0.0211
0000334133;6.9983;2.7773;1.9393;-0.0373;-0.0232;-0.0254
0000334141;6.9719;2.6576;1.9585;-0.0442;-0.0189;-0.0220
0000334153;7.1084;2.7581;1.9178;-0.0412;-0.0127;-0.0204
0000334161;7.1922;2.7701;2.0016;-0.0388;-0.0108;-0.0187
0000334172;7.1970;2.7007;1.8938;-0.0353;-0.0155;-0.0179
0000334180;6.8929;2.5666;1.8268;-0.0346;-0.0111;-0.0132
0000334192;7.0892;2.6887;1.9273;-0.0268;-0.0088;-0.0119
0000334200;7.0461;2.6791;1.9465;-0.0229;-0.0112;-0.0209
0000334208;7.1994;2.8132;1.9201;-0.0242;-0.0100;-0.0250
0000334219;7.0390;2.6025;1.9082;-0.0293;-0.0085;-0.0217
0000334227;7.1180;2.7031;1.8866;-0.0211;-0.0125;-0.0244
0000334239;7.0892;2.7270;1.8794;-0.0282;-0.0067;-0.0209
0000334247;7.0246;2.7342;1.9465;-0.0234;-0.0065;-0.0188
0000334259;7.1323;2.6911;1.9249;-0.0201;-0.0056;-0.0172
0000334267;7.2281;2.8132;1.9417;-0.0171;-0.0063;-0.0195
0000334335;6.9288;2.6552;1.9800;-0.0199;-0.0008;-0.0036
0000334343;7.2113;2.9090;2.0039;-0.0140;-0.0095;-0.0119
0000334351;7.0916;2.6743;2.0039;-0.0129;-0.0107;-0.0144
0000334362;6.8977;2.5809;2.0255;-0.0075;-0.0148;-0.0229
0000334370;7.0844;2.6312;2.0087;-0.0052;-0.0095;-0.0136
0000334382;7.0964;2.7198;1.9968;0.0021;-0.0085;-0.0120
0000334390;7.0126;2.6193;1.9537;-0.0061;-0.0060;-0.0060
0000334401;7.0773;2.7869;2.0446;-0.0057;0.0013;0.0008
0000334409;7.1084;2.6959;2.0590;-0.0056;-0.0019;-0.0045
0000334421;6.9743;2.7414;1.9968;-0.0035;-0.0033;-0.0075
0000334429;7.1156;2.7078;1.9872;-0.0088;-0.0007;-0.0011
0000334437;7.0006;2.8204;1.8938;-0.0197;0.0007;-0.0035
0000334448;6.8761;2.8802;1.8268;-0.0354;-0.0017;-0.0084
0000334456;6.9671;2.7845;1.9225;-0.0361;-0.0059;-0.0092
0000334468;6.9216;2.8515;1.8364;-0.0334;-0.0105;-0.0091
0000334476;6.8594;2.7102;2.0446;-0.0286;-0.0168;-0.0084
0000334487;6.9983;2.6671;1.9752;-0.0360;-0.0213;-0.0013
0000334495;7.1012;2.7294;2.1117;-0.0264;-0.0208;-0.0065
0000334507;7.1682;2.6504;1.9944;-0.0314;-0.0145;-0.0037
0000334515;7.3670;2.8419;1.9680;-0.0270;-0.0156;-0.0083
0000334523;7.1587;2.7318;2.0494;-0.0270;-0.0187;-0.0161
0000334535;7.0988;2.6911;2.0806;-0.0200;-0.0153;-0.0116
0000334543;6.9743;2.6671;2.0614;-0.0217;-0.0124;-0.0077
0000334611;7.1204;2.5833;1.9489;0.0123;-0.0085;-0.0112
0000334619;7.0006;2.6480;1.9321;0.0071;-0.0052;-0.0051
0000334630;7.0916;2.8108;1.9273;0.0152;-0.0075;-0.0077
0000334638;7.0437;2.6647;1.9010;0.0079;-0.0081;-0.0061
0000334650;7.0653;2.6528;1.8459;0.0033;-0.0025;-0.0109
0000334658;7.0054;2.7366;1.8914;0.0025;-0.0103;-0.0129
0000334666;7.0413;2.9066;1.8172;-0.0039;-0.0099;-0.0116
0000334677;7.1323;2.8706;1.8387;-0.0044;-0.0179;-0.0143
0000334685;7.0366;2.7605;1.9297;-0.0120;-0.0135;-0.0089
0000334697;7.0629;2.7461;1.8292;-0.0208;-0.0213;-0.0083
0000334705;7.0174;2.6695;2.0039;-0.0191;-0.0254;-0.0109
0000334716;7.0222;2.6887;1.9082;-0.0080;-0.0332;-0.0163
0000334724;7.0916;2.6504;1.8938;-0.0109;-0.0358;-0.0101
0000334736;7.0725;2.5929;1.9824;-0.0080;-0.0314;-0.0184
0000334744;7.4388;2.8515;1.8962;-0.0063;-0.0309;-0.0111
0000334752;7.0294;2.6863;1.9010;-0.0005;-0.0325;-0.0147
0000334764;7.0557;2.6863;1.9800;-0.0003;-0.0330;-0.0164
0000334772;7.1275;2.7773;1.9800;-0.0055;-0.0312;-0.0115
0000334783;6.9599;2.5211;1.9465;0.0001;-0.0394;-0.0155
0000334791;7.0126;2.6911;1.9273;-0.0044;-0.0348;-0.0141
0000334803;7.0006;2.7198;1.9225;-0.0045;-0.0361;-0.0163
0000334811;7.0701;2.7892;1.9465;-0.0113;-0.0369;-0.0165
0000334879;7.1156;2.7414;1.9848;-0.0140;-0.0143;-0.0129
0000334887;7.0174;2.6959;1.9321;-0.0149;-0.0089;-0.0153
0000334895;6.9025;2.4588;1.9465;-0.0109;-0.0176;-0.0196
0000334907;7.1754;2.6408;2.0016;-0.0108;-0.0096;-0.0129
0000334915;7.0366;2.7366;1.9992;-0.0045;-0.0155;-0.0169
0000334926;7.0078;2.6839;1.9632;-0.0108;-0.0077;-0.0125
0000334934;7.0246;2.8036;2.0039;-0.0093;-0.0116;-0.0111
0000334946;7.2161;2.7629;1.9178;-0.0113;-0.0132;-0.0113
0000334954;6.9839;2.6528;1.8938;-0.0099;-0.0149;-0.0131
0000334965;7.0653;2.6336;1.9417;-0.0200;-0.0125;-0.0051
0000334973;7.1108;2.7342;1.8627;-0.0212;-0.0171;-0.0079
0000334981;6.9408;2.7150;1.9561;-0.0187;-0.0222;-0.0128
0000334993;7.2042;2.6959;1.9465;-0.0187;-0.0211;-0.0121
0000335001;7.1108;2.7414;2.0111;-0.0167;-0.0211;-0.0148
0000335012;6.9336;2.5211;2.0016;-0.0099;-0.0205;-0.0149
0000335020;6.9647;2.6480;1.9585;-0.0073;-0.0265;-0.0189
0000335032;7.0270;2.7605;1.9345;-0.0053;-0.0253;-0.0197
0000335040;6.9743;2.7294;1.9824;-0.0084;-0.0248;-0.0107
0000335051;6.9935;2.6695;1.9800;-0.0104;-0.0207;-0.0064
0000335059;7.1204;2.7461;1.9369;-0.0104;-0.0193;-0.0068
0000335067;7.3119;2.7485;1.9704;0.0003;-0.0149;-0.0077
0000335079;7.0485;2.6480;1.9417;-0.0055;-0.0084;-0.0115
0000335087;7.2568;2.9425;1.7166;-0.0156;-0.0121;-0.0071
0000335155;7.1946;2.6791;1.9513;-0.0211;-0.0216;-0.0144
0000335163;7.0749;2.6001;2.0710;-0.0177;-0.0242;-0.0207
0000335175;7.0773;2.6767;1.9417;-0.0127;-0.0221;-0.0233
0000335183;7.0437;2.7318;1.9465;-0.0101;-0.0197;-0.0200
0000335194;7.0557;2.6264;2.0255;-0.0115;-0.0229;-0.0193
0000335202;7.1108;2.7869;2.0135;-0.0172;-0.0132;-0.0107
0000335210;7.0629;2.7342;2.0183;-0.0092;-0.0184;-0.0120
0000335222;7.1611;2.8060;1.8794;-0.0096;-0.0175;-0.0133
0000335230;6.9168;2.5929;1.9010;-0.0069;-0.0189;-0.0169
0000335241;7.0749;2.6001;1.9178;-0.0084;-0.0112;-0.0115
0000335249;7.2449;2.7485;1.8699;-0.0048;-0.0132;-0.0101
0000335261;7.1275;2.7414;1.9082;-0.0052;-0.0175;-0.0167
0000335269;7.2185;2.8874;1.9896;-0.0063;-0.0147;-0.0132
0000335280;7.0294;2.7964;1.9992;-0.0189;-0.0075;-0.0044
0000335288;7.0988;2.7988;1.8962;-0.0144;-0.0128;-0.0104
0000335296;7.2089;2.8252;1.9776;-0.0221;-0.0095;-0.0073
0000335308;6.9647;2.6384;1.9465;-0.0164;-0.0149;-0.0104
0000335316;7.0294;2.6983;1.9369;-0.0238;-0.0124;-0.0040
0000335327;7.0126;2.5714;1.9154;-0.0159;-0.0147;-0.0093
0000335335;7.2425;2.7557;2.0590;-0.0209;-0.0105;-0.0071
0000335347;7.2520;2.8276;1.9656;-0.0242;-0.0131;-0.0135
0000335355;7.0102;2.6217;1.9752;-0.0258;-0.0060;-0.0081
0000335423;7.0868;2.7940;2.0518;-0.0220;0.0080;-0.0016
0000335431;6.9719;2.5714;2.0039;-0.0200;0.0028;-0.0057
0000335439;7.0126;2.6312;1.9968;-0.0212;0.0089;-0.0069
0000335451;7.1347;2.7845;1.9034;-0.0234;0.0073;-0.0015
0000335459;7.0677;2.7174;1.9848;-0.0152;-0.0007;-0.0119
0000335470;6.9839;2.7701;1.9896;-0.0197;0.0009;-0.0052
0000335478;7.0006;2.7174;1.8579;-0.0189;-0.0019;-0.0076
0000335490;7.1036;2.7485;1.9201;-0.0165;-0.0137;-0.0115
0000335498;7.0030;2.8108;1.9178;-0.0173;-0.0168;-0.0123
0000335509;6.8738;2.6049;2.0159;-0.0199;-0.0153;-0.0120
0000335517;6.9192;2.6097;1.9848;-0.0173;-0.0193;-0.0155
0000335525;7.1515;2.8108;1.9465;-0.0177;-0.0217;-0.0072
0000335537;7.1850;2.6791;2.0207;-0.0081;-0.0188;-0.0104
0000335545;7.0988;2.5857;1.9609;-0.0144;-0.0180;-0.0073
0000335556;7.0773;2.7318;1.9776;-0.0188;-0.0153;-0.0083
0000335564;7.0892;2.8299;2.0207;-0.0201;-0.0168;-0.0060
0000335576;7.0677;2.7198;1.9489;-0.0185;-0.0183;-0.0069
0000335584;6.8929;2.6935;1.9872;-0.0172;-0.0240;-0.0088
0000335595;7.0102;2.7414;1.9249;-0.0191;-0.0230;-0.0067
0000335603;7.0557;2.7366;1.9130;-0.0185;-0.0245;-0.0071
0000335611;7.1228;2.8419;2.0207;-0.0212;-0.0302;-0.0117
0000335623;7.0892;2.6695;1.9824;-0.0189;-0.0261;-0.0084
0000335631;7.0988;2.6959;1.9680;-0.0189;-0.0237;-0.0063
0000335699;7.1658;2.7701;2.0327;-0.0246;-0.0322;-0.0117
0000335707;7.1946;2.7557;2.0375;-0.0199;-0.0361;-0.0131
0000335719;7.3239;2.7725;1.9154;-0.0237;-0.0269;-0.0101
0000335727;7.0198;2.8084;1.8316;-0.0422;-0.0256;-0.0039
0000335738;7.0294;2.8395;1.9321;-0.0485;-0.0372;-0.0143
0000335746;6.7852;2.6025;2.0135;-0.0424;-0.0461;-0.0155
0000335754;7.0461;2.7677;1.9513;-0.0360;-0.0420;-0.0127
0000335766;7.0390;2.6552;1.9992;-0.0258;-0.0534;-0.0164
0000335774;6.8426;2.5426;1.9154;-0.0250;-0.0501;-0.0125
0000335785;7.2209;2.6480;1.9537;-0.0244;-0.0492;-0.0112
0000335793;6.9743;2.5426;2.0518;-0.0246;-0.0460;-0.0215
0000335805;7.2185;2.7677;1.9776;-0.0258;-0.0377;-0.0135
0000335813;7.0222;2.7390;2.0494;-0.0222;-0.0409;-0.0161
0000335824;7.0437;2.5977;1.9704;-0.0185;-0.0380;-0.0135
0000335832;7.0078;2.7246;1.9561;-0.0137;-0.0441;-0.0147
0000335840;7.1778;2.7342;2.0135;-0.0191;-0.0418;-0.0088
0000335852;7.2760;2.8347;1.8699;-0.0161;-0.0449;-0.0133
0000335860;7.1323;2.6169;1.9872;-0.0111;-0.0445;-0.0064
0000335871;6.9671;2.7342;1.9872;-0.0211;-0.0413;-0.0113
0000335879;7.0318;2.6576;1.9393;-0.0193;-0.0442;-0.0087
0000335891;7.0964;2.6959;1.9561;-0.0222;-0.0414;-0.0068
0000335899;6.9097;2.5259;2.0111;-0.0226;-0.0416;-0.0095
0000335967;7.0294;2.7701;2.0303;-0.0179;-0.0574;-0.0097
0000335975;7.1228;2.7318;1.9513;-0.0229;-0.0516;-0.0047
0000335983;6.9216;2.6767;1.9369;-0.0224;-0.0498;-0.0068
0000335995;6.9839;2.6767;1.9872;-0.0249;-0.0489;-0.0077
0000336003;7.1874;2.7725;2.0016;-0.0305;-0.0493;-0.0139
0000336014;7.2592;2.7629;1.9680;-0.0328;-0.0485;-0.0112
0000336022;7.0078;2.5833;1.9728;-0.0266;-0.0508;-0.0108
0000336034;7.0390;2.6791;2.0063;-0.0254;-0.0541;-0.0132
0000336042;7.1371;2.7964;2.0303;-0.0308;-0.0478;-0.0057
0000336053;7.0797;2.5953;1.9824;-0.0309;-0.0437;-0.0093
0000336061;7.1611;2.7581;2.0494;-0.0290;-0.0426;-0.0056
0000336069;7.0222;2.6671;2.0590;-0.0222;-0.0490;-0.0117
0000336081;7.1108;2.6983;1.9920;-0.0199;-0.0472;-0.0105
0000336089;7.0988;2.6743;2.0830;-0.0274;-0.0426;-0.0117
0000336100;7.1156;2.6791;2.0351;-0.0268;-0.0382;-0.0141
0000336108;7.0940;2.6528;2.0830;-0.0272;-0.0377;-0.0077
0000336120;7.1156;2.7701;1.9992;-0.0256;-0.0404;-0.0139
0000336128;7.1443;2.7845;1.9776;-0.0224;-0.0408;-0.0181
0000336140;7.2353;2.8108;2.0303;-0.0187;-0.0396;-0.0125
0000336148;7.0940;2.6743;1.9609;-0.0270;-0.0454;-0.0151
0000336156;7.2449;2.8252;2.0470;-0.0244;-0.0381;-0.0127
0000336220;7.0964;2.7725;2.0399;-0.0218;-0.0290;-0.0093
0000336228;6.8235;2.5355;2.1284;-0.0262;-0.0310;-0.0045
0000336240;7.0102;2.6935;2.0734;-0.0225;-0.0340;-0.0103
0000336248;7.0964;2.7150;1.9800;-0.0184;-0.0364;-0.0137
0000336260;7.1539;2.8683;1.9178;-0.0177;-0.0378;-0.0141
0000336268;7.1156;2.8036;1.9297;-0.0245;-0.0374;-0.0069
0000336280;7.0964;2.6264;2.0231;-0.0238;-0.0426;-0.0164
0000336288;7.0246;2.6169;1.9680;-0.0173;-0.0489;-0.0171
0000336296;7.2209;2.7964;2.0542;-0.0229;-0.0416;-0.0108
0000336307;7.0701;2.5570;1.9872;-0.0103;-0.0466;-0.0230
0000336315;7.0078;2.5714;2.0470;-0.0173;-0.0438;-0.0176
0000336327;6.9863;2.6959;2.0111;-0.0228;-0.0422;-0.0103
0000336335;6.8881;2.6600;2.0087;-0.0209;-0.0449;-0.0133
0000336346;7.1036;2.6624;2.1117;-0.0230;-0.0474;-0.0124
0000336354;7.0701;2.6264;2.0542;-0.0175;-0.0458;-0.0207
0000336366;7.2616;2.7270;2.0710;-0.0196;-0.0382;-0.0136
0000336374;7.2113;2.7677;1.9489;-0.0285;-0.0272;-0.0117
0000336382;7.2449;2.9018;1.9249;-0.0350;-0.0344;-0.0141
0000336393;7.1347;2.9616;2.0399;-0.0482;-0.0334;-0.0121
0000336401;7.0342;2.7270;2.0590;-0.0400;-0.0420;-0.0224
0000336413;7.1635;2.7366;1.9800;-0.0354;-0.0438;-0.0272
0000336421;7.1108;2.7438;2.0231;-0.0393;-0.0448;-0.0230
0000336485;7.2832;2.4732;2.0638;-0.0032;-0.0721;-0.0632
0000336493;7.2544;2.6887;2.0518;0.0019;-0.0654;-0.0600
0000336505;7.3047;2.6647;1.9010;0.0061;-0.0662;-0.0621
0000336513;7.4531;2.6791;1.9106;0.0013;-0.0553;-0.0550
0000336521;7.3694;2.5666;1.9273;0.0021;-0.0584;-0.0568
0000336532;7.3215;2.5163;2.0063;0.0037;-0.0504;-0.0512
0000336540;7.4675;2.6264;1.8914;-0.0009;-0.0480;-0.0430
0000336552;7.4316;2.5498;1.9800;-0.0017;-0.0482;-0.0430
0000336560;7.4843;2.5091;1.9609;-0.0036;-0.0534;-0.0506
0000336571;7.6830;2.8084;1.9944;-0.0072;-0.0501;-0.0462
0000336579;7.5657;2.7294;1.9441;-0.0031;-0.0625;-0.0604
0000336591;7.3813;2.5833;1.9154;-0.0003;-0.0584;-0.0588
0000336599;7.3095;2.4157;1.9704;0.0100;-0.0737;-0.0652
0000336607;7.2927;2.5426;1.9896;0.0015;-0.0759;-0.0537
0000336618;7.3765;2.5642;1.8723;-0.0019;-0.0798;-0.0544
0000336626;7.4101;2.7150;1.7669;-0.0092;-0.0827;-0.0525
0000336638;7.4915;2.7390;1.8124;-0.0229;-0.0890;-0.0537
0000336646;7.4843;2.8180;1.8411;-0.0372;-0.0966;-0.0544
0000336657;7.7548;2.9161;1.8579;-0.0525;-0.1095;-0.0520
0000336665;7.6614;2.6983;1.9249;-0.0641;-0.1134;-0.0544
0000336677;7.7357;2.8132;1.9369;-0.0713;-0.1187;-0.0602
0000336685;7.6782;2.5546;1.9800;-0.0765;-0.1212;-0.0694
0000336693;7.5441;2.5426;1.9656;-0.0811;-0.1259;-0.0813
0000336757;7.8578;2.5498;1.9920;-0.1112;-0.1945;-0.1067
0000336765;7.7045;2.4876;1.9513;-0.1091;-0.1912;-0.1131
0000336777;7.8650;2.4972;2.0901;-0.0942;-0.1889;-0.1260
0000336785;7.9751;2.5019;2.1979;-0.0879;-0.1952;-0.1323
0000336796;7.8099;2.5283;2.0710;-0.0765;-0.1957;-0.1364
0000336804;7.7740;2.4876;2.1404;-0.0642;-0.1953;-0.1382
0000336816;7.8290;2.5570;1.9704;-0.0693;-0.1958;-0.1336
0000336824;7.7117;2.3463;2.1428;-0.0751;-0.1994;-0.1286
0000336832;7.9224;2.6360;2.0997;-0.0855;-0.1989;-0.1279
0000336844;7.8817;2.5642;2.1284;-0.0833;-0.2112;-0.1402
0000336852;7.7644;2.5019;2.1093;-0.0718;-0.2333;-0.1395
0000336864;7.8554;2.3798;2.1237;-0.0642;-0.2535;-0.1306
0000336872;7.8243;2.3679;2.0518;-0.0504;-0.2618;-0.1283
0000336883;8.0349;2.3176;2.0183;-0.0282;-0.2695;-0.1347
0000336891;8.0828;2.3272;2.0470;-0.0302;-0.2681;-0.1339
0000336903;8.1810;2.4852;2.0806;-0.0310;-0.2689;-0.1438
0000336911;8.2911;2.5331;2.0351;-0.0320;-0.2848;-0.1608
0000336919;8.0086;2.4062;2.0997;-0.0309;-0.2970;-0.1664
0000336930;8.0230;2.3846;1.9944;-0.0492;-0.3022;-0.1775
0000336938;7.9487;2.4277;1.9201;-0.0608;-0.3104;-0.1816
0000336950;7.8554;2.6169;1.9680;-0.0974;-0.3150;-0.1775
0000336958;7.9583;2.6432;1.9249;-0.1128;-0.3219;-0.1777
0000337022;9.0070;1.9201;2.4349;-0.1152;-0.2527;-0.1717
0000337030;8.7221;1.7358;2.3296;-0.1131;-0.2388;-0.1935
0000337042;8.2384;2.1261;2.2170;-0.1208;-0.2218;-0.2361
0000337050;7.9703;2.2793;2.1859;-0.1508;-0.2070;-0.2316
0000337058;7.7644;2.2697;2.0566;-0.1793;-0.1969;-0.2190
0000337070;8.0254;2.1572;2.3463;-0.1877;-0.2064;-0.2165
0000337078;8.3270;2.0111;2.4086;-0.1651;-0.2145;-0.2221
0000337090;8.6838;1.4317;2.6767;-0.1182;-0.2129;-0.2292
0000337098;9.0405;1.5036;2.6863;-0.0549;-0.2113;-0.2466
0000337110;9.2632;1.1588;2.8012;0.0100;-0.1881;-0.2733
0000337118;9.3206;0.8859;2.7509;0.0382;-0.1577;-0.2734
0000337130;9.0716;1.0008;2.7581;0.0414;-0.1143;-0.2795
0000337138;9.0668;1.2857;2.4038;0.0063;-0.0830;-0.2922
0000337146;8.3558;0.9361;2.4995;-0.0329;-0.0542;-0.2822
0000337157;7.5968;1.2378;2.1284;-0.0661;-0.0282;-0.2276
0000337165;7.2377;1.2330;2.0877;-0.1154;-0.0131;-0.2050
0000337177;7.5896;1.5299;2.0853;-0.1635;0.0163;-0.1603
0000337185;7.9847;1.3192;2.4086;-0.1787;0.0250;-0.1508
0000337196;8.7317;0.9960;2.6073;-0.1547;0.0508;-0.1779
0000337204;9.0214;0.3448;2.4157;-0.1234;0.1003;-0.1728
0000337216;8.9136;0.0694;2.3559;-0.0581;0.1757;-0.1715
0000337224;9.0501;0.0455;2.3846;-0.0342;0.2252;-0.1804
0000337232;8.8466;-0.1101;2.3655;-0.0261;0.2582;-0.1691
0000337296;6.2896;0.1844;1.3982;-0.3026;0.3368;0.0127
0000337304;6.1914;-0.0359;1.4126;-0.3401;0.3435;0.0726
0000337316;6.3398;-0.7518;1.3958;-0.3801;0.2950;0.1358
0000337324;7.0126;-1.0415;1.4126;-0.3718;0.2161;0.1370
0000337336;7.1826;-1.3958;0.9026;-0.3404;0.1326;0.0785
0000337344;7.1994;-1.0534;0.6153;-0.3563;0.1010;0.0016
0000337352;6.8546;-0.5195;0.8523;-0.4214;0.0650;-0.0925
0000337364;6.9192;0.2538;1.2905;-0.4971;0.0293;-0.2213
0000337372;7.4220;0.1413;1.5490;-0.5101;0.0156;-0.2689
0000337383;7.8434;-0.7374;1.5897;-0.4815;0.0674;-0.3115
0000337391;8.3246;-1.2354;1.6400;-0.4491;0.1412;-0.3592
0000337403;9.3925;-1.6424;1.2426;-0.3667;0.3416;-0.4490
0000337411;9.8545;-1.5921;1.2809;-0.2968;0.5211;-0.4944
0000337422;10.1394;-2.1548;0.6177;-0.2176;0.7721;-0.4999
0000337430;10.1347;-2.1045;0.2873;-0.1883;0.9062;-0.4401
0000337438;9.7037;-2.0375;0.2729;-0.1978;0.9910;-0.3495
0000337450;9.0597;-1.9632;0.8547;-0.2038;1.0087;-0.2108
0000337458;8.6167;-1.9848;1.0774;-0.2116;0.9773;-0.1669
0000337470;8.5617;-1.8794;1.4389;-0.2258;0.8843;-0.1990
0000337478;8.7819;-1.7909;1.9537;-0.2261;0.8531;-0.2646
0000337490;9.1554;-1.4533;2.5522;-0.2205;0.8992;-0.3487
0000337498;10.0126;-1.3120;2.7940;-0.1805;0.9777;-0.3974
0000337564;6.5098;-4.7429;2.6552;0.2419;1.2327;-0.7861
0000337572;6.3351;-4.5873;2.5546;0.3472;1.1894;-0.9142
0000337580;6.0023;-4.6543;2.5163;0.4258;1.1762;-1.0207
0000337592;5.3917;-4.5011;3.3279;0.4895;1.1540;-1.1255
0000337600;4.2617;-3.8331;5.2074;0.4142;1.0813;-1.1823
0000337612;1.7334;-0.2442;10.1538;-0.0609;0.7789;-1.2240
0000337620;-0.8787;2.2625;16.2518;-0.5083;0.3607;-1.2359
0000337632;-4.4748;3.7469;20.5159;-0.0069;-0.4137;-1.4526
0000337640;-3.4309;3.0358;15.6820;0.9369;-0.4742;-1.9139
0000337652;2.8635;3.8954;8.7580;1.1362;-0.0104;-2.5540
0000337660;6.0166;4.0175;5.7437;1.0119;0.3547;-2.6061
0000337668;8.8681;4.5370;2.9975;0.9858;0.7862;-2.3100
0000337680;10.4507;6.0023;1.6400;1.0833;1.4136;-2.0022
0000337688;9.9766;5.1619;-0.0359;1.0543;1.7400;-2.0755
0000337700;8.1116;2.4229;-2.9999;0.9435;1.9918;-2.4920
0000337708;6.7876;0.7853;-3.5698;0.7284;2.0014;-2.7340
0000337720;5.5881;-0.7111;-3.1915;0.3691;1.7809;-2.8709
0000337728;5.5450;-1.2761;-2.5714;0.3074;1.6995;-2.8831
0000337740;6.6008;-2.0614;-1.9585;0.4988;1.9264;-2.9324
0000337748;7.6255;-3.0909;-2.3200;0.7354;2.2692;-2.9769
0000337756;8.4204;-4.2880;-3.7661;0.9431;2.7074;-2.9541
0000337768;8.5688;-5.3558;-5.1834;1.2529;3.3566;-2.7915
0000337776;6.6559;-5.1523;-5.3726;1.4939;3.7553;-2.7110
0000337842;-3.1340;36.7845;-19.2111;-0.1454;-0.5035;-4.3657
0000337850;-33.3943;1.3671;-3.4261;-0.8360;0.0176;-4.3657
0000337862;-17.9828;-6.9863;-2.0710;-0.5598;-0.5753;-4.1663
0000337870;-8.3151;-8.7125;-5.2337;0.4815;-1.4978;-3.7116
0000337882;0.6393;-4.4748;-7.7428;1.2506;-2.2924;-2.9824
0000337890;1.9680;1.6257;-6.6104;1.2859;-2.2769;-2.5217
0000337902;-0.0311;7.4412;-4.4628;1.0099;-1.6804;-2.3013
0000337910;1.8890;6.2513;-5.6407;0.5729;-1.3083;-2.6326
0000337918;0.9409;2.0638;-4.4915;0.0746;-1.0625;-2.8956
0000337930;-0.2729;-6.4308;-1.3336;-0.3304;-0.8480;-2.9379
0000337938;-1.4054;-9.1698;0.6488;-0.1412;-0.7384;-2.9176
0000337950;-1.9944;-10.9942;1.4054;0.4339;-0.5429;-2.8136
0000337958;-2.1404;-10.3597;-0.1748;0.8589;-0.5373;-2.6706
0000337970;-1.6089;-8.5377;-2.6384;1.0925;-0.6166;-2.4945
0000337978;-0.9146;-6.3446;-3.2058;1.0333;-0.7088;-2.4690
0000337990;-0.0694;-5.1380;-2.4804;0.8128;-0.7346;-2.6089
0000337998;0.3950;-5.2433;-1.6161;0.6975;-0.6828;-2.7418
0000338010;1.4844;-7.5034;-0.4477;0.6524;-0.4844;-2.9481
0000338018;0.9864;-9.6151;-0.0144;0.7228;-0.2835;-3.1079
0000338026;0.3926;-10.9415;-0.2035;0.8891;-0.0943;-3.2237
0000338038;-1.4365;-12.0835;-0.8859;1.0754;0.1326;-3.2967
0000338046;-2.6815;-12.3038;-1.7095;1.1631;0.1667;-3.2826
0000338112;-10.5800;-16.6972;-1.0367;0.3969;0.7317;-1.6140
0000338120;-9.1051;-17.1233;-1.2498;0.1391;0.7817;-0.9850
0000338132;-6.6774;-16.2878;-1.7214;-0.1418;0.7556;-0.1100
0000338140;-6.1435;-15.1721;-1.1061;-0.2134;0.6941;0.3479
0000338152;-3.7804;-14.0372;-2.0207;-0.1266;0.5004;0.7378
0000338160;-3.1699;-13.1490;-2.8012;-0.0095;0.3612;0.8501
0000338172;-1.6209;-12.4714;-2.7605;0.1824;0.1338;0.8968
0000338180;-1.4389;-12.2032;-1.9489;0.3762;0.0007;0.9026
0000338192;0.9050;-11.8154;-2.9161;0.6590;-0.1721;0.7678
0000338200;2.3176;-11.2312;-2.9808;0.8295;-0.3148;0.6384
0000338208;3.2346;-11.0133;-2.8347;0.9569;-0.4293;0.5324
0000338220;3.8451;-10.1993;-3.0095;1.0599;-0.5658;0.3981
0000338228;3.5482;-9.9958;-3.5578;1.1135;-0.5786;0.2974
0000338240;3.1077;-9.3063;-4.1492;1.1145;-0.5313;0.0520
0000338248;2.5857;-9.0788;-4.6615;1.0186;-0.4991;-0.1051
0000338260;0.1341;-9.2057;-4.7405;0.7782;-0.4944;-0.2040
0000338268;-1.6400;-10.1227;-3.9911;0.7437;-0.5577;-0.2088
0000338280;-3.1244;-11.5927;-3.1771;0.7875;-0.6380;-0.0874
0000338288;-3.5386;-12.2942;-2.6911;0.8027;-0.6706;0.0755
0000338300;-4.4628;-12.9718;-1.8244;0.7707;-0.7011;0.3712
0000338308;-5.6551;-12.8928;-1.5323;0.7486;-0.6897;0.5696
0000338316;-6.7301;-12.7036;-1.5275;0.7151;-0.6973;0.7601
0000338385;-4.6855;-8.9160;0.8882;0.9783;-1.4266;0.9650
0000338394;-4.8530;-8.6000;1.0774;1.2148;-1.4955;0.7536
0000338407;-5.1763;-8.2863;2.2386;1.4532;-1.5418;0.4563
0000338416;-5.1451;-8.2600;1.7597;1.5178;-1.5011;0.2785
0000338429;-4.3383;-8.0110;1.3431;1.4336;-1.4430;0.0863
0000338438;-3.6607;-7.9966;0.5602;1.3376;-1.4432;0.0469
0000338451;-2.7629;-8.0852;-0.9960;1.3523;-1.4468;-0.0249
0000338460;-1.9776;-7.6662;-1.1349;1.3456;-1.4256;-0.1025
0000338473;-1.6065;-7.1084;-1.1181;1.3338;-1.4308;-0.1573
0000338482;-1.6520;-6.7157;-1.4222;1.3471;-1.4879;-0.0802
0000338491;-0.8547;-6.3446;-2.4253;1.3611;-1.5134;0.0552
0000338504;0.0431;-5.6072;-2.2793;1.2211;-1.5179;0.2013
0000338513;-0.1269;-5.0949;-0.1341;1.0729;-1.5186;0.2089
0000338526;-1.2139;-4.4915;3.5338;0.8529;-1.4027;0.1140
0000338535;-1.4461;-4.2282;5.3319;0.7386;-1.1951;0.0013
0000338548;-1.5754;-3.8044;5.9352;0.6081;-0.8444;-0.1817
0000338557;-1.3599;-3.8355;6.1124;0.5065;-0.6372;-0.2597
0000338570;-0.9888;-3.9768;6.1627;0.1569;-0.3821;-0.1879
0000338579;-1.4629;-4.6495;6.1196;-0.1636;-0.2092;-0.0907
0000338592;-1.8866;-5.7724;5.8442;-0.5887;0.0244;-0.0120
0000338601;-2.5235;-6.4548;5.4899;-0.7878;0.1158;0.0296
0000338610;-3.0239;-7.2377;4.9584;-0.9118;0.1749;0.0625
0000338679;-1.5562;-8.9878;3.0933;-0.2374;0.3709;0.0757
0000338688;-1.7526;-8.7771;3.0933;-0.0955;0.3889;0.0751
0000338701;-2.0542;-8.3965;2.8611;0.0514;0.4317;0.0738
0000338710;-2.6983;-8.0110;2.7605;0.1017;0.4568;0.0658
0000338723;-3.1843;-7.3789;2.4014;0.1015;0.4731;0.0358
0000338732;-3.5769;-7.1754;2.1979;0.0556;0.4724;0.0101
0000338745;-4.3886;-7.1275;2.0231;-0.0493;0.4411;-0.0289
0000338754;-4.4676;-7.3837;1.8435;-0.1387;0.4137;-0.0366
0000338763;-4.3838;-7.5489;1.8148;-0.2306;0.3856;-0.0406
0000338776;-4.1108;-8.0038;1.8340;-0.2923;0.3353;-0.0333
0000338785;-3.6009;-8.1331;1.9130;-0.3100;0.3171;-0.0073
0000338798;-3.3686;-8.5281;1.9609;-0.2832;0.2954;0.0314
0000338807;-3.5889;-8.6694;1.9178;-0.2521;0.2974;0.0747
0000338820;-4.0654;-8.7843;1.8052;-0.1729;0.3082;0.1168
0000338829;-4.3766;-8.6838;1.5993;-0.0963;0.3004;0.1186
0000338842;-4.7142;-8.3103;1.2163;-0.0056;0.2721;0.1207
0000338851;-4.7716;-7.9942;1.1085;0.0345;0.2300;0.0985
0000338860;-4.7525;-7.7237;1.0271;0.0409;0.1908;0.0679
0000338873;-4.6400;-7.3646;1.1085;0.0297;0.1142;0.0124
0000338882;-3.9744;-7.2975;1.2282;0.0091;0.0549;-0.0320
0000338898;-3.6033;-7.6088;1.2450;-0.0464;-0.0183;-0.0626
0000338907;-3.3399;-7.7572;1.2330;-0.0434;-0.0557;-0.0693
0000338976;-3.7613;-7.7285;1.8555;0.0400;-0.1701;-0.0256
0000338985;-3.6200;-7.7883;2.0135;0.0438;-0.1759;-0.0405
0000338997;-3.6296;-7.6662;2.0351;0.0278;-0.1705;-0.0614
0000339006;-3.6392;-7.7835;2.1404;0.0203;-0.1657;-0.0699
0000339015;-3.5434;-7.7476;2.1237;-0.0003;-0.1460;-0.0698
0000339028;-3.3567;-7.7045;2.1787;-0.0211;-0.1274;-0.0753
0000339037;-3.3423;-7.9392;2.0758;-0.0354;-0.1126;-0.0755
0000339049;-3.1173;-7.9224;2.0327;-0.0397;-0.1051;-0.0638
0000339058;-3.2130;-8.0517;2.0470;-0.0492;-0.0901;-0.0486
0000339071;-3.2465;-8.0685;2.0686;-0.0448;-0.0786;-0.0288
0000339080;-3.0789;-7.9440;2.1093;-0.0416;-0.0811;-0.0220
0000339092;-3.2609;-8.0972;2.1979;-0.0364;-0.0759;-0.0071
0000339101;-2.9712;-7.8099;2.0973;-0.0349;-0.0739;-0.0011
0000339114;-3.2154;-7.9703;2.1907;-0.0377;-0.0646;0.0041
0000339123;-3.2513;-7.8841;2.2625;-0.0378;-0.0548;0.0068
0000339135;-3.5123;-8.0373;2.2218;-0.0448;-0.0357;0.0125
0000339144;-3.4093;-8.0206;2.2170;-0.0556;-0.0151;0.0252
0000339153;-3.2729;-7.9799;2.1715;-0.0461;-0.0073;0.0274
0000339222;-3.3351;-7.7572;1.9680;-0.0413;0.0197;0.0261
0000339231;-3.4213;-7.9080;1.9249;-0.0304;0.0108;0.0131
0000339243;-3.5410;-8.0278;1.8651;-0.0217;0.0064;0.0091
0000339252;-3.4141;-7.8865;1.8244;-0.0187;0.0095;0.0159
0000339265;-3.7948;-8.0828;1.7813;-0.0096;-0.0032;0.0233
0000339274;-3.6320;-7.9224;1.8699;-0.0112;-0.0045;0.0246
0000339286;-3.6655;-7.9631;1.8962;-0.0068;-0.0100;0.0179
0000339295;-3.6129;-7.8338;1.9728;-0.0051;-0.0160;0.0079
0000339308;-3.5027;-7.8769;1.9178;0.0035;-0.0192;-0.0048
0000339317;-3.4309;-7.6543;1.8866;-0.0008;-0.0135;-0.0037
0000339326;-3.3447;-7.6638;1.8651;-0.0003;-0.0199;-0.0151
0000339338;-3.4979;-7.7357;1.8794;-0.0065;-0.0273;-0.0209
0000339347;-3.5099;-7.7692;1.8699;0.0001;-0.0400;-0.0285
0000339360;-3.3950;-7.7141;1.6400;-0.0091;-0.0533;-0.0292
0000339369;-3.6799;-7.9152;1.7238;-0.0163;-0.0678;-0.0250
0000339381;-3.5147;-7.8697;1.7454;-0.0209;-0.0861;-0.0288
0000339390;-3.7876;-7.8961;1.9728;-0.0241;-0.0989;-0.0320
0000339403;-3.5698;-7.7859;1.9609;-0.0386;-0.1086;-0.0333
0000339412;-3.5769;-7.9200;1.8794;-0.0410;-0.1035;-0.0320
0000339424;-3.6416;-7.9464;2.0135;-0.0508;-0.1010;-0.0338
0000339433;-3.5841;-7.9631;1.9465;-0.0477;-0.1051;-0.0361
0000339442;-3.4069;-7.9080;1.9345;-0.0574;-0.0981;-0.0228
0000339511;-3.4333;-7.9703;2.0446;-0.0061;-0.0428;-0.0016
0000339520;-3.3543;-7.7955;1.9680;-0.0116;-0.0349;0.0097
0000339532;-3.3686;-7.7548;2.0830;-0.0101;-0.0333;0.0109
0000339541;-3.3064;-7.7213;2.0470;-0.0199;-0.0237;0.0128
0000339554;-3.5291;-7.7931;2.0446;-0.0213;-0.0232;0.0048
0000339563;-3.7302;-7.9128;1.9369;-0.0237;-0.0262;-0.0027
0000339575;-3.5482;-7.7859;2.0327;-0.0230;-0.0232;-0.0124
0000339584;-3.4213;-7.6806;2.0159;-0.0236;-0.0281;-0.0229
0000339597;-3.5506;-7.8219;1.9728;-0.0260;-0.0277;-0.0252
0000339606;-3.4716;-7.9272;1.8387;-0.0248;-0.0346;-0.0290
0000339618;-3.6224;-8.1092;1.9680;-0.0302;-0.0405;-0.0314
0000339627;-3.3279;-7.9320;2.0710;-0.0269;-0.0329;-0.0205
0000339636;-3.6081;-8.1642;2.0710;-0.0216;-0.0308;-0.0208
0000339649;-3.4716;-8.0206;2.0494;-0.0119;-0.0300;-0.0079
0000339658;-3.5674;-8.1068;2.0231;-0.0084;-0.0232;-0.0044
0000339670;-3.4955;-8.0373;2.0207;-0.0021;-0.0301;0.0060
0000339679;-3.4429;-7.9057;1.9082;-0.0027;-0.0338;-0.0016
0000339692;-3.5267;-7.9679;1.9704;-0.0008;-0.0417;-0.0015
0000339701;-3.4836;-7.9152;2.0542;-0.0087;-0.0354;0.0028
0000339713;-3.4093;-7.7764;2.0087;-0.0137;-0.0332;-0.0027
0000339722;-3.4165;-7.8386;1.9656;-0.0119;-0.0294;-0.0020
0000339791;-3.3160;-7.7907;1.8962;-0.0148;-0.0333;-0.0225
0000339800;-3.5721;-7.8673;1.9345;-0.0173;-0.0408;-0.0318
0000339809;-3.3399;-7.8410;1.9393;-0.0208;-0.0370;-0.0298
0000339821;-3.3615;-7.8482;2.0016;-0.0185;-0.0438;-0.0376
0000339830;-3.4381;-7.9152;1.8507;-0.0204;-0.0432;-0.0294
0000339843;-3.3615;-7.8913;1.9561;-0.0208;-0.0394;-0.0353
0000339852;-3.4836;-7.9703;1.9896;-0.0179;-0.0394;-0.0368
0000339864;-3.5362;-7.8650;2.0231;-0.0148;-0.0413;-0.0322
0000339873;-3.4644;-7.7931;2.0518;-0.0141;-0.0328;-0.0238
0000339886;-3.5602;-8.0302;2.0686;-0.0103;-0.0417;-0.0226
0000339895;-3.4261;-7.9464;1.9800;-0.0128;-0.0413;-0.0165
0000339907;-3.2896;-7.7740;1.9561;-0.0084;-0.0394;-0.0103
0000339916;-3.3806;-7.8410;1.9441;-0.0075;-0.0457;-0.0088
0000339929;-3.4884;-7.9392;1.9752;-0.0124;-0.0430;-0.0049
0000339938;-3.4644;-7.9583;2.0087;-0.0104;-0.0469;-0.0124
0000339947;-3.4357;-7.9272;1.9728;-0.0100;-0.0416;-0.0092
0000339959;-3.5171;-7.8961;2.0183;-0.0117;-0.0402;-0.0113
0000339968;-3.4309;-7.8099;2.0063;-0.0161;-0.0374;-0.0020
0000339981;-3.3926;-7.8147;2.0734;-0.0197;-0.0333;-0.0016
0000339990;-3.5243;-7.9248;1.9297;-0.0177;-0.0357;-0.0056
0000340002;-3.4237;-7.8243;2.0063;-0.0163;-0.0284;-0.0008
0000340011;-3.4141;-7.8482;1.9944;-0.0136;-0.0406;-0.0073
0000340080;-3.5458;-7.8434;1.9800;-0.0183;-0.0462;-0.0236
0000340089;-3.4141;-7.7644;1.9585;-0.0216;-0.0468;-0.0322
0000340101;-3.5793;-7.9200;2.0638;-0.0240;-0.0456;-0.0286
0000340110;-3.4381;-7.8602;2.0159;-0.0257;-0.0514;-0.0340
0000340123;-3.3782;-7.8626;2.0494;-0.0281;-0.0464;-0.0261
0000340132;-3.3519;-7.8099;2.0111;-0.0246;-0.0444;-0.0261
0000340141;-3.5482;-8.0349;2.0614;-0.0167;-0.0358;-0.0185
0000340153;-3.3447;-7.7907;2.0614;-0.0061;-0.0374;-0.0228
0000340162;-3.4069;-7.7237;1.9369;-0.0144;-0.0338;-0.0204
0000340175;-3.4453;-7.9775;1.9944;-0.0188;-0.0394;-0.0209
0000340184;-3.4333;-7.9080;2.0470;-0.0159;-0.0424;-0.0313
0000340196;-3.3160;-7.7859;2.0303;-0.0135;-0.0350;-0.0348
0000340205;-3.5123;-7.9440;1.9417;-0.0148;-0.0354;-0.0368
0000340218;-3.5171;-7.9727;1.9585;-0.0121;-0.0434;-0.0334
0000340227;-3.4836;-7.9511;1.9776;-0.0187;-0.0453;-0.0230
0000340239;-3.5578;-7.9344;2.1189;-0.0163;-0.0480;-0.0228
0000340248;-3.4548;-7.9775;1.9369;-0.0117;-0.0498;-0.0180
0000340261;-3.4189;-8.0709;2.1644;-0.0136;-0.0418;-0.0115
0000340270;-3.4979;-7.9631;2.0087;-0.0193;-0.0373;-0.0060
0000340279;-3.4572;-7.8458;2.0470;-0.0104;-0.0460;-0.0108
0000340291;-3.3591;-7.8099;1.9321;-0.0103;-0.0433;-0.0103
0000340300;-3.5027;-8.0852;2.0303;-0.0151;-0.0342;0.0004
0000340369;-3.2633;-7.7644;2.0063;-0.0179;-0.0241;-0.0100
0000340378;-3.3950;-7.8171;2.0351;-0.0139;-0.0313;-0.0143
0000340389;-3.3662;-7.8793;1.9465;-0.0164;-0.0222;-0.0089
0000340398;-3.5410;-7.8458;1.9824;-0.0144;-0.0288;-0.0145
0000340412;-3.4309;-7.7859;1.9345;-0.0124;-0.0324;-0.0148
0000340421;-3.5602;-7.8841;1.9920;-0.0131;-0.0361;-0.0183
0000340434;-3.3375;-7.8051;1.8890;-0.0088;-0.0361;-0.0179
0000340443;-3.3112;-7.8434;1.9848;-0.0127;-0.0301;-0.0148
0000340455;-3.5745;-7.9918;1.9201;-0.0159;-0.0356;-0.0133
0000340464;-3.4716;-7.9200;2.0351;-0.0140;-0.0434;-0.0245
0000340473;-3.5291;-7.9847;2.0279;-0.0164;-0.0417;-0.0193
0000340486;-3.4357;-7.8099;1.8938;-0.0139;-0.0449;-0.0141
0000340495;-3.6464;-7.9871;1.8962;-0.0119;-0.0545;-0.0188
0000340507;-3.5841;-7.9607;1.9896;-0.0221;-0.0625;-0.0187
0000340516;-3.5506;-7.8961;1.9704;-0.0266;-0.0649;-0.0215
0000340529;-3.1651;-7.6303;2.3008;-0.0458;-0.0377;-0.0253
0000340538;-3.3591;-7.8602;2.6384;-0.0402;-0.0089;-0.0392
0000340550;-3.3160;-7.8793;2.5283;-0.0360;0.0501;-0.0429
0000340559;-3.3998;-8.0709;2.1835;-0.0261;0.0685;-0.0314
0000340572;-3.3447;-7.8889;1.8124;-0.0135;0.0574;-0.0192
0000340581;-3.4117;-8.0709;1.9345;-0.0131;0.0561;-0.0147
0000340590;-3.1651;-7.8626;1.8435;-0.0081;0.0488;-0.0100
0000340660;-3.4884;-8.0086;1.8124;-0.0179;0.0152;0.0264
0000340669;-3.5219;-7.7716;1.7980;-0.0091;0.0035;0.0285
0000340682;-3.7565;-7.8482;1.6544;-0.0088;-0.0124;0.0252
0000340691;-3.7996;-7.7644;1.7334;-0.0224;-0.0207;0.0156
0000340703;-3.7781;-7.7428;1.7980;-0.0278;-0.0322;0.0105
0000340712;-3.5434;-7.7572;1.8651;-0.0284;-0.0430;-0.0089
0000340725;-3.5769;-7.9464;1.8244;-0.0282;-0.0489;-0.0123
0000340734;-3.6823;-7.8961;1.7909;-0.0203;-0.0686;-0.0176
0000340746;-3.5554;-7.8314;1.7166;-0.0179;-0.0783;-0.0107
0000340755;-3.3447;-7.7165;1.8100;-0.0164;-0.0865;-0.0132
0000340768;-3.3662;-7.7093;1.9513;-0.0064;-0.0837;-0.0342
0000340777;-3.4884;-7.8147;1.9872;-0.0079;-0.0834;-0.0441
0000340786;-3.5554;-7.8290;1.9848;-0.0095;-0.0782;-0.0541
0000340798;-3.5362;-7.8602;2.0279;-0.0153;-0.0654;-0.0608
0000340807;-3.5410;-7.9272;2.0016;-0.0084;-0.0572;-0.0568
0000340820;-3.3639;-8.0325;1.9393;-0.0012;-0.0625;-0.0490
0000340829;-3.5386;-8.0325;1.9034;-0.0096;-0.0659;-0.0404
0000340841;-3.6320;-8.0685;2.0135;-0.0081;-0.0646;-0.0328
0000340850;-3.4429;-7.8099;2.0111;-0.0147;-0.0548;-0.0321
0000340863;-3.4644;-7.9655;2.0255;-0.0131;-0.0428;-0.0234
0000340872;-3.5506;-8.0302;2.0782;-0.0141;-0.0349;-0.0183
0000340940;-3.3543;-7.8482;2.0973;-0.0274;-0.0080;-0.0139
0000340949;-3.4644;-7.8865;2.0446;-0.0278;0.0039;-0.0085
0000340958;-3.5338;-8.0397;2.0446;-0.0201;0.0099;-0.0107
0000340971;-3.3854;-7.9727;1.8818;-0.0147;0.0105;-0.0092
0000340980;-3.2848;-7.8362;1.7238;-0.0144;0.0105;0.0003
0000340992;-3.5099;-7.9224;1.8507;-0.0149;-0.0031;0.0013
0000341001;-3.5841;-7.9344;1.8699;-0.0140;-0.0079;-0.0025
0000341014;-3.5721;-7.9224;1.8675;-0.0173;-0.0156;-0.0059
0000341023;-3.5721;-7.9464;1.8747;-0.0153;-0.0192;-0.0028
0000341035;-3.4979;-7.7692;1.8794;-0.0064;-0.0312;-0.0037
0000341044;-3.6176;-7.9009;1.7813;-0.0088;-0.0394;-0.0079
0000341057;-3.6248;-7.8578;1.7669;-0.0015;-0.0560;-0.0157
0000341066;-3.7038;-7.8602;1.8603;-0.0097;-0.0580;-0.0108
0000341078;-3.5434;-7.8458;1.9441;-0.0115;-0.0584;-0.0211
0000341087;-3.3423;-7.6830;2.0279;-0.0139;-0.0566;-0.0346
0000341096;-3.2753;-7.7524;2.0255;-0.0197;-0.0492;-0.0365
0000341109;-3.4046;-7.9009;1.8196;-0.0156;-0.0452;-0.0328
0000341118;-3.5913;-8.0637;1.9201;-0.0065;-0.0473;-0.0281
0000341130;-3.4237;-7.9176;1.8890;-0.0128;-0.0434;-0.0187
0000341139;-3.1603;-7.8027;1.9704;-0.0100;-0.0466;-0.0177
0000341152;-3.3447;-7.8123;1.9752;-0.0139;-0.0480;-0.0211
0000341161;-3.4285;-7.9511;1.9704;-0.0125;-0.0448;-0.0197
0000341229;-3.3830;-7.7548;1.8747;-0.0161;-0.0317;-0.0031
0000341238;-3.4692;-7.8338;1.8962;-0.0156;-0.0418;-0.0095
0000341251;-3.3447;-7.7931;1.9106;-0.0144;-0.0450;-0.0163
0000341260;-3.5195;-7.8266;2.0542;-0.0199;-0.0397;-0.0177
0000341272;-3.4907;-7.8530;2.0303;-0.0116;-0.0345;-0.0313
0000341281;-3.6703;-8.0062;1.9201;-0.0149;-0.0288;-0.0207
0000341290;-3.5027;-7.8171;2.0087;-0.0081;-0.0326;-0.0240
0000341303;-3.4357;-7.8985;1.9417;-0.0068;-0.0376;-0.0253
0000341312;-3.3615;-7.7955;1.9010;-0.0089;-0.0337;-0.0169
0000341324;-3.3615;-7.8171;1.9297;-0.0127;-0.0378;-0.0205
0000341333;-3.4333;-8.0373;2.0087;-0.0128;-0.0457;-0.0250
0000341346;-3.6368;-8.0948;1.9585;-0.0157;-0.0421;-0.0237
0000341355;-3.3806;-7.9057;1.8890;-0.0097;-0.0412;-0.0229
0000341367;-3.5386;-7.9440;1.9680;-0.0067;-0.0381;-0.0104
0000341376;-3.5482;-8.0373;1.8699;-0.0069;-0.0386;-0.0055
0000341389;-3.4237;-7.8027;2.0686;-0.0087;-0.0380;-0.0059
0000341398;-3.5123;-7.8003;1.9249;-0.0156;-0.0388;-0.0211
0000341410;-3.4836;-7.8051;1.9609;-0.0260;-0.0393;-0.0292
0000341419;-3.3758;-7.8985;2.0590;-0.0215;-0.0432;-0.0321
0000341428;-3.4692;-7.9440;2.0446;-0.0226;-0.0322;-0.0325
0000341441;-3.3639;-7.9224;2.0207;-0.0104;-0.0252;-0.0217
0000341450;-3.6033;-8.0613;1.9656;-0.0077;-0.0159;-0.0091
0000341518;-3.4740;-7.9104;1.9345;-0.0081;-0.0352;-0.0029
0000341527;-3.5338;-7.9464;1.9728;-0.0083;-0.0374;-0.0055
0000341540;-3.5698;-7.9128;1.9680;-0.0036;-0.0389;-0.0087
0000341549;-3.6033;-7.8362;2.0159;-0.0120;-0.0332;-0.0072
0000341561;-3.6823;-8.0421;1.8651;-0.0151;-0.0304;-0.0132
0000341570;-3.5291;-7.9464;1.8890;-0.0139;-0.0434;-0.0265
0000341583;-3.4309;-7.9176;1.9537;-0.0121;-0.0445;-0.0266
0000341592;-3.4381;-7.8913;1.9513;-0.0160;-0.0469;-0.0317
0000341601;-3.5051;-7.8817;1.9178;-0.0152;-0.0432;-0.0314
0000341613;-3.2202;-7.8530;1.9776;-0.0092;-0.0473;-0.0349
0000341622;-3.2753;-7.8506;1.9632;-0.0133;-0.0414;-0.0302
0000341635;-3.4716;-7.8243;1.8627;-0.0125;-0.0465;-0.0388
0000341644;-3.4860;-7.9583;1.9417;-0.0136;-0.0501;-0.0384
0000341656;-3.4548;-7.8147;1.9776;-0.0176;-0.0458;-0.0402
0000341665;-3.4644;-8.0230;1.9752;-0.0216;-0.0389;-0.0394
0000341678;-3.4836;-8.0038;1.8747;-0.0216;-0.0410;-0.0381
0000341687;-3.4357;-7.8841;1.9704;-0.0143;-0.0441;-0.0360
0000341699;-3.4093;-7.9679;1.9632;-0.0123;-0.0388;-0.0234
0000341708;-3.4093;-8.0278;2.0423;-0.0149;-0.0312;-0.0151
0000341721;-3.3519;-7.9583;2.0207;-0.0129;-0.0258;-0.0015
0000341730;-3.3399;-7.9535;2.0279;-0.0105;-0.0262;-0.0025
0000341739;-3.4285;-7.9344;1.9225;-0.0081;-0.0334;-0.0020
0000341807;-3.4788;-7.7692;1.9034;-0.0144;-0.0240;-0.0028
0000341816;-3.4907;-7.8985;1.9776;-0.0093;-0.0293;-0.0088
0000341830;-3.4237;-7.8314;1.9465;-0.0137;-0.0289;-0.0087
0000341839;-3.4117;-7.8889;1.8603;-0.0091;-0.0370;-0.0193
0000341852;-3.5123;-7.7931;1.8914;-0.0119;-0.0392;-0.0257
0000341861;-3.4189;-8.0134;1.8435;-0.0071;-0.0450;-0.0252
0000341873;-3.6464;-7.9272;1.8627;-0.0071;-0.0401;-0.0212
0000341882;-3.5051;-7.9440;1.9345;-0.0113;-0.0424;-0.0234
0000341895;-3.5817;-7.9607;1.9010;-0.0121;-0.0432;-0.0293
0000341904;-3.4716;-7.9248;1.9369;-0.0045;-0.0514;-0.0373
0000341916;-3.4285;-7.8913;1.9632;-0.0043;-0.0506;-0.0369
0000341925;-3.6296;-8.1283;1.9106;-0.0084;-0.0477;-0.0306
0000341934;-3.3710;-7.9871;1.9201;-0.0060;-0.0452;-0.0305
0000341947;-3.5099;-8.0062;2.0159;-0.0045;-0.0492;-0.0294
0000341956;-3.3998;-7.9703;1.9944;-0.0095;-0.0452;-0.0274
0000341968;-3.3232;-7.8554;2.0399;-0.0063;-0.0428;-0.0284
0000341977;-3.4405;-7.9392;2.0925;-0.0129;-0.0362;-0.0201
0000341990;-3.4022;-7.9033;2.0016;-0.0057;-0.0336;-0.0200
0000341999;-3.4333;-7.9224;1.9920;-0.0059;-0.0309;-0.0157
0000342011;-3.3423;-7.9080;2.0423;-0.0107;-0.0256;-0.0051
0000342020;-3.4716;-7.8817;1.9130;0.0003;-0.0245;-0.0109
0000342087;-3.6176;-7.9655;1.8986;-0.0209;-0.0281;-0.0398
0000342096;-3.5769;-8.1163;1.9178;-0.0177;-0.0414;-0.0440
0000342108;-3.5817;-7.9895;1.7549;-0.0237;-0.0506;-0.0313
0000342117;-3.4716;-7.9871;1.8986;-0.0195;-0.0640;-0.0261
0000342126;-3.6200;-8.0445;1.8627;-0.0217;-0.0655;-0.0173
0000342139;-3.2106;-7.8338;1.9944;-0.0257;-0.0608;-0.0107
0000342148;-3.4548;-7.8482;1.9776;-0.0209;-0.0641;-0.0136
0000342160;-3.3399;-7.9368;1.9082;-0.0212;-0.0610;-0.0080
0000342169;-3.5171;-7.9607;1.9034;-0.0221;-0.0620;-0.0009
0000342182;-3.3758;-7.9823;1.9225;-0.0177;-0.0790;-0.0044
0000342191;-3.4069;-7.9583;2.0423;-0.0140;-0.0795;0.0044
0000342203;-3.4333;-7.9918;1.9632;-0.0160;-0.0873;-0.0015
0000342212;-3.5147;-8.0397;2.0758;-0.0274;-0.0773;0.0029
0000342225;-3.3926;-7.9224;2.1284;-0.0308;-0.0721;-0.0029
0000342234;-3.4620;-7.9727;2.0016;-0.0233;-0.0718;-0.0112
0000342246;-3.4764;-7.9272;2.0327;-0.0285;-0.0606;-0.0088
0000342255;-3.4261;-7.9966;1.9656;-0.0260;-0.0654;-0.0129
0000342264;-3.4069;-7.9368;1.9273;-0.0318;-0.0586;-0.0072
0000342277;-3.4860;-7.9272;1.9776;-0.0301;-0.0682;-0.0040
0000342286;-3.5650;-7.9775;2.0686;-0.0332;-0.0671;-0.0073
0000342298;-3.3974;-8.0110;1.9680;-0.0317;-0.0662;-0.0063
0000342307;-3.2585;-7.8697;2.0016;-0.0272;-0.0690;-0.0125
0000342374;-3.3734;-8.0062;2.0183;-0.0337;-0.0710;-0.0100
0000342381;-3.5362;-8.0876;2.0734;-0.0310;-0.0737;-0.0088
0000342392;-3.5817;-8.0517;2.0135;-0.0310;-0.0685;0.0032
0000342400;-3.3662;-7.9679;2.0039;-0.0249;-0.0686;-0.0007
