time;acc_x;acc_y;acc_z;gyro_x;gyro_y;gyro_z
0000064172;6.2944;-16.1321;0.2586;0.0111;-0.0697;-0.0087
0000064180;5.9951;-16.2327;0.3160;0.0117;-0.0777;-0.0155
0000064187;6.0669;-16.2686;0.1844;0.0109;-0.0861;-0.0195
0000064195;5.9831;-16.2542;0.2801;0.0067;-0.0810;-0.0129
0000064204;6.0980;-16.2135;0.2059;-0.0064;-0.0699;-0.0117
0000064212;6.2441;-16.2279;0.2969;-0.0116;-0.0739;-0.0131
0000064224;6.1507;-16.2375;0.2418;-0.0176;-0.0634;-0.0135
0000064232;6.1938;-16.3787;0.3496;-0.0100;-0.0546;-0.0157
0000064243;6.2608;-16.3644;0.2658;-0.0071;-0.0381;-0.0111
0000064251;6.1746;-16.3692;0.2274;0.0073;-0.0322;-0.0173
0000064259;6.1675;-16.3739;0.1963;0.0077;-0.0215;-0.0096
0000064271;6.0645;-16.3979;0.2849;0.0141;-0.0117;-0.0177
0000064279;6.1459;-16.1680;0.3400;0.0091;-0.0009;-0.0113
0000064290;6.2177;-16.1561;0.2658;0.0063;-0.0003;-0.0140
0000064298;6.0885;-16.3309;0.3352;0.0136;-0.0027;-0.0181
0000064310;6.0286;-16.2279;0.3424;0.0048;-0.0047;-0.0205
0000064318;6.0430;-16.0771;0.2753;-0.0079;0.0008;-0.0115
0000064382;5.8562;-16.3955;0.2753;-0.0332;-0.0171;-0.0171
0000064390;5.9017;-16.3620;0.3304;-0.0286;-0.0184;-0.0183
0000064402;5.9448;-16.4242;0.3160;-0.0212;-0.0309;-0.0213
0000064410;5.9233;-16.2662;0.2658;-0.0242;-0.0340;-0.0159
0000064418;5.9400;-16.2997;0.3280;-0.0332;-0.0372;-0.0073
0000064429;5.8275;-16.3428;0.2682;-0.0409;-0.0500;-0.0100
0000064437;5.8131;-16.3380;0.3280;-0.0534;-0.0570;-0.0027
0000064449;5.6575;-16.4051;0.3663;-0.0548;-0.0779;-0.0009
0000064457;5.7365;-16.3141;0.3256;-0.0512;-0.0926;-0.0040
0000064468;5.8730;-16.2327;0.2849;-0.0548;-0.1047;0.0025
0000064476;5.8873;-16.4027;0.2753;-0.0445;-0.1162;0.0004
0000064488;5.9687;-16.4745;0.2514;-0.0354;-0.1131;0.0000
0000064496;6.1100;-16.5080;0.3472;-0.0216;-0.1212;0.0011
0000064507;5.9783;-16.5032;0.3352;-0.0087;-0.1298;-0.0053
0000064515;5.9448;-16.4410;0.3160;-0.0079;-0.1332;-0.0027
0000064523;6.1004;-16.2542;0.2155;-0.0101;-0.1314;-0.0039
0000064535;6.0094;-16.2734;0.2274;-0.0072;-0.1451;-0.0079
0000064543;6.0094;-16.2925;0.2203;-0.0157;-0.1448;-0.0023
0000064554;5.9711;-16.1752;0.2658;-0.0273;-0.1512;-0.0084
0000064562;5.9831;-16.1968;0.2586;-0.0364;-0.1464;0.0011
0000064574;6.1268;-16.2542;0.3184;-0.0492;-0.1524;-0.0088
0000064582;6.0190;-16.2518;0.2490;-0.0434;-0.1537;-0.0096
0000064649;5.9759;-16.4482;0.2346;-0.0077;-0.0969;-0.0160
0000064657;6.0501;-16.3668;0.1844;-0.0108;-0.0934;-0.0155
0000064669;5.9137;-16.3309;0.2442;-0.0136;-0.0885;-0.0171
0000064677;6.0166;-16.2255;0.0599;-0.0165;-0.0879;-0.0221
0000064688;5.9927;-16.3189;0.1221;-0.0104;-0.0869;-0.0241
0000064696;5.8802;-16.5008;0.0958;0.0000;-0.0839;-0.0254
0000064704;6.0286;-16.3332;0.1437;-0.0019;-0.0830;-0.0195
0000064716;5.9831;-16.3021;0.1748;-0.0077;-0.0835;-0.0252
0000064725;5.8227;-16.2854;0.1844;-0.0089;-0.0829;-0.0207
0000064735;5.9448;-16.2925;0.1820;-0.0144;-0.0905;-0.0193
0000064743;6.0741;-16.2231;0.2203;-0.0181;-0.0893;-0.0135
0000064755;5.9759;-16.1800;0.1724;-0.0298;-0.0947;-0.0076
0000064763;6.0166;-16.1992;0.3328;-0.0377;-0.0971;-0.0036
0000064774;5.9137;-16.3285;0.0958;-0.0408;-0.0983;-0.0047
0000064782;6.0406;-16.3069;0.0479;-0.0496;-0.0953;0.0047
0000064794;6.1603;-16.3021;0.1365;-0.0525;-0.0965;0.0052
0000064802;6.2800;-16.3620;0.2155;-0.0530;-0.0895;0.0064
0000064813;6.1890;-16.4434;0.0790;-0.0441;-0.0973;0.0025
0000064821;6.2130;-16.3165;0.1700;-0.0429;-0.0905;-0.0025
0000064829;6.0286;-16.4482;0.1508;-0.0318;-0.0930;-0.0092
0000064841;6.2321;-16.2494;0.1844;-0.0290;-0.0850;-0.0148
0000064849;6.0789;-16.3739;0.2897;-0.0221;-0.0833;-0.0184
0000064916;5.9352;-16.3093;0.1293;-0.0401;-0.0869;-0.0212
0000064924;5.8179;-16.4482;0.1820;-0.0498;-0.0875;-0.0173
0000064936;6.0118;-16.4242;0.1413;-0.0464;-0.1002;-0.0105
0000064944;5.9065;-16.4721;0.1891;-0.0326;-0.1067;-0.0140
0000064955;5.9256;-16.4553;0.1987;-0.0218;-0.1123;-0.0097
0000064963;5.9304;-16.4673;0.2274;-0.0061;-0.1174;-0.0079
0000064975;5.9568;-16.4194;0.2993;0.0072;-0.1272;-0.0092
0000064983;6.0549;-16.3763;0.3376;0.0104;-0.1276;-0.0136
0000064991;6.2680;-16.2997;0.2586;0.0222;-0.1334;-0.0164
0000065002;6.1794;-16.3117;0.2227;0.0256;-0.1306;-0.0220
0000065010;6.0717;-16.2878;0.2083;0.0298;-0.1294;-0.0273
0000065022;5.9352;-16.4218;0.1293;0.0305;-0.1251;-0.0285
0000065030;6.0286;-16.1800;0.1604;0.0289;-0.1191;-0.0297
0000065041;6.0047;-16.3476;0.1101;0.0240;-0.1240;-0.0321
0000065049;5.9999;-16.2471;0.0192;0.0179;-0.1186;-0.0289
0000065061;6.0765;-16.2542;0.1604;0.0140;-0.1302;-0.0313
0000065069;5.9783;-16.2925;0.2059;0.0141;-0.1303;-0.0260
0000065080;5.9400;-16.4003;0.1987;0.0163;-0.1348;-0.0270
0000065088;5.9376;-16.4530;0.2442;0.0242;-0.1414;-0.0294
0000065096;5.7581;-16.6062;0.2322;0.0288;-0.1383;-0.0242
0000065108;6.1962;-16.3165;0.2035;0.0398;-0.1332;-0.0157
0000065116;6.2513;-16.2710;0.2801;0.0440;-0.1244;-0.0131
0000065184;6.1076;-16.2758;0.2131;-0.0264;-0.0946;-0.0290
0000065192;6.2273;-16.0747;0.1269;-0.0346;-0.0953;-0.0308
0000065204;6.1028;-16.3285;0.1748;-0.0350;-0.1047;-0.0281
0000065212;5.9879;-16.3428;0.2035;-0.0345;-0.1037;-0.0201
0000065223;6.1339;-16.2997;0.3328;-0.0241;-0.1100;-0.0205
0000065231;5.9448;-16.4027;0.2753;-0.0246;-0.1061;-0.0144
0000065243;6.0669;-16.4553;0.2227;-0.0155;-0.1062;-0.0121
0000065251;6.1555;-16.3380;0.2370;-0.0180;-0.1018;-0.0131
0000065262;6.1220;-16.2518;0.2682;-0.0132;-0.0981;-0.0145
0000065270;6.1555;-16.2399;0.1844;-0.0220;-0.1005;-0.0200
0000065278;6.0693;-16.2231;0.2083;-0.0288;-0.1007;-0.0165
0000065290;6.1004;-16.2758;0.2370;-0.0414;-0.1003;-0.0147
0000065298;6.0286;-16.2878;0.2490;-0.0466;-0.1030;-0.0112
0000065309;6.1292;-16.3739;0.3232;-0.0429;-0.1026;-0.0105
0000065317;6.1052;-16.4027;0.2658;-0.0352;-0.1031;-0.0100
0000065329;6.1723;-16.4625;0.3400;-0.0171;-0.1107;-0.0149
0000065337;5.9376;-16.5846;0.2658;-0.0107;-0.1067;-0.0109
0000065348;6.1603;-16.5080;0.4022;-0.0065;-0.1061;-0.0188
0000065356;6.4069;-16.3285;0.4214;-0.0052;-0.0950;-0.0192
0000065368;6.2920;-16.3548;0.3160;-0.0028;-0.0890;-0.0200
0000065376;6.2944;-16.3931;0.3232;0.0043;-0.0867;-0.0232
0000065384;6.3494;-16.3955;0.3041;0.0093;-0.0747;-0.0226
0000065452;6.1986;-16.1656;0.2322;0.0232;-0.0621;-0.0528
0000065460;6.0549;-16.3213;0.1652;0.0100;-0.0588;-0.0453
0000065472;6.1244;-16.2806;0.2274;0.0071;-0.0574;-0.0368
0000065480;6.2058;-16.2327;0.2011;-0.0056;-0.0549;-0.0297
0000065491;6.1603;-16.3261;0.2490;-0.0097;-0.0576;-0.0277
0000065499;6.4308;-16.2518;0.2490;-0.0125;-0.0534;-0.0188
0000065511;6.1627;-16.4386;0.3591;-0.0047;-0.0642;-0.0221
0000065519;6.1603;-16.4290;0.2849;0.0005;-0.0662;-0.0188
0000065531;6.1555;-16.4146;0.3160;0.0183;-0.0759;-0.0218
0000065539;6.1124;-16.3165;0.2658;0.0156;-0.0715;-0.0177
0000065550;6.1339;-16.3835;0.3352;0.0197;-0.0790;-0.0250
0000065558;6.1507;-16.3739;0.2897;0.0144;-0.0726;-0.0232
0000065567;6.4045;-16.0699;0.3112;0.0109;-0.0727;-0.0261
0000065579;6.2824;-16.2494;0.2155;0.0087;-0.0721;-0.0240
0000065586;6.1866;-16.2710;0.2203;-0.0003;-0.0613;-0.0176
0000065597;6.1699;-16.4314;0.2969;0.0013;-0.0521;-0.0152
0000065605;6.1531;-16.2949;0.1844;0.0032;-0.0493;-0.0121
0000065617;5.9783;-16.4123;0.2538;0.0056;-0.0494;-0.0116
0000065625;6.1292;-16.2279;0.1915;0.0072;-0.0492;-0.0097
0000065693;6.0549;-16.4242;0.2825;-0.0131;-0.0349;-0.0087
0000065701;6.0023;-16.4482;0.2729;-0.0120;-0.0390;-0.0119
0000065713;6.1004;-16.2375;0.2203;-0.0084;-0.0314;-0.0131
0000065721;6.0190;-16.3716;0.2011;-0.0189;-0.0278;-0.0051
0000065729;6.1004;-16.2925;0.2155;-0.0204;-0.0254;-0.0051
0000065740;6.1004;-16.2159;0.1580;-0.0226;-0.0318;-0.0059
0000065748;6.0645;-16.2854;0.1580;-0.0288;-0.0320;-0.0032
0000065760;6.2010;-16.2710;0.2107;-0.0204;-0.0432;-0.0092
0000065768;6.1148;-16.3165;0.2777;-0.0228;-0.0366;-0.0044
0000065779;6.0669;-16.4218;0.2442;-0.0211;-0.0448;-0.0068
0000065787;6.3758;-16.2351;0.3711;-0.0233;-0.0442;-0.0003
0000065799;6.1172;-16.3309;0.2897;-0.0293;-0.0336;0.0033
0000065807;6.1555;-16.3428;0.2203;-0.0308;-0.0332;0.0004
0000065818;6.1411;-16.2638;0.2155;-0.0245;-0.0238;0.0019
0000065826;6.2608;-16.3021;0.3567;-0.0226;-0.0237;-0.0012
0000065834;6.2369;-16.1704;0.2993;-0.0260;-0.0189;-0.0015
0000065846;5.9352;-16.3596;0.2442;-0.0296;-0.0229;-0.0127
0000065854;6.1148;-16.2830;0.1484;-0.0325;-0.0242;-0.0069
0000065865;6.0430;-16.3476;0.2083;-0.0264;-0.0306;-0.0101
0000065873;6.0190;-16.3931;0.2490;-0.0309;-0.0346;-0.0084
0000065886;6.0358;-16.4721;0.2227;-0.0232;-0.0436;-0.0124
0000065893;6.1172;-16.3356;0.2753;-0.0244;-0.0409;-0.0033
0000065961;6.2153;-16.2901;0.2179;0.0218;-0.0533;-0.0176
0000065969;6.2273;-16.1848;0.2777;0.0211;-0.0520;-0.0120
0000065981;6.0645;-16.2614;0.1891;0.0313;-0.0586;-0.0171
0000065989;6.1914;-16.3835;0.2442;0.0318;-0.0577;-0.0152
0000066000;6.1746;-16.2327;0.2514;0.0321;-0.0671;-0.0179
0000066008;6.0071;-16.2997;0.3400;0.0313;-0.0640;-0.0103
0000066016;6.0214;-16.2111;0.2682;0.0203;-0.0710;-0.0140
0000066028;6.0478;-16.2040;0.3017;0.0123;-0.0753;-0.0117
0000066036;6.0669;-16.1728;0.3400;0.0104;-0.0773;-0.0172
0000066047;6.0573;-16.1297;0.3232;-0.0035;-0.0751;-0.0103
0000066055;6.0885;-16.2064;0.3184;-0.0083;-0.0793;-0.0188
0000066067;5.9256;-16.4027;0.3017;-0.0173;-0.0793;-0.0135
0000066075;6.1794;-16.2471;0.2921;-0.0238;-0.0807;-0.0101
0000066086;6.0501;-16.4577;0.2849;-0.0209;-0.0843;-0.0060
0000066094;5.9544;-16.4410;0.2969;-0.0141;-0.0927;-0.0092
0000066107;6.2800;-16.2782;0.3711;-0.0073;-0.0929;-0.0056
0000066114;6.0310;-16.3955;0.2586;-0.0107;-0.0901;-0.0021
0000066122;6.1196;-16.4314;0.4501;-0.0001;-0.0953;-0.0045
0000066133;6.1339;-16.3644;0.3639;-0.0051;-0.0897;0.0005
0000066141;6.2728;-16.3021;0.3280;-0.0051;-0.0878;-0.0063
0000066153;6.1124;-16.3716;0.3998;0.0004;-0.0819;-0.0040
0000066161;6.3542;-16.3093;0.4046;-0.0096;-0.0702;-0.0064
0000066229;6.1052;-16.3572;0.3926;0.0092;-0.0574;-0.0236
0000066237;6.2465;-16.3859;0.3974;0.0179;-0.0638;-0.0234
0000066249;6.0071;-16.4290;0.3783;0.0232;-0.0670;-0.0213
0000066257;5.9664;-16.3572;0.3663;0.0205;-0.0690;-0.0173
0000066268;5.9041;-16.4170;0.3328;0.0252;-0.0725;-0.0199
0000066276;5.9592;-16.3883;0.2346;0.0221;-0.0746;-0.0189
0000066284;6.0932;-16.1848;0.2131;0.0266;-0.0827;-0.0192
0000066297;5.9711;-16.4099;0.3448;0.0248;-0.0865;-0.0215
0000066304;6.1100;-16.2375;0.2682;0.0165;-0.0854;-0.0168
0000066315;6.0286;-16.3500;0.4142;0.0200;-0.0895;-0.0195
0000066323;6.0406;-16.2973;0.3400;0.0200;-0.0909;-0.0164
0000066335;6.2393;-16.4242;0.3328;0.0286;-0.0834;-0.0125
0000066343;6.0071;-16.4721;0.3639;0.0341;-0.0850;-0.0101
0000066354;6.0741;-16.2830;0.3879;0.0405;-0.0839;-0.0099
0000066362;5.9592;-16.3835;0.3184;0.0424;-0.0891;-0.0165
0000066374;6.0501;-16.1680;0.3783;0.0309;-0.0855;-0.0157
0000066382;5.9113;-16.4194;0.4046;0.0265;-0.0901;-0.0171
0000066390;6.0166;-16.3237;0.3663;0.0216;-0.0871;-0.0140
0000066401;6.1579;-16.2255;0.3974;0.0139;-0.0941;-0.0179
0000066409;6.2249;-16.1656;0.3519;0.0184;-0.0971;-0.0191
0000066421;6.0238;-16.3500;0.3903;0.0133;-0.0985;-0.0215
0000066429;6.0454;-16.3428;0.3711;0.0132;-0.0945;-0.0254
0000066497;6.2058;-16.3452;0.3041;0.0053;-0.0949;-0.0039
0000066505;5.9352;-16.4793;0.2825;0.0124;-0.1010;-0.0085
0000066517;6.0118;-16.4314;0.3783;0.0179;-0.1045;-0.0032
0000066525;6.0286;-16.6014;0.4190;0.0304;-0.1132;-0.0063
0000066536;6.1411;-16.4362;0.3998;0.0482;-0.1235;-0.0104
0000066544;5.9328;-16.4218;0.3879;0.0582;-0.1271;-0.0125
0000066552;5.8634;-16.3428;0.3974;0.0634;-0.1332;-0.0191
0000066564;5.7916;-16.4051;0.3496;0.0594;-0.1515;-0.0176
0000066572;5.8873;-16.0268;0.4836;0.0580;-0.1596;-0.0211
0000066583;5.7150;-16.2183;0.4477;0.0469;-0.1784;-0.0156
0000066591;5.5952;-16.2231;0.4381;0.0458;-0.1924;-0.0164
0000066603;5.5976;-16.1656;0.4741;0.0477;-0.2146;-0.0184
0000066611;5.5617;-16.3859;0.5459;0.0512;-0.2208;-0.0153
0000066622;5.8371;-16.2016;0.4381;0.0517;-0.2390;-0.0242
0000066630;5.9256;-16.3692;0.6273;0.0570;-0.2407;-0.0261
0000066642;5.9616;-16.3716;0.5387;0.0637;-0.2466;-0.0252
0000066650;5.9951;-16.4290;0.6656;0.0715;-0.2502;-0.0333
0000066658;6.0693;-16.3883;0.5459;0.0879;-0.2573;-0.0461
0000066669;6.1483;-16.4242;0.6345;0.0934;-0.2553;-0.0505
0000066677;6.0813;-16.3213;0.6153;0.1005;-0.2547;-0.0629
0000066689;6.3422;-16.1513;0.7829;0.1009;-0.2406;-0.0659
0000066697;6.4332;-16.1968;0.6871;0.0926;-0.2066;-0.0566
0000066765;5.5833;-15.9454;0.6608;0.0237;-0.1379;-0.0959
0000066773;5.5952;-15.8975;0.7518;0.0028;-0.1536;-0.1069
0000066785;5.5234;-15.9957;0.7949;-0.0063;-0.2029;-0.1434
0000066793;5.5019;-16.0842;0.6776;-0.0071;-0.2328;-0.1651
0000066804;5.6000;-16.2183;0.5770;0.0055;-0.2787;-0.1939
0000066812;5.5593;-16.1321;0.6057;0.0072;-0.3047;-0.2116
0000066820;5.5905;-16.0747;0.5938;0.0153;-0.3328;-0.2274
0000066832;5.3606;-16.3452;0.6129;0.0188;-0.3643;-0.2360
0000066840;5.5306;-16.2925;0.6393;0.0312;-0.3881;-0.2518
0000066851;5.5952;-16.1585;0.7733;0.0404;-0.4151;-0.2657
0000066859;5.6982;-16.1249;0.6393;0.0424;-0.4231;-0.2806
0000066871;5.8538;-16.0914;0.6033;0.0348;-0.4451;-0.3055
0000066879;5.8466;-16.0196;0.6129;0.0301;-0.4539;-0.3179
0000066891;5.9137;-15.8568;0.5100;0.0116;-0.4646;-0.3359
0000066899;5.8466;-15.9095;0.4980;-0.0059;-0.4671;-0.3400
0000066910;5.6647;-15.8903;0.3472;-0.0169;-0.4675;-0.3496
0000066918;5.7054;-16.0531;0.3400;-0.0306;-0.4660;-0.3476
0000066926;5.6312;-16.1202;0.4645;-0.0376;-0.4770;-0.3600
0000066938;5.7509;-16.1249;0.5890;-0.0376;-0.4927;-0.3688
0000066946;5.7676;-16.3931;0.4932;-0.0218;-0.5012;-0.3818
0000066958;5.8419;-16.5822;0.6560;0.0193;-0.5160;-0.4100
0000066966;6.0358;-16.6804;0.5052;0.0524;-0.5096;-0.4167
0000067033;5.1811;-15.7922;1.2139;0.2864;-0.4330;-0.4968
0000067041;5.0326;-15.5695;0.7446;0.3291;-0.4558;-0.5415
0000067052;4.8626;-15.2319;0.6728;0.3717;-0.5091;-0.5921
0000067060;4.8267;-14.8153;0.6656;0.3950;-0.5688;-0.6179
0000067072;4.7525;-14.4634;0.6033;0.3573;-0.6415;-0.6233
0000067080;4.7908;-14.3413;0.5148;0.2892;-0.6901;-0.6179
0000067088;5.0589;-14.0492;0.4022;0.1857;-0.7372;-0.6098
0000067099;5.2050;-14.0037;0.5986;0.0197;-0.7947;-0.5954
0000067107;5.0949;-14.2982;0.5387;-0.1139;-0.8142;-0.5752
0000067119;5.2577;-14.7698;0.8188;-0.2738;-0.8167;-0.5159
0000067127;5.2265;-15.2128;0.9146;-0.3292;-0.8224;-0.4758
0000067139;5.1882;-15.9406;1.2282;-0.3267;-0.8535;-0.4323
0000067147;5.0949;-16.3979;1.4700;-0.2589;-0.8837;-0.4104
0000067159;5.0278;-16.6900;1.5778;-0.0865;-0.9613;-0.3968
0000067167;4.6567;-16.8121;1.5610;0.0369;-1.0279;-0.4021
0000067178;4.2880;-16.6421;1.7957;0.2064;-1.1346;-0.4211
0000067186;4.0701;-16.1561;1.9489;0.2838;-1.1850;-0.4183
0000067194;3.9313;-15.6389;2.1093;0.3262;-1.2389;-0.4026
0000067206;4.2306;-14.6956;2.2936;0.3300;-1.2726;-0.3576
0000067214;4.4053;-14.3628;2.2266;0.3170;-1.2969;-0.3375
0000067226;4.8626;-13.7044;2.0686;0.2959;-1.3474;-0.3207
0000067234;5.3199;-13.3501;1.8914;0.2802;-1.3599;-0.3227
0000067300;5.7054;-12.2559;1.1492;-0.0994;-1.5067;-0.8095
0000067308;5.8227;-12.2487;1.3144;-0.1491;-1.5215;-0.8675
0000067319;6.0358;-12.0117;1.3048;-0.2356;-1.5003;-0.9096
0000067327;6.3542;-11.9495;0.9768;-0.2924;-1.4585;-0.9333
0000067339;6.9408;-11.8441;0.1341;-0.3543;-1.3175;-0.9618
0000067347;7.6471;-12.0093;-0.2849;-0.3651;-1.1763;-0.9769
0000067358;8.7005;-12.1242;-1.4054;-0.3535;-0.9819;-1.0014
0000067366;9.2488;-12.4522;-1.7119;-0.3324;-0.8382;-1.0128
0000067374;9.6702;-12.7036;-1.9585;-0.2690;-0.6909;-1.0148
0000067386;9.8067;-12.7036;-2.6815;-0.1981;-0.5530;-0.9089
0000067394;9.5529;-12.7228;-0.4908;-0.0596;-0.5521;-0.7709
0000067405;7.8147;-13.4315;3.6583;0.2874;-0.6106;-0.4053
0000067413;5.3295;-13.5033;3.8475;0.3103;-0.6805;-0.1231
0000067425;3.1316;-12.9526;-0.3998;-0.2577;-0.7093;0.1852
0000067433;2.6097;-13.4267;-2.3320;-0.8238;-0.6332;0.2276
0000067444;2.1308;-13.9797;-3.3279;-1.3572;-0.6324;0.2142
0000067452;2.0351;-14.8608;-3.3327;-1.4510;-0.6387;0.1916
0000067464;1.8818;-17.2550;-2.2817;-1.2369;-0.6225;0.1431
0000067472;2.0063;-18.7011;-1.9704;-0.9337;-0.6330;0.0809
0000067484;1.0846;-20.0443;-2.0135;-0.5465;-0.8147;-0.0233
0000067492;0.2586;-20.5231;-0.8116;-0.3156;-0.9771;-0.0501
0000067500;-0.6488;-20.4297;0.2610;-0.0025;-1.1389;0.0033
0000067566;11.0899;-17.9709;4.6926;0.3833;-1.0108;-1.0279
0000067574;12.3565;-18.0092;5.3893;0.1271;-0.7951;-1.2449
0000067585;12.5384;-17.8296;4.6232;-0.1958;-0.4102;-1.2986
0000067593;11.4227;-17.5782;4.8100;-0.2974;-0.1364;-1.1032
0000067605;10.0149;-17.0707;4.5897;-0.1451;0.2133;-0.5990
0000067613;9.5265;-16.7211;4.5466;0.1463;0.3131;-0.3291
0000067624;8.9663;-15.8376;3.7852;0.6446;0.3135;-0.2070
0000067632;8.4156;-14.5567;3.4907;1.0086;0.2069;-0.2209
0000067644;6.7253;-12.3062;2.6121;1.4434;-0.0324;-0.2399
0000067652;5.4061;-10.7835;0.8787;1.5407;-0.2309;-0.1681
0000067660;4.9943;-9.6103;-1.7789;1.3205;-0.4145;-0.0981
0000067671;5.5091;-8.1642;-3.4548;0.7582;-0.6054;-0.1005
0000067679;6.0501;-7.8458;-0.2011;0.7322;-0.4888;-0.2286
0000067691;7.8769;-7.3861;2.5043;1.1423;-0.1525;-0.5705
0000067699;10.3166;-7.2664;5.2505;1.6052;0.0895;-0.9854
0000067710;13.7882;-7.5872;1.2785;1.5335;-0.2108;-1.6771
0000067718;16.7834;-7.4603;-5.8179;0.3607;-0.7430;-2.2158
0000067730;17.7554;-7.3119;-10.4052;-1.9388;-1.3483;-3.0587
0000067738;17.2550;-7.6423;-9.0333;-3.1283;-1.4669;-3.4222
0000067750;15.4594;-7.9320;-3.8020;-3.4607;-1.5732;-3.3293
0000067758;14.8225;-8.2073;-4.5945;-3.0369;-1.5127;-2.9158
0000067824;9.6031;-8.8801;-8.6479;-3.3028;-2.5888;-2.8956
0000067832;13.5560;-9.4020;-15.9789;-4.1627;-2.1674;-3.1127
0000067840;26.0154;-13.5081;-29.4391;-4.3657;-1.3239;-3.7371
0000067852;78.4508;-78.4532;-60.7050;-4.3657;-4.3657;-4.3657
0000067860;58.0019;-31.4838;11.3916;-2.9587;-4.3657;-4.3657
0000067872;4.3287;-17.8512;26.7959;3.6620;-2.3673;-4.3657
0000067880;-2.7438;-13.9223;7.6423;4.3656;-1.5239;-4.3657
0000067891;-4.4508;-11.6502;-9.3853;3.6942;-1.0428;-3.0570
0000067899;7.1826;-9.5002;-17.2191;0.9322;0.2376;-2.2439
0000067911;14.5376;-7.7309;-25.1008;-3.5450;1.9220;-2.1961
0000067919;14.5017;-7.0677;-16.4793;-4.3657;2.4204;-2.1811
0000067930;14.7339;-5.8778;0.6057;-4.3657;2.9026;-2.0448
0000067938;17.6740;-4.7142;11.7124;-2.3066;3.2519;-1.8748
0000067950;14.7770;-8.7245;5.4588;0.0242;1.1858;-1.3556
0000067958;10.5225;-7.9057;-2.9137;-0.2723;0.7011;-1.2215
0000067969;6.3925;-7.5968;-6.9719;-1.4922;0.1579;-1.1922
0000067977;6.0214;-8.2768;-8.5377;-2.3936;-0.4070;-1.1600
0000067985;6.5146;-8.5665;-8.1762;-2.8005;-0.8561;-1.1122
0000067997;10.8936;-9.5936;-8.2384;-2.3385;-1.2472;-1.1114
0000068005;14.1713;-9.1459;-12.4187;-1.8187;-1.2862;-1.3059
0000068017;17.3771;-9.8474;-13.5248;-1.2881;-1.0162;-1.7064
0000068025;17.9900;-9.5577;-14.0803;-1.1952;-0.6591;-1.9696
0000068091;10.5058;-5.6192;-10.1897;-0.5678;2.2573;-0.7314
0000068099;8.4443;-5.4396;-8.9040;-0.3131;2.3554;-0.0457
0000068111;4.4317;-5.7389;-7.9296;0.2967;2.2904;1.4150
0000068119;4.4628;-5.7796;-7.4005;0.7362;1.7540;2.4353
0000068131;5.8371;-5.8993;-4.3981;1.6782;0.5324;3.6953
0000068139;6.9935;-6.2369;-2.4493;2.4468;-0.2166;4.2545
0000068147;8.3821;-6.6966;-1.5299;3.1273;-0.8354;4.3656
0000068159;9.6295;-6.9671;-1.6257;3.6615;-1.4462;4.3656
0000068167;10.7811;-6.6918;-2.1500;3.8416;-1.4453;4.3656
0000068179;13.3261;-5.1092;-6.3901;3.3751;-0.9417;4.2683
0000068187;15.1218;-3.6679;-8.3606;2.4873;-0.6010;3.8036
0000068199;17.8344;-0.6919;-8.7340;1.0396;-0.3520;2.8453
0000068207;21.3467;2.0566;-7.9033;0.4851;-0.3890;2.0439
0000068219;28.2276;6.5074;-7.1347;0.3437;-0.6311;0.7707
0000068227;32.7383;8.0230;-6.2034;0.6197;-0.8741;-0.2467
0000068239;24.0522;0.0934;-8.5449;0.2089;-0.5004;-0.7687
0000068247;18.6939;-3.4716;-9.9910;-0.6079;-0.3417;-0.3416
0000068255;15.8448;-5.7293;-7.7333;-1.1102;-0.1066;0.0709
0000068267;13.9319;-8.0924;-5.9089;-1.3166;0.2646;0.4214
0000068275;13.9821;-9.0070;-5.4300;-1.3095;0.4189;0.5497
0000068287;15.2128;-9.2488;-5.0781;-1.1219;0.4391;0.6499
0000068295;15.6437;-9.4188;-5.0901;-0.9511;0.4149;0.6743
0000068359;15.0619;-9.1746;-3.8666;-0.4979;0.6603;-0.3451
0000068367;12.9095;-9.2416;-4.3359;-0.6528;0.6424;-0.4206
0000068379;11.2934;-9.4427;-4.7046;-0.8704;0.4542;-0.2823
0000068387;10.6662;-10.2304;-4.5179;-0.9899;0.2940;-0.0710
0000068399;11.4658;-11.3653;-4.0318;-1.0615;0.0731;0.3423
0000068407;12.5935;-11.9950;-2.9760;-0.9886;-0.0348;0.5746
0000068419;14.8704;-12.7491;-3.7062;-0.7492;-0.1002;0.8107
0000068427;14.7818;-12.3684;-3.7876;-0.5909;-0.1949;0.8388
0000068435;14.8417;-12.1793;-4.7788;-0.4183;-0.1897;0.7970
0000068448;14.3221;-12.0213;-3.9624;-0.2158;-0.2687;0.5934
0000068455;14.1976;-12.0620;-4.2282;-0.0695;-0.2493;0.4772
0000068467;13.9845;-12.2487;-4.1444;0.0282;-0.2727;0.2605
0000068475;14.0803;-12.2894;-4.1707;0.0600;-0.2850;0.1218
0000068487;14.1976;-12.7491;-3.6416;0.0428;-0.2513;0.0007
0000068495;14.9518;-12.7276;-3.9456;0.0357;-0.2160;-0.0465
0000068507;15.4785;-12.9670;-3.8858;0.0839;-0.1633;-0.0652
0000068515;14.9063;-12.8593;-3.7733;0.1200;-0.1434;-0.0825
0000068527;14.2072;-12.2990;-2.9018;0.1819;-0.1387;-0.1049
0000068535;13.8792;-11.3820;-3.8307;0.1741;-0.1581;-0.1494
0000068547;13.5296;-10.9008;-3.5674;0.1840;-0.2076;-0.1525
0000068555;13.7547;-10.7452;-3.2346;0.2020;-0.2599;-0.1274
0000068619;14.1665;-10.6374;-3.8427;-0.1202;-0.4576;0.0691
0000068627;14.0204;-10.7236;-3.8810;-0.1183;-0.5132;0.0504
0000068635;14.2958;-10.7907;-4.0366;-0.1195;-0.5678;0.0241
0000068647;14.6046;-10.7476;-4.2401;-0.1390;-0.6233;0.0063
0000068655;14.6405;-10.8457;-4.5035;-0.1627;-0.6415;-0.0140
0000068667;14.3628;-10.9295;-4.6807;-0.1745;-0.6606;-0.0389
0000068675;14.2311;-10.8362;-4.7118;-0.1837;-0.6588;-0.0637
0000068687;14.0564;-10.9870;-4.7764;-0.1921;-0.6607;-0.1238
0000068695;14.2144;-11.0947;-4.8219;-0.2254;-0.6371;-0.1731
0000068707;14.2647;-11.1019;-5.2481;-0.2657;-0.5981;-0.2401
0000068715;14.2431;-11.0421;-5.5234;-0.2757;-0.5653;-0.2880
0000068727;14.5663;-10.8793;-5.7006;-0.2356;-0.5119;-0.3369
0000068735;14.4203;-10.8146;-5.8107;-0.2045;-0.4736;-0.3591
0000068747;14.2934;-10.7164;-5.7652;-0.1347;-0.3980;-0.3700
0000068755;14.4729;-10.4698;-5.9065;-0.0858;-0.3519;-0.3607
0000068767;14.5041;-10.2256;-5.9352;-0.0265;-0.2892;-0.3527
0000068775;14.4658;-10.0820;-5.9137;-0.0040;-0.2539;-0.3267
0000068787;14.4203;-9.8330;-5.9424;0.0220;-0.2100;-0.2988
0000068795;14.2575;-9.8067;-5.7772;0.0274;-0.1669;-0.2762
0000068807;14.2790;-9.6726;-5.9137;0.0127;-0.1207;-0.2288
0000068815;14.0564;-9.5888;-5.8658;-0.0032;-0.0946;-0.1972
0000068823;14.2431;-9.5385;-5.6623;-0.0333;-0.0707;-0.1655
0000068887;14.1952;-9.9359;-5.2289;0.0228;-0.0348;0.0733
0000068895;14.1833;-10.0724;-5.1715;0.0302;-0.0410;0.0823
0000068907;14.1809;-10.0556;-5.1930;0.0486;-0.0581;0.0870
0000068915;14.2647;-10.1801;-5.2457;0.0588;-0.0642;0.0862
0000068927;14.2742;-10.1514;-5.2170;0.0666;-0.0573;0.0897
0000068935;14.1521;-10.3070;-5.3008;0.0667;-0.0592;0.0811
0000068947;13.9582;-10.4124;-5.4660;0.0843;-0.0557;0.0695
0000068955;14.1904;-10.4004;-5.2744;0.0945;-0.0497;0.0625
0000068967;14.0588;-10.4890;-5.2625;0.1063;-0.0462;0.0369
0000068975;14.2144;-10.4196;-5.3367;0.1045;-0.0390;0.0266
0000068987;14.3030;-10.2544;-5.2888;0.0819;-0.0218;0.0199
0000068995;14.3221;-10.3669;-5.2313;0.0762;-0.0196;0.0165
0000069003;14.2024;-10.3573;-5.2864;0.0659;-0.0147;0.0179
0000069015;14.2503;-10.1706;-5.1523;0.0628;-0.0151;0.0163
0000069023;14.1210;-10.3334;-5.2002;0.0570;-0.0068;0.0296
0000069035;14.1186;-10.2328;-5.2218;0.0446;-0.0083;0.0448
0000069043;14.1282;-10.2663;-5.3056;0.0413;-0.0160;0.0473
0000069055;14.1042;-10.2017;-5.2313;0.0282;-0.0064;0.0670
0000069063;14.1258;-10.3310;-5.2098;0.0309;0.0021;0.0737
0000069075;14.2000;-10.3358;-5.3510;0.0280;0.0139;0.0670
0000069083;14.0300;-10.4962;-5.3223;0.0281;0.0244;0.0690
0000069151;14.0228;-10.5034;-5.1140;0.0199;0.0332;0.0113
0000069159;14.3317;-10.1394;-5.1308;0.0112;0.0330;0.0175
0000069167;14.1138;-10.4363;-5.1044;0.0148;0.0232;0.0152
0000069179;14.1761;-10.2639;-5.1308;0.0172;0.0252;0.0171
0000069189;14.2790;-10.3860;-5.1595;0.0036;0.0249;0.0217
0000069201;14.2168;-10.3932;-5.1068;0.0076;0.0217;0.0173
0000069210;14.2144;-10.3573;-5.0925;0.0147;0.0107;0.0123
0000069223;14.1162;-10.5321;-5.1260;0.0068;0.0085;-0.0023
0000069232;14.1665;-10.5010;-5.1523;-0.0084;0.0065;-0.0221
0000069245;14.1138;-10.4651;-5.1212;-0.0044;0.0003;-0.0440
0000069254;14.1641;-10.4315;-5.1427;0.0047;0.0116;-0.0308
0000069267;14.0827;-10.4938;-5.1068;0.0127;0.0123;-0.0240
0000069276;14.1114;-10.4124;-5.1284;0.0096;0.0079;-0.0264
0000069289;14.0707;-10.3094;-5.0925;-0.0004;-0.0005;-0.0282
0000069298;14.0492;-10.3094;-5.0637;-0.0068;-0.0059;-0.0218
0000069307;14.1952;-10.2568;-5.0661;-0.0056;-0.0048;-0.0216
0000069320;14.2766;-10.2663;-4.9656;-0.0073;-0.0053;-0.0045
0000069329;14.1880;-10.4842;-5.0589;-0.0033;-0.0155;-0.0028
0000069342;14.2000;-10.4267;-5.0422;-0.0045;-0.0199;-0.0036
0000069351;14.3245;-10.4507;-5.1092;-0.0068;-0.0080;-0.0035
0000069364;14.3173;-10.3453;-5.1212;-0.0015;-0.0061;-0.0100
0000069373;14.4514;-10.4052;-5.0661;0.0053;-0.0100;-0.0143
0000069442;14.0492;-10.4579;-5.1188;-0.0121;-0.0350;-0.0005
0000069451;14.4610;-10.3813;-5.0518;-0.0019;-0.0406;-0.0083
0000069464;14.2024;-10.2639;-5.0302;-0.0040;-0.0365;-0.0083
0000069473;14.3461;-10.3717;-5.0877;-0.0072;-0.0280;-0.0099
0000069486;14.2144;-10.3717;-5.0829;-0.0104;-0.0333;-0.0041
0000069495;14.2359;-10.4627;-5.0709;-0.0056;-0.0282;-0.0069
0000069508;14.1880;-10.5632;-5.0973;-0.0035;-0.0324;-0.0099
0000069517;14.1018;-10.5800;-5.1308;-0.0065;-0.0241;-0.0107
0000069530;14.1880;-10.3908;-5.0949;-0.0025;-0.0236;-0.0100
0000069539;14.1066;-10.4363;-5.0781;-0.0068;-0.0228;-0.0071
0000069552;14.0133;-10.5177;-5.0135;-0.0048;-0.0270;-0.0081
0000069561;14.1785;-10.5225;-5.0446;0.0001;-0.0229;-0.0077
0000069570;14.3652;-10.3765;-5.0685;0.0012;-0.0256;-0.0067
0000069586;13.9893;-10.4100;-5.0853;-0.0081;-0.0381;-0.0388
0000069595;14.2024;-10.4220;-4.9249;-0.0081;-0.0376;-0.0340
0000069608;14.2240;-10.5417;-5.0781;0.0044;-0.0246;0.0029
0000069617;14.2718;-10.5800;-5.1044;-0.0051;-0.0222;0.0044
0000069686;14.2838;-10.4196;-5.0757;-0.0119;-0.0224;-0.0117
0000069695;14.2359;-10.5297;-5.0398;-0.0057;-0.0189;-0.0093
0000069708;14.3413;-10.3789;-5.0518;-0.0012;-0.0159;-0.0197
0000069717;14.0540;-10.6710;-5.0949;-0.0100;-0.0145;-0.0172
0000069729;14.0324;-10.5441;-4.9775;0.0048;-0.0249;-0.0434
0000069738;13.9678;-10.5704;-4.9512;-0.0085;-0.0285;-0.0586
0000069751;14.2862;-10.3813;-4.9775;0.0091;-0.0357;-0.0424
0000069760;14.3173;-10.2951;-5.0159;0.0129;-0.0270;-0.0285
0000069772;14.0995;-10.2903;-4.9943;0.0135;-0.0401;-0.0326
0000069781;14.2623;-10.2592;-4.9728;0.0056;-0.0344;-0.0208
0000069794;14.1833;-10.4531;-4.9057;0.0004;-0.0342;-0.0083
0000069803;14.3077;-10.4196;-5.0661;-0.0084;-0.0357;-0.0031
0000069815;14.3532;-10.3860;-5.0135;-0.0131;-0.0397;0.0017
0000069824;14.2024;-10.5225;-5.0637;-0.0120;-0.0406;0.0019
0000069833;14.1569;-10.4603;-4.9991;-0.0077;-0.0437;-0.0057
0000069846;14.2766;-10.3358;-5.0661;-0.0148;-0.0458;-0.0027
0000069855;14.3580;-10.2256;-5.0566;-0.0091;-0.0497;-0.0101
0000069867;14.2838;-10.4100;-5.0278;-0.0123;-0.0460;-0.0080
0000069876;14.2718;-10.3597;-5.0781;-0.0139;-0.0488;-0.0079
0000069889;14.2958;-10.3597;-5.0350;-0.0144;-0.0406;-0.0060
0000069898;14.3125;-10.3908;-5.0518;-0.0100;-0.0474;-0.0133
0000069967;14.3101;-10.3501;-5.0781;-0.0163;-0.0366;-0.0097
0000069976;14.0013;-10.6949;-5.0422;-0.0187;-0.0340;-0.0136
0000069989;14.2934;-10.4244;-5.0613;-0.0121;-0.0342;-0.0132
0000069998;14.4083;-10.3525;-5.1164;-0.0091;-0.0368;-0.0185
0000070010;14.1976;-10.4291;-5.0518;-0.0115;-0.0353;-0.0208
0000070019;14.3221;-10.4435;-5.0326;-0.0151;-0.0348;-0.0175
0000070032;14.1976;-10.4651;-5.0063;-0.0192;-0.0348;-0.0128
0000070041;14.2000;-10.4627;-5.0230;-0.0167;-0.0432;-0.0212
0000070053;14.2886;-10.2711;-5.0613;-0.0171;-0.0438;-0.0155
0000070062;14.1952;-10.3693;-5.1044;-0.0184;-0.0369;-0.0112
0000070075;14.2263;-10.4220;-5.0661;-0.0188;-0.0416;-0.0124
0000070084;14.2503;-10.3549;-5.0135;-0.0129;-0.0525;-0.0164
0000070096;14.3604;-10.3190;-5.0039;-0.0191;-0.0461;-0.0088
0000070105;14.2814;-10.3238;-5.0685;-0.0258;-0.0418;-0.0077
0000070114;14.3341;-10.4244;-5.1212;-0.0266;-0.0436;-0.0089
0000070127;14.4490;-10.2496;-5.1308;-0.0244;-0.0364;-0.0116
0000070136;14.2431;-10.4435;-5.1906;-0.0173;-0.0356;-0.0177
0000070148;14.2599;-10.3908;-5.0111;-0.0120;-0.0324;-0.0149
0000070157;14.4706;-10.3453;-5.0589;-0.0135;-0.0293;-0.0164
0000070170;14.2814;-10.4675;-5.0087;-0.0195;-0.0341;-0.0131
0000070179;14.2742;-10.3908;-5.2265;-0.0238;-0.0325;-0.0195
0000070249;14.1138;-10.4675;-4.9704;-0.0059;-0.0270;-0.0207
0000070258;14.2479;-10.3693;-4.9584;-0.0140;-0.0221;-0.0225
0000070271;14.1880;-10.4100;-5.0470;-0.0139;-0.0261;-0.0245
0000070280;14.3149;-10.3573;-5.0542;-0.0141;-0.0286;-0.0205
0000070292;14.2551;-10.3238;-4.9632;-0.0139;-0.0337;-0.0152
0000070301;14.3700;-10.2328;-4.9943;-0.0096;-0.0382;-0.0060
0000070314;14.4227;-10.3789;-4.9632;-0.0115;-0.0430;-0.0025
0000070323;14.3317;-10.4387;-5.0063;-0.0163;-0.0369;0.0063
0000070335;14.1258;-10.4914;-5.0182;-0.0113;-0.0442;-0.0089
0000070344;14.2168;-10.5512;-5.1116;-0.0151;-0.0412;-0.0023
0000070357;14.4658;-10.2496;-5.0542;-0.0185;-0.0365;-0.0033
0000070366;14.2766;-10.4603;-5.0613;-0.0215;-0.0406;-0.0077
0000070378;14.2216;-10.5441;-5.1284;-0.0192;-0.0308;-0.0080
0000070387;14.1425;-10.4387;-5.1595;-0.0139;-0.0301;-0.0136
0000070396;14.1880;-10.5417;-5.0422;-0.0095;-0.0282;-0.0120
0000070409;14.1497;-10.4746;-5.0278;-0.0060;-0.0332;-0.0141
0000070418;14.1856;-10.3932;-5.0254;-0.0011;-0.0342;-0.0100
0000070430;14.3868;-10.3070;-5.0685;-0.0032;-0.0346;-0.0080
0000070439;14.0779;-10.5105;-5.0470;-0.0061;-0.0301;-0.0044
0000070452;14.2742;-10.4890;-5.0111;-0.0055;-0.0298;-0.0012
0000070461;14.2766;-10.4579;-5.1140;0.0032;-0.0358;-0.0067
0000070531;14.0851;-10.5129;-5.0206;-0.0188;-0.0364;-0.0189
0000070540;14.3317;-10.2256;-4.9967;-0.0207;-0.0417;-0.0217
0000070553;14.2048;-10.4842;-5.1356;-0.0211;-0.0481;-0.0265
0000070562;14.1689;-10.4818;-5.0781;-0.0274;-0.0408;-0.0193
0000070574;14.1785;-10.4722;-5.0781;-0.0241;-0.0480;-0.0270
0000070583;14.2120;-10.4938;-5.1284;-0.0269;-0.0481;-0.0218
0000070596;14.2479;-10.5129;-5.0589;-0.0256;-0.0416;-0.0242
0000070605;14.1210;-10.4746;-5.0494;-0.0264;-0.0425;-0.0265
0000070617;14.1833;-10.3765;-5.0518;-0.0257;-0.0441;-0.0236
0000070626;14.3245;-10.3813;-5.1068;-0.0246;-0.0442;-0.0250
0000070639;14.2431;-10.4866;-5.1427;-0.0292;-0.0322;-0.0209
0000070648;14.5448;-10.3310;-5.1787;-0.0280;-0.0256;-0.0213
0000070660;14.4394;-10.3908;-5.2146;-0.0297;-0.0115;-0.0184
0000070669;14.3149;-10.3741;-5.1906;-0.0225;-0.0059;-0.0172
0000070678;14.1330;-10.5153;-5.0949;-0.0141;-0.0036;-0.0217
0000070691;14.2311;-10.3741;-4.9799;-0.0095;-0.0049;-0.0201
0000070700;14.1018;-10.3358;-4.9105;0.0000;-0.0245;-0.0207
0000070712;14.2120;-10.2472;-5.0230;-0.0028;-0.0200;0.0039
0000070721;14.2479;-10.2807;-5.0302;0.0016;-0.0246;0.0092
0000070734;14.2670;-10.4148;-5.0685;-0.0005;-0.0248;0.0176
0000070743;14.1497;-10.6207;-4.9871;-0.0095;-0.0203;0.0084
0000070813;14.1449;-10.4267;-4.9512;-0.0173;-0.0480;-0.0218
0000070822;14.1617;-10.4531;-4.9704;-0.0266;-0.0418;-0.0085
0000070835;14.1473;-10.4148;-4.9680;-0.0262;-0.0442;-0.0039
0000070844;14.1856;-10.4866;-5.0159;-0.0187;-0.0488;-0.0093
0000070856;14.2359;-10.5082;-4.9847;-0.0273;-0.0433;-0.0064
0000070865;14.2503;-10.5129;-5.0613;-0.0288;-0.0494;-0.0135
0000070878;14.1976;-10.5321;-5.0781;-0.0254;-0.0432;-0.0137
0000070887;14.1880;-10.5560;-5.1619;-0.0216;-0.0396;-0.0119
0000070899;14.1018;-10.5082;-4.9895;-0.0167;-0.0362;-0.0067
0000070908;14.1928;-10.4890;-5.0374;-0.0184;-0.0377;-0.0103
0000070921;14.1809;-10.3908;-5.0661;-0.0135;-0.0322;-0.0080
0000070930;14.2000;-10.4531;-5.0661;-0.0218;-0.0316;-0.0141
0000070939;14.1449;-10.6350;-5.0302;-0.0184;-0.0304;-0.0211
0000070951;14.5041;-10.2232;-5.1691;-0.0217;-0.0205;-0.0193
0000070960;14.3676;-10.3765;-5.1164;-0.0117;-0.0157;-0.0161
0000070973;14.2503;-10.2831;-5.1308;-0.0041;-0.0148;-0.0081
0000070982;14.2670;-10.3860;-5.0901;0.0025;-0.0188;-0.0104
0000070992;14.0947;-10.3813;-4.9871;-0.0093;-0.0140;-0.0021
0000071000;14.1641;-10.5728;-4.9440;-0.0071;-0.0129;-0.0045
0000071013;14.1258;-10.5105;-4.9416;-0.0152;-0.0148;-0.0088
0000071021;14.2168;-10.4028;-5.0661;-0.0145;-0.0253;-0.0253
