time;acc_x;acc_y;acc_z;gyro_x;gyro_y;gyro_z
0002399382;7.0246;2.2482;3.7876;-0.0252;-0.0238;-0.0132
0002399391;6.9504;2.1237;3.8020;-0.0204;-0.0232;-0.0143
0002399399;6.9264;2.0566;3.7637;-0.0168;-0.0274;-0.0171
0002399407;6.8139;1.9441;3.7350;0.0016;-0.0448;-0.0290
0002399418;6.9815;2.1332;3.8116;0.0041;-0.0337;-0.0300
0002399426;7.0988;2.2505;3.7613;0.0135;-0.0478;-0.0426
0002399480;6.9384;2.2793;3.7038;-0.0071;-0.0309;-0.0353
0002399488;6.8426;2.1476;3.7182;-0.0095;-0.0296;-0.0388
0002399496;6.8738;2.1117;3.6440;-0.0173;-0.0288;-0.0297
0002399507;6.9719;2.0351;3.7397;-0.0207;-0.0240;-0.0394
0002399515;6.8498;2.0542;3.7469;-0.0143;-0.0276;-0.0320
0002399526;6.9145;2.2362;3.6895;-0.0185;-0.0320;-0.0265
0002399534;7.1084;2.2410;3.8355;-0.0115;-0.0309;-0.0301
0002399545;6.9743;2.2338;3.8259;-0.0075;-0.0204;-0.0248
0002399553;7.0509;2.1548;3.9744;0.0064;-0.0204;-0.0353
0002399564;6.8570;2.1021;3.7948;0.0220;-0.0107;-0.0378
0002399572;7.1682;2.3535;3.9433;0.0413;-0.0184;-0.0465
0002399580;6.9168;2.0949;3.8475;0.0608;-0.0101;-0.0566
0002399591;6.9911;2.2290;3.9169;0.1046;0.0045;-0.0633
0002399599;6.9791;2.4684;4.0223;0.1408;0.0128;-0.0670
0002399610;7.0270;2.5786;4.1444;0.1801;0.0270;-0.0751
0002399618;7.2449;2.5738;4.0582;0.2116;0.0225;-0.0854
0002399629;7.1275;2.7964;4.0558;0.2438;0.0254;-0.0766
0002399637;7.0797;2.6264;3.9169;0.2778;0.0205;-0.0834
0002399645;7.1419;2.4469;4.0079;0.3420;0.0149;-0.0809
0002399656;7.0892;2.5522;4.2329;0.4695;0.0298;-0.0885
0002399664;7.2089;2.5426;4.2713;0.5139;0.0352;-0.1123
0002399675;6.7636;2.5833;4.1515;0.6049;0.0254;-0.1096
0002399683;7.0054;2.8156;3.9672;0.6508;0.0322;-0.1071
0002399737;7.0892;3.4955;4.0845;0.8711;-0.0148;-0.0943
0002399745;6.7900;3.2944;3.9241;0.9242;-0.0313;-0.0889
0002399753;6.5314;3.2729;3.8930;0.9549;-0.0612;-0.0911
0002399764;6.5290;3.5123;3.7397;0.9591;-0.0925;-0.0841
0002399772;6.6391;3.4165;3.9840;0.9495;-0.1081;-0.0783
0002399783;6.5074;3.5721;3.7206;0.9617;-0.1198;-0.0803
0002399791;6.6319;3.9121;3.6559;0.9783;-0.1274;-0.0759
0002399802;6.6702;3.9983;3.7852;1.0146;-0.1460;-0.0818
0002399810;6.7660;4.2784;3.8954;1.0300;-0.1701;-0.0797
0002399818;7.0318;4.4077;4.0342;1.0400;-0.1939;-0.0774
0002399829;7.1706;4.4700;4.2641;1.0949;-0.2189;-0.0725
0002399837;7.2305;4.4436;4.4436;1.1471;-0.2454;-0.0681
0002399848;7.2568;4.3359;4.6783;1.2153;-0.2826;-0.0433
0002399856;7.2712;4.1946;4.7022;1.2437;-0.3042;-0.0149
0002399867;7.3430;4.1563;4.6783;1.2839;-0.3269;0.0111
0002399875;7.5178;4.1803;4.7309;1.3099;-0.3293;0.0079
0002399886;7.4723;3.9792;4.4149;1.3937;-0.3540;-0.0373
0002399894;7.0892;3.6464;3.8379;1.4448;-0.3399;-0.0662
0002399902;7.0605;3.5506;3.7541;1.4493;-0.3139;-0.0865
0002399913;6.9719;3.4381;3.3591;1.4208;-0.2703;-0.1168
0002399921;6.5529;3.0382;2.8252;1.3825;-0.2273;-0.1443
0002399932;6.5457;3.3543;1.9824;1.3103;-0.2080;-0.1899
0002399940;6.5242;3.4453;1.3623;1.2244;-0.1962;-0.1919
0002399994;7.4101;5.4995;-0.3519;0.6101;-0.3663;0.0238
0002400002;7.3837;5.4468;-0.2274;0.6007;-0.4074;0.0561
0002400010;7.5298;5.4564;-0.2514;0.6245;-0.4430;0.0544
0002400021;7.3550;5.3846;-0.3160;0.6775;-0.4572;0.0169
0002400029;7.1946;5.3032;-0.4884;0.6948;-0.4506;-0.0329
0002400040;7.0222;5.3678;-0.7063;0.6977;-0.4550;-0.1102
0002400048;6.8905;5.2289;-0.8954;0.6602;-0.4507;-0.1356
0002400059;6.9312;5.1092;-0.9074;0.5864;-0.4538;-0.1490
0002400067;6.9073;5.1691;-0.9505;0.5296;-0.4663;-0.1304
0002400078;7.0054;5.1212;-0.9505;0.4608;-0.4663;-0.1148
0002400086;7.0054;5.2864;-0.8332;0.4361;-0.4768;-0.0995
0002400094;6.9599;5.2553;-0.8523;0.4141;-0.4900;-0.0846
0002400105;6.9599;5.3295;-0.7925;0.4137;-0.5235;-0.0822
0002400113;7.2065;5.4348;-0.7661;0.4045;-0.5446;-0.0693
0002400124;7.3071;5.2625;-0.6871;0.3990;-0.5744;-0.0605
0002400132;7.4124;5.2385;-0.4908;0.3865;-0.5837;-0.0532
0002400143;7.3095;4.7932;-0.4238;0.4040;-0.6087;-0.0809
0002400151;7.2616;4.5969;-0.4405;0.4519;-0.6289;-0.1194
0002400162;7.0054;4.0151;-0.2849;0.5325;-0.6427;-0.1491
0002400170;7.0868;3.7972;-0.1772;0.5853;-0.6667;-0.1677
0002400178;6.8091;3.6224;-0.2346;0.6193;-0.6904;-0.1847
0002400189;6.7109;3.2537;-0.2251;0.6257;-0.6965;-0.1753
0002400197;6.5170;3.0143;-0.2251;0.6233;-0.7001;-0.1743
0002400251;6.0813;1.9417;-0.4477;0.5115;-0.7285;-0.1857
0002400259;5.8131;1.7573;-0.3591;0.4778;-0.7236;-0.1831
0002400270;5.8873;1.7310;-0.8284;0.4696;-0.7089;-0.1772
0002400278;5.7078;1.6448;-0.7302;0.4734;-0.6796;-0.1708
0002400289;5.5617;1.5036;-0.7614;0.4907;-0.6720;-0.1544
0002400297;5.5929;1.4317;-0.9194;0.4859;-0.6395;-0.1346
0002400305;5.5665;1.2737;-0.9553;0.4892;-0.6022;-0.1144
0002400316;5.9735;1.2354;-0.7829;0.5381;-0.5548;-0.1046
0002400324;6.1387;0.7805;-0.7949;0.6023;-0.5183;-0.1122
0002400335;6.2297;0.2418;-0.6393;0.6909;-0.4485;-0.1239
0002400343;6.2944;0.0263;-0.7542;0.7492;-0.4133;-0.1434
0002400354;6.5912;-0.2346;-0.8475;0.8184;-0.3484;-0.1704
0002400362;6.5122;-0.4812;-0.8739;0.8436;-0.3124;-0.2144
0002400373;6.2249;-0.8452;-1.0295;0.8408;-0.2741;-0.2769
0002400381;6.1172;-1.1851;-1.1277;0.8186;-0.2585;-0.3066
0002400392;6.0837;-1.5060;-1.1325;0.8080;-0.2623;-0.3427
0002400400;6.0525;-1.7190;-1.2761;0.8007;-0.2908;-0.3400
0002400408;6.2201;-2.2458;-1.2953;0.7901;-0.3396;-0.3126
0002400419;6.4380;-2.5211;-1.4724;0.7600;-0.4203;-0.2597
0002400427;6.5362;-2.5594;-1.6735;0.6968;-0.4996;-0.2052
0002400438;6.7277;-2.9951;-1.8459;0.5856;-0.6340;-0.1677
0002400446;6.6056;-3.1484;-1.9154;0.4646;-0.7232;-0.1680
0002400500;4.3838;-0.9529;-3.8355;-1.0321;-0.8528;-0.1687
0002400508;4.0917;-0.1149;-4.3191;-1.1832;-0.7249;-0.0621
0002400519;4.0175;0.9984;-4.6687;-1.3694;-0.4864;0.1188
0002400527;4.1324;1.8292;-4.8937;-1.4526;-0.3639;0.2281
0002400535;4.1755;2.3750;-4.4293;-1.5190;-0.2401;0.3075
0002400546;4.3144;3.0191;-3.9217;-1.5583;-0.1775;0.3339
0002400554;4.6735;3.5458;-3.6248;-1.5681;-0.1781;0.3072
0002400565;5.3965;4.2234;-3.3519;-1.5371;-0.2721;0.2368
0002400573;5.8419;4.4077;-3.1580;-1.4786;-0.4021;0.1577
0002400584;6.7181;4.8291;-2.7366;-1.3334;-0.6291;0.0305
0002400592;7.3981;4.9871;-2.5786;-1.1851;-0.8278;-0.0428
0002400603;7.8147;4.8650;-1.9609;-0.9397;-1.1219;-0.1174
0002400611;8.3510;4.9728;-1.7669;-0.7380;-1.3315;-0.1669
0002400622;8.4324;5.0254;-1.3168;-0.4799;-1.5783;-0.2214
0002400630;8.4635;4.9991;-1.1349;-0.3087;-1.7108;-0.2602
0002400638;8.1666;4.9847;-0.7805;-0.1416;-1.7986;-0.2975
0002400649;7.6447;4.3981;-0.4094;0.0705;-1.8976;-0.3048
0002400657;6.9815;3.9265;-0.2490;0.2304;-1.8924;-0.2898
0002400668;6.2752;3.6607;-0.1628;0.3657;-1.8772;-0.2086
0002400676;5.7365;3.1101;0.0670;0.4189;-1.8838;-0.1463
0002400687;4.9512;2.8108;0.2514;0.4297;-1.7922;-0.0713
0002400695;4.4508;2.6073;0.2586;0.4102;-1.6784;-0.0226
0002400748;3.7350;1.7861;0.1413;-0.0281;-1.2336;-0.0101
0002400756;4.4700;2.1644;0.0910;-0.1147;-1.2336;0.0089
0002400764;4.8985;2.0231;0.1173;-0.1652;-1.2478;0.0234
0002400775;5.5474;2.2793;0.1796;-0.1928;-1.2926;0.0316
0002400783;5.7078;2.4373;0.1604;-0.2049;-1.3418;0.0296
0002400794;5.7868;2.6025;0.4381;-0.2376;-1.3929;0.0405
0002400802;5.9783;2.8515;0.5100;-0.2389;-1.4433;0.0304
0002400813;5.5737;2.7294;0.5602;-0.2089;-1.4667;0.0290
0002400821;5.6407;2.9113;0.7733;-0.1653;-1.4805;0.0246
0002400829;5.3774;2.8635;0.7015;-0.1075;-1.5008;0.0276
0002400840;5.0254;2.7270;0.8164;-0.0063;-1.4941;0.0441
0002400848;5.0949;2.6743;0.8547;0.0572;-1.4966;0.0609
0002400859;4.8674;2.4756;0.9122;0.1046;-1.4786;0.1192
0002400867;4.7477;2.1117;0.9625;0.1426;-1.4743;0.1486
0002400878;4.7501;2.1452;0.8499;0.1322;-1.4473;0.2082
0002400886;4.7549;2.1524;0.7877;0.0971;-1.4333;0.2542
0002400897;4.8602;2.0255;0.9553;0.0245;-1.3972;0.3143
0002400905;4.7764;1.8483;0.8547;-0.0268;-1.3808;0.3385
0002400913;4.6639;1.8028;0.9433;-0.0682;-1.3624;0.3489
0002400924;4.6615;1.9273;1.0606;-0.1478;-1.3141;0.3679
0002400932;4.2425;1.8842;1.0439;-0.2053;-1.2895;0.3720
0002400943;4.1061;2.1189;1.1612;-0.2851;-1.2272;0.3736
0002400951;4.0989;2.1835;1.2522;-0.3280;-1.1927;0.3560
0002401004;2.8898;2.9113;1.8220;-0.4772;-0.8378;0.2639
0002401012;2.7031;3.0215;1.7310;-0.4616;-0.7601;0.2407
0002401020;2.4636;2.9975;1.8292;-0.4233;-0.6494;0.2152
0002401031;1.9393;2.8826;2.0159;-0.3607;-0.6067;0.1721
0002401039;2.0135;3.1939;2.0494;-0.2924;-0.5592;0.1443
0002401050;1.5706;2.7940;2.3248;-0.2057;-0.5327;0.1474
0002401058;1.7957;3.1412;2.2027;-0.1462;-0.5340;0.1447
0002401069;2.3391;2.9497;2.1117;-0.0833;-0.5139;0.1761
0002401077;2.8036;2.8922;1.4964;-0.0385;-0.5489;0.1288
0002401085;3.9720;3.0406;-0.3256;0.0067;-0.7089;0.0145
0002401096;5.7174;3.7661;-3.2010;0.0530;-1.0641;-0.1903
0002401104;6.7780;3.9983;-4.6088;0.0016;-1.3868;-0.4249
0002401115;9.6414;5.3870;-4.0031;-0.3147;-1.8607;-0.8537
0002401123;11.8776;5.4731;-3.0095;-0.6247;-1.9136;-1.0027
0002401134;11.6215;3.5745;1.1803;-0.8442;-1.4853;-0.9158
0002401142;7.9703;2.5067;3.4022;-0.7497;-1.3753;-0.9308
0002401153;4.3239;3.0909;2.3870;-0.4030;-1.3504;-1.0078
0002401161;2.3008;3.8571;0.6847;-0.2294;-1.3526;-1.0195
0002401172;1.0439;4.5586;-1.1277;-0.0890;-1.3821;-0.9020
0002401180;1.3862;5.2936;-1.8411;-0.0707;-1.3423;-0.6735
0002401188;1.9872;5.8778;-1.8579;-0.1990;-1.2826;-0.4509
0002401199;4.0941;6.1675;-1.3048;-0.4000;-1.2482;-0.2827
0002401207;5.3750;5.9640;-1.3647;-0.4233;-1.2223;-0.2316
0002401261;9.7827;4.2617;-0.8068;0.7481;-1.6010;-0.1659
0002401269;9.3877;3.8188;-1.0750;0.7274;-1.6998;-0.1194
0002401280;9.0716;3.7182;-1.1396;0.6041;-1.8121;-0.0409
0002401288;8.3869;3.2968;-1.0271;0.4963;-1.8251;0.0225
0002401299;7.8697;3.2417;-0.8906;0.3810;-1.8912;0.1122
0002401307;7.1012;3.0574;-1.0223;0.3263;-1.9316;0.1597
0002401315;6.8402;3.2058;-1.0989;0.2880;-1.9636;0.2132
0002401326;6.6726;3.0981;-1.1420;0.2813;-1.9513;0.2455
0002401334;6.7516;3.1843;-0.9936;0.3163;-1.9352;0.2483
0002401345;6.5721;2.8563;-0.8739;0.4257;-1.8846;0.2089
0002401353;6.4859;2.6073;-0.5938;0.5131;-1.8790;0.1765
0002401364;6.3877;2.2529;-0.5315;0.6218;-1.8844;0.1194
0002401372;6.6942;2.2338;-0.3208;0.6722;-1.8903;0.0723
0002401383;6.7038;2.0877;-0.1676;0.6931;-1.9008;0.0089
0002401391;6.6032;1.8172;-0.1556;0.6780;-1.9521;-0.0290
0002401399;6.2656;1.5850;-0.0910;0.6261;-1.9813;-0.0566
0002401410;6.2872;1.6448;-0.1006;0.5540;-2.0399;-0.0787
0002401418;6.3183;1.6041;-0.0670;0.4914;-2.0867;-0.0877
0002401429;6.0789;1.5227;-0.0622;0.3934;-2.1266;-0.0773
0002401437;6.2441;1.6592;-0.1556;0.3191;-2.1517;-0.0634
0002401448;5.8682;1.6927;-0.2514;0.2110;-2.1726;-0.0474
0002401456;5.8179;1.5826;-0.2011;0.1359;-2.1886;-0.0425
0002401510;5.5857;2.7078;-0.0551;-0.2086;-2.1444;-0.0133
0002401518;5.5593;2.8898;-0.0383;-0.2314;-2.1106;-0.0132
0002401526;5.4779;3.1173;-0.1197;-0.2439;-2.0821;-0.0163
0002401537;5.3247;3.4022;0.0958;-0.2555;-2.0391;-0.0281
0002401545;4.9967;3.3112;0.1772;-0.2575;-1.9933;-0.0288
0002401556;4.7716;3.4764;0.2753;-0.2409;-1.9410;-0.0368
0002401564;4.6998;3.5267;0.2753;-0.2197;-1.9008;-0.0350
0002401575;4.4939;3.5578;0.1556;-0.1681;-1.8154;-0.0261
0002401583;4.6855;3.6368;0.2418;-0.1180;-1.7543;-0.0100
0002401594;4.7094;3.3974;0.1796;-0.0484;-1.6739;0.0187
0002401602;4.8052;3.3686;0.2514;-0.0028;-1.6173;0.0384
0002401610;4.7716;3.2106;0.2083;0.0344;-1.5495;0.0485
0002401621;4.9201;3.0335;0.0239;0.0618;-1.4585;0.0609
0002401629;5.1978;2.8802;0.0551;0.0686;-1.3912;0.0699
0002401640;5.2648;2.8204;0.0694;0.0613;-1.3294;0.0794
0002401648;5.2505;2.7629;-0.1149;0.0370;-1.2942;0.0810
0002401659;5.3415;2.7629;-0.3639;-0.0059;-1.2600;0.0638
0002401667;5.3391;2.6839;-0.3232;-0.0394;-1.2277;0.0396
0002401675;5.4085;2.7054;-0.3208;-0.0510;-1.2071;0.0044
0002401686;5.4947;2.9736;-0.1915;-0.0389;-1.1780;-0.0357
0002401694;5.4348;3.2322;-0.0790;-0.0177;-1.1374;-0.0605
0002401705;5.4061;3.2322;-0.0814;0.0225;-1.0754;-0.0967
0002401713;5.1834;3.2825;0.0766;0.0698;-1.0345;-0.1190
0002401767;4.9464;3.2322;-0.1460;0.1596;-0.6344;-0.1254
0002401775;5.1380;3.1292;-0.1125;0.1679;-0.5845;-0.1268
0002401786;5.3271;3.3064;-0.0455;0.1849;-0.5135;-0.1206
0002401794;5.3439;3.2322;-0.0383;0.2221;-0.4756;-0.1270
0002401802;5.3750;3.0742;0.0622;0.2449;-0.4271;-0.1216
0002401813;5.4372;3.1268;0.1149;0.2746;-0.3724;-0.1111
0002401821;5.3582;2.8659;0.0670;0.2818;-0.3365;-0.1022
0002401832;5.5378;2.8323;0.1173;0.2822;-0.2872;-0.0957
0002401840;5.1715;2.5067;0.0431;0.2673;-0.2459;-0.1022
0002401851;5.3989;2.5594;-0.0120;0.2356;-0.2058;-0.1246
0002401859;5.4923;2.5307;0.0024;0.1940;-0.1589;-0.1331
0002401870;5.4348;2.2482;0.0862;0.1491;-0.0961;-0.1418
0002401878;5.5234;2.3607;0.0575;0.1335;-0.0673;-0.1459
0002401886;5.4540;2.5402;0.0503;0.1190;-0.0368;-0.1482
0002401897;5.7150;2.7821;0.1173;0.0930;-0.0053;-0.1624
0002401905;5.6383;2.5331;0.1891;0.0711;0.0176;-0.1703
0002401916;5.9616;2.7892;0.1700;0.0554;0.0516;-0.1837
0002401924;5.7174;2.5235;0.2849;0.0534;0.0699;-0.1972
0002401935;5.7197;2.7270;0.3687;0.0576;0.0893;-0.2170
0002401943;5.7365;2.5977;0.1748;0.0480;0.1058;-0.2284
0002401951;5.7676;2.8252;0.0934;0.0452;0.1150;-0.2381
0002401962;5.7413;2.7940;0.1101;0.0476;0.1328;-0.2481
0002401970;5.6096;2.9353;0.2586;0.0465;0.1589;-0.2534
0002402024;5.2241;4.1731;-1.1851;-0.2272;0.2292;-0.0131
0002402032;5.5234;4.2928;-1.2881;-0.2657;0.2184;0.0424
0002402043;5.4923;4.2713;-1.1444;-0.2372;0.1933;0.0750
0002402051;5.8059;4.2162;-0.9385;-0.1688;0.1628;0.0801
0002402059;6.1292;4.4125;-0.9649;-0.0993;0.1356;0.0855
0002402070;6.4165;4.3431;-1.0487;0.0144;0.0674;0.0711
0002402078;6.4524;4.0342;-1.0295;0.0878;0.0173;0.0661
0002402089;6.3111;3.6990;-0.9673;0.1931;-0.0568;0.0338
0002402097;6.1220;3.4596;-0.9697;0.2478;-0.0985;0.0112
0002402108;5.9256;2.9185;-0.9290;0.2878;-0.1498;-0.0366
0002402116;5.6264;2.7078;-1.0271;0.3118;-0.1925;-0.0826
0002402127;5.6000;2.3367;-1.0630;0.3039;-0.2338;-0.1175
0002402135;5.3870;2.0830;-1.0965;0.2932;-0.2599;-0.1423
0002402143;5.4037;2.0542;-1.1660;0.2719;-0.2706;-0.1616
0002402154;5.0206;1.8052;-1.3216;0.2157;-0.2828;-0.1660
0002402162;5.0709;1.8100;-1.3024;0.1540;-0.2935;-0.1565
0002402173;5.0135;2.0231;-1.2426;0.0484;-0.2922;-0.1246
0002402181;4.7860;2.0375;-1.1564;-0.0329;-0.2912;-0.0898
0002402192;4.3359;2.0614;-1.1085;-0.1535;-0.2674;-0.0281
0002402200;4.4748;2.3487;-1.1372;-0.2278;-0.2398;0.0087
0002402254;4.3790;3.1292;-1.2450;-0.0910;-0.0494;0.0661
0002402262;4.4628;3.1292;-1.3743;-0.0220;-0.0337;0.0586
0002402270;4.5059;3.1603;-1.3455;0.0349;0.0063;0.0632
0002402281;4.5610;3.1196;-1.6233;0.0937;0.0445;0.0701
0002402289;4.3646;2.9544;-1.7573;0.1223;0.0741;0.0781
0002402300;4.3311;3.0813;-1.6640;0.1492;0.1284;0.1055
0002402308;4.3479;2.9975;-1.6352;0.1703;0.1648;0.1254
0002402319;4.2497;3.0765;-1.2163;0.1849;0.2374;0.1607
0002402327;4.0725;2.9975;-1.0870;0.2136;0.2814;0.1797
0002402335;4.2353;3.0574;-1.0295;0.2290;0.3247;0.2088
0002402346;4.2329;2.9640;-0.8667;0.2495;0.3836;0.2304
0002402354;4.1875;2.9640;-0.5698;0.2566;0.4171;0.2429
0002402365;3.8092;2.6288;-0.3998;0.2348;0.4663;0.2469
0002402373;3.9002;2.7222;-0.3280;0.2092;0.4986;0.2398
0002402384;3.8475;2.9090;-0.2035;0.1416;0.5578;0.2242
0002402392;3.7134;2.9616;-0.1724;0.0787;0.6083;0.1960
0002402400;3.5458;2.9808;-0.0862;0.0107;0.6671;0.1653
0002402411;3.5171;3.2513;-0.2370;-0.0622;0.7542;0.1203
0002402419;3.2657;3.2298;-0.1604;-0.0827;0.8070;0.0874
0002402430;3.4596;3.5243;-0.1700;-0.0709;0.8809;0.0474
0002402438;3.0311;3.3112;-0.1413;-0.0300;0.9154;0.0052
0002402449;3.1125;3.5985;-0.4214;0.0160;0.9379;-0.0502
0002402457;3.4189;3.6847;-0.5674;0.0212;0.9369;-0.1054
0002402511;4.5945;2.6695;0.0862;0.1709;0.9558;-0.2903
0002402519;4.3120;2.4756;-0.0144;0.1763;0.9726;-0.2987
0002402527;4.1492;2.2529;-0.0575;0.1581;0.9951;-0.2859
0002402538;4.0797;2.2146;-0.1125;0.1035;1.0269;-0.2519
0002402546;3.6655;1.9489;-0.1867;0.0409;1.0714;-0.2254
0002402557;3.8666;2.1620;-0.4405;-0.0432;1.1229;-0.1765
0002402565;3.7230;2.2027;-0.4788;-0.1014;1.1668;-0.1314
0002402576;3.9361;2.3248;-0.5650;-0.1653;1.2223;-0.0873
0002402584;3.9169;2.3080;-0.7542;-0.1859;1.2588;-0.0524
0002402592;4.0797;2.5307;-0.7230;-0.1952;1.2909;-0.0268
0002402603;4.3551;2.8084;-0.7087;-0.1756;1.3366;0.0017
0002402611;4.3167;2.6001;-0.6608;-0.1443;1.3619;0.0185
0002402622;4.2018;2.6552;-0.9601;-0.1037;1.4081;0.0501
0002402630;4.3048;2.6671;-1.0942;-0.0795;1.4297;0.0581
0002402641;4.1803;2.7701;-1.1636;-0.0911;1.4730;0.0734
0002402649;3.9744;2.6935;-1.4198;-0.1118;1.4813;0.0715
0002402660;4.5274;2.8060;-1.4700;-0.1360;1.4830;0.0666
0002402668;4.8243;2.7892;-1.3982;-0.1551;1.4813;0.0478
0002402676;5.2170;2.9018;-1.1803;-0.1607;1.4673;0.0241
0002402687;5.6743;3.0167;-1.1899;-0.1615;1.4492;-0.0027
0002402695;5.6719;2.9401;-1.1444;-0.1544;1.4238;-0.0191
0002402706;5.7317;2.8802;-1.3312;-0.1343;1.3807;-0.0377
0002402714;5.7365;2.9544;-1.4772;-0.1226;1.3324;-0.0453
0002402768;5.1619;3.2681;-2.4732;-0.2044;0.9164;-0.1219
0002402776;5.1356;3.4285;-2.6336;-0.1888;0.8581;-0.1431
0002402787;5.3319;3.6152;-2.7821;-0.1623;0.7898;-0.1789
0002402795;5.3630;3.6512;-2.8443;-0.1271;0.7525;-0.1958
0002402803;5.4253;3.6607;-2.7797;-0.0533;0.7152;-0.2166
0002402814;5.3463;3.3902;-2.6312;0.0765;0.7079;-0.2254
0002402822;5.1906;3.2226;-2.2577;0.1853;0.7084;-0.2389
0002402833;5.1212;2.8347;-2.1548;0.2976;0.7597;-0.2357
0002402841;5.0422;2.7581;-1.9824;0.3307;0.8240;-0.2498
0002402852;4.6448;2.5355;-1.8148;0.2879;0.9679;-0.2970
0002402860;4.1444;2.4014;-1.8794;0.1837;1.1126;-0.3671
0002402871;3.4812;2.6695;-1.6305;-0.0662;1.3217;-0.5530
0002402879;3.0909;2.6025;-1.5658;-0.2878;1.4821;-0.7245
0002402887;2.9832;2.8922;-1.3288;-0.4698;1.6309;-0.8569
0002402898;3.0047;2.6815;-0.5004;-0.5750;1.8289;-0.8962
0002402906;3.2226;2.7414;0.2921;-0.5304;1.9573;-0.8058
0002402917;3.2010;2.9449;0.9768;-0.4040;2.1120;-0.5448
0002402925;3.2250;3.0454;1.4102;-0.3304;2.1817;-0.3388
0002402936;3.7661;3.4069;1.4605;-0.2976;2.2673;-0.1204
0002402944;4.4029;3.4931;1.5012;-0.2880;2.3018;-0.0470
0002402952;5.1691;3.5985;1.6041;-0.2766;2.3224;-0.0176
0002402963;6.0645;3.5314;1.5897;-0.2558;2.2882;-0.0071
0002402971;6.5673;3.5602;1.3599;-0.2258;2.2399;-0.0037
0002403021;7.2616;2.8491;0.1221;-0.0839;1.9164;0.1079
0002403029;6.9145;2.6049;0.0192;-0.1094;1.8912;0.1045
0002403040;6.5027;2.4900;0.1269;-0.1516;1.8706;0.0775
0002403048;5.9616;2.3343;0.2203;-0.1960;1.8556;0.0497
0002403059;5.8466;2.6887;0.2753;-0.2682;1.8371;0.0127
0002403067;5.6192;2.6935;0.4621;-0.3235;1.8178;0.0093
0002403075;5.5067;2.7940;0.3232;-0.3709;1.7922;-0.0025
0002403086;5.6120;2.9401;0.4501;-0.4278;1.7517;0.0169
0002403094;5.6264;2.9544;0.5387;-0.4594;1.7103;0.0338
0002403105;5.9424;3.0239;0.6033;-0.4806;1.6587;0.0616
0002403113;5.7245;2.7677;0.4310;-0.4735;1.6054;0.0742
0002403124;6.0980;2.9497;0.4669;-0.4563;1.5363;0.0867
0002403132;6.0214;2.7533;0.3974;-0.4347;1.4933;0.0859
0002403140;6.3877;3.0287;0.3974;-0.4053;1.4432;0.0737
0002403151;6.3614;2.8754;0.4142;-0.3990;1.3636;0.0694
0002403159;6.4141;2.9281;0.2849;-0.4102;1.3125;0.0789
0002403170;6.5601;3.1508;0.0431;-0.4163;1.2440;0.1071
0002403178;6.3111;2.9736;-0.0383;-0.4298;1.1992;0.1372
0002403189;6.4069;3.2441;0.0287;-0.4535;1.1495;0.1824
0002403197;6.4883;3.3639;0.0766;-0.4783;1.1167;0.2258
0002403205;6.5050;3.3710;0.1341;-0.4894;1.0870;0.2510
0002403216;6.4500;3.3639;0.1628;-0.4859;1.0585;0.2698
0002403224;6.3590;3.5721;0.1987;-0.4723;1.0523;0.2695
0002403278;5.5402;3.0023;0.2777;-0.1751;1.2055;0.1684
0002403286;5.6790;2.9449;0.3759;-0.1523;1.2331;0.1383
0002403297;5.9711;2.7605;0.2825;-0.1446;1.2728;0.1215
0002403305;6.0956;2.5402;0.4094;-0.1320;1.2887;0.0919
0002403313;6.2273;2.5857;0.4190;-0.1288;1.2902;0.0809
0002403324;6.5505;2.5474;0.4956;-0.1536;1.2923;0.0663
0002403332;6.7205;2.4756;0.5100;-0.1792;1.2845;0.0430
0002403343;7.0509;2.6432;0.5171;-0.2419;1.2530;0.0329
0002403351;7.3334;2.8180;0.5387;-0.2786;1.2296;0.0215
0002403362;7.4867;2.9640;0.4956;-0.3150;1.1827;0.0091
0002403370;7.4077;2.8826;0.3950;-0.3336;1.1558;0.0163
0002403378;7.6950;3.2657;0.2586;-0.3537;1.1282;0.0221
0002403389;7.8027;3.4764;0.1844;-0.3511;1.0870;0.0165
0002403397;7.8027;3.5721;0.1604;-0.3439;1.0655;0.0175
0002403408;7.6686;3.5650;0.1293;-0.3028;1.0392;0.0124
0002403416;7.8793;3.6583;0.1125;-0.2615;1.0146;0.0011
0002403427;7.5609;3.4477;-0.0096;-0.1888;0.9743;-0.0137
0002403435;7.4867;3.3639;0.1221;-0.1492;0.9518;-0.0277
0002403443;7.7428;3.3351;0.0958;-0.1073;0.9265;-0.0442
0002403454;7.6231;3.1556;0.0215;-0.0705;0.8851;-0.0625
0002403462;7.6255;2.9473;0.0287;-0.0610;0.8541;-0.0681
0002403473;7.8123;2.8730;0.0958;-0.0598;0.8188;-0.0895
0002403481;7.8482;2.8036;-0.0048;-0.0649;0.7823;-0.1005
0002403535;7.3119;2.6791;0.1269;-0.1396;0.6732;-0.2661
0002403543;7.2903;2.7390;0.1772;-0.1127;0.6781;-0.2952
0002403554;7.3310;2.8922;0.3807;-0.0765;0.6648;-0.3191
0002403562;7.4843;3.0263;0.2538;-0.0530;0.6588;-0.3392
0002403570;7.3909;2.8898;0.3280;-0.0440;0.6559;-0.3384
0002403581;7.5010;2.6743;0.4405;-0.0464;0.6439;-0.3407
0002403589;7.7381;2.9305;0.4621;-0.0525;0.6273;-0.3536
0002403600;7.7189;2.9449;0.4956;-0.0565;0.6050;-0.3628
0002403608;7.8650;2.8299;0.6225;-0.0488;0.5895;-0.3725
0002403619;7.8434;2.8204;0.5507;-0.0241;0.5706;-0.3725
0002403627;7.1299;3.0885;0.3903;-0.0754;0.5546;-0.2765
0002403635;6.7516;2.8467;0.4262;-0.1476;0.5288;-0.1716
0002403646;6.7133;2.9281;0.5986;-0.1970;0.4823;-0.0544
0002403654;6.5793;2.9425;0.6225;-0.2138;0.4792;0.0193
0002403665;6.6631;3.0239;0.6081;-0.1827;0.4851;0.0628
0002403673;6.8163;3.3279;0.6704;-0.1290;0.4956;0.0665
0002403684;6.5817;3.1220;0.4166;0.0067;0.4950;0.0183
0002403692;6.6607;3.4357;-0.2705;0.0975;0.5184;-0.0426
0002403700;6.1100;3.2370;-0.9960;0.1687;0.5408;-0.1085
0002403711;5.4396;2.8994;-1.9369;0.2411;0.5930;-0.1820
0002403719;4.9201;2.3990;-2.3487;0.3044;0.6354;-0.2639
0002403730;4.1563;2.1524;-2.1668;0.3191;0.6584;-0.3050
0002403738;3.5027;2.2098;-1.7645;0.2613;0.6542;-0.2257
0002403792;3.8595;4.8674;0.9337;-1.2450;0.7003;1.0281
0002403800;5.4947;4.3527;2.0782;-0.7448;0.6788;0.7021
0002403811;7.1036;4.7190;1.9680;0.0152;0.6093;0.1924
0002403819;7.1012;4.9416;0.6632;0.3560;0.5530;-0.0746
0002403827;6.6487;4.7190;-0.3496;0.5361;0.4964;-0.2641
0002403838;5.1691;4.0366;-0.8691;0.5737;0.3930;-0.4752
0002403846;4.3383;3.6703;-0.5818;0.4926;0.3195;-0.5845
0002403857;3.0550;3.1460;-0.4118;0.2685;0.2907;-0.6265
0002403865;2.0901;2.8778;-0.3998;0.1077;0.3123;-0.6049
0002403876;1.6328;2.9425;-0.1173;-0.0232;0.3397;-0.5377
0002403884;1.4940;2.7629;0.0934;-0.0476;0.3481;-0.4616
0002403892;1.7190;2.7054;0.2801;-0.0061;0.3329;-0.4022
0002403903;2.6240;2.5522;0.2227;0.0954;0.3262;-0.3467
0002403911;3.1053;2.4636;0.1532;0.1791;0.3248;-0.3451
0002403922;3.3902;2.2290;-0.3065;0.2554;0.3377;-0.3724
0002403930;3.6057;2.1572;-0.3376;0.2844;0.3367;-0.4199
0002403941;3.5338;1.9297;-0.4932;0.2729;0.3248;-0.4695
0002403949;3.5674;1.9728;-0.4477;0.2210;0.3179;-0.4918
0002403957;3.3710;1.8340;-0.3112;0.1503;0.3094;-0.4844
0002403968;3.3734;1.8316;-0.1125;0.0360;0.3030;-0.4321
0002403976;3.3854;1.9656;-0.1269;-0.0249;0.3056;-0.3772
0002403987;3.3471;2.1715;0.0694;-0.0702;0.3232;-0.2934
0002403995;3.6392;2.3463;0.0263;-0.0556;0.3548;-0.2390
0002404049;4.1875;2.3966;-0.4262;0.1458;0.4173;-0.0418
0002404057;4.5945;2.4684;-0.5028;0.1474;0.3993;-0.0286
0002404068;4.6304;2.2482;-0.5650;0.1392;0.3764;-0.0156
0002404076;4.5418;2.3439;-0.5028;0.1167;0.3559;-0.0124
0002404084;4.5969;2.3894;-0.5698;0.0969;0.3355;-0.0191
0002404095;4.6232;2.4995;-0.6680;0.0565;0.3048;-0.0171
0002404103;4.3694;2.4253;-0.6345;0.0358;0.2834;-0.0129
0002404114;4.2689;2.5546;-0.7230;0.0129;0.2577;-0.0065
0002404122;4.4436;2.7964;-0.7326;0.0013;0.2385;-0.0137
0002404133;4.1037;2.7821;-0.6009;-0.0073;0.2232;-0.0172
0002404141;4.1108;2.8132;-0.6177;0.0072;0.2070;-0.0334
0002404152;3.9433;2.7557;-0.4764;0.0404;0.1956;-0.0413
0002404160;4.2138;2.7725;-0.3496;0.0670;0.1843;-0.0454
0002404168;4.3048;2.7294;-0.3663;0.0811;0.1743;-0.0522
0002404179;4.4484;2.7653;-0.5555;0.0835;0.1624;-0.0482
0002404187;4.4556;2.6695;-0.7278;0.0691;0.1440;-0.0502
0002404198;4.3215;2.7749;-0.8547;0.0346;0.1274;-0.0292
0002404206;4.3096;2.6983;-0.7590;0.0205;0.1019;-0.0199
0002404217;4.3910;2.7677;-0.8212;0.0123;0.0746;-0.0197
0002404225;4.3958;2.6983;-0.8787;0.0013;0.0554;-0.0117
0002404233;4.5370;2.6743;-0.8715;-0.0100;0.0240;-0.0097
0002404244;4.8123;2.6001;-0.8092;-0.0254;-0.0120;-0.0063
0002404252;5.0159;2.7821;-0.7374;-0.0338;-0.0384;-0.0005
0002404306;5.3486;2.7270;-0.5100;-0.1330;-0.1416;0.0938
0002404314;5.1787;2.5977;-0.5674;-0.1451;-0.1547;0.0978
0002404325;5.4324;2.8898;-0.6943;-0.1604;-0.1747;0.1059
0002404333;5.4181;2.8395;-0.7949;-0.1394;-0.2026;0.1202
0002404344;5.4229;3.2729;-0.8571;-0.1058;-0.2427;0.1295
0002404352;5.2648;3.1460;-0.9697;-0.0658;-0.2735;0.1388
0002404360;5.2816;3.2513;-0.8954;-0.0358;-0.2903;0.1442
0002404371;4.9368;3.0646;-0.6416;0.0017;-0.3168;0.1435
0002404379;4.7118;3.0502;-0.5076;0.0153;-0.3226;0.1408
0002404390;4.3383;2.8826;-0.3855;0.0156;-0.3079;0.1282
0002404400;3.9792;2.9042;-0.5195;0.0099;-0.2882;0.1049
0002404412;3.6512;3.0191;-0.6464;-0.0242;-0.2627;0.0695
0002404421;3.4285;3.0502;-0.6943;-0.0480;-0.2345;0.0385
0002404433;3.4117;3.1843;-0.8739;-0.0691;-0.2038;-0.0032
0002404442;3.1436;2.9736;-0.9050;-0.0790;-0.1885;-0.0334
0002404451;3.2010;3.1556;-0.9768;-0.0797;-0.1673;-0.0528
0002404463;3.4884;3.2082;-0.8882;-0.0750;-0.1344;-0.0829
0002404472;3.4692;3.1627;-1.0104;-0.0606;-0.1170;-0.0993
0002404484;3.8642;3.2322;-1.0367;-0.0269;-0.0893;-0.1088
0002404493;4.0869;3.1556;-0.9864;0.0196;-0.0813;-0.1065
0002404505;4.4963;3.0263;-0.9673;0.0691;-0.0652;-0.0950
0002404514;4.4819;2.6647;-0.9074;0.1058;-0.0597;-0.0763
0002404569;5.2433;2.4876;-0.7901;-0.0597;-0.0669;0.0749
0002404578;5.3127;2.6264;-0.6895;-0.0922;-0.0763;0.0847
0002404592;5.0637;2.6863;-0.5028;-0.1204;-0.0842;0.1007
0002404601;5.1475;2.7270;-0.4501;-0.1211;-0.0937;0.1102
0002404610;5.2577;3.0263;-0.5028;-0.1087;-0.0946;0.1207
0002404622;5.2505;3.0502;-0.4525;-0.0743;-0.1059;0.1228
