time;acc_x;acc_y;acc_z;gyro_x;gyro_y;gyro_z
0000384612;6.4691;2.2482;3.8259;0.0087;-0.0982;-0.0133
0000384620;6.4620;2.3008;3.7733;0.0177;-0.1009;-0.0045
0000384627;6.4021;2.1620;3.7421;0.0161;-0.0998;-0.0055
0000384635;6.4643;2.3080;3.7541;0.0189;-0.1063;-0.0057
0000384697;6.5864;2.6001;3.6775;-0.0296;-0.1416;0.0258
0000384705;6.6200;2.5498;3.6703;-0.0390;-0.1589;0.0258
0000384713;6.7924;2.7461;3.7086;-0.0509;-0.1721;0.0324
0000384725;6.4907;2.2529;3.7757;-0.0490;-0.1980;0.0372
0000384733;6.6176;2.2649;3.7996;-0.0493;-0.2136;0.0385
0000384744;6.3638;2.1380;3.8355;-0.0350;-0.2274;0.0512
0000384752;6.4476;2.0877;3.7876;-0.0220;-0.2388;0.0522
0000384764;6.7181;2.3176;3.9049;-0.0125;-0.2390;0.0580
0000384772;6.6463;2.2601;3.9385;-0.0131;-0.2266;0.0564
0000384783;6.8019;2.3128;3.8475;-0.0041;-0.2172;0.0522
0000384791;7.0366;2.4373;3.9241;0.0011;-0.2024;0.0416
0000384799;7.2712;2.3248;3.8786;-0.0077;-0.1743;0.0361
0000384811;7.1587;2.4134;3.7757;-0.0286;-0.1327;0.0175
0000384819;7.1419;2.3176;3.7517;-0.0417;-0.1102;0.0016
0000384830;7.0916;2.4660;3.6583;-0.0545;-0.0890;-0.0040
0000384838;7.1108;2.5091;3.6679;-0.0687;-0.0714;-0.0071
0000384850;6.8307;2.2075;3.7757;-0.0597;-0.0602;-0.0136
0000384858;6.8474;2.3008;3.6583;-0.0417;-0.0618;-0.0177
0000384869;6.8259;2.3128;3.5578;-0.0237;-0.0669;-0.0195
0000384877;6.7612;2.2122;3.5626;-0.0077;-0.0762;-0.0232
0000384885;6.8259;2.3511;3.5051;0.0015;-0.0766;-0.0192
0000384897;6.7109;2.2721;3.5410;0.0149;-0.0885;-0.0334
0000384905;6.6463;2.4014;3.5578;0.0164;-0.0891;-0.0322
0000384968;6.8474;2.4612;3.7110;-0.0453;-0.0590;-0.0565
0000384976;6.6559;2.1883;3.6823;-0.0558;-0.0429;-0.0544
0000384988;7.0198;2.4325;3.7900;-0.0446;-0.0265;-0.0524
0000384996;6.9863;2.3200;3.7852;-0.0361;-0.0177;-0.0596
0000385004;6.9168;2.2218;3.8211;-0.0193;-0.0141;-0.0632
0000385015;7.0294;2.2673;3.8164;-0.0149;0.0024;-0.0516
0000385023;6.9528;2.3008;3.8666;0.0037;0.0023;-0.0456
0000385035;6.8354;2.2098;3.9385;0.0176;-0.0045;-0.0266
0000385043;6.5817;2.2697;3.9337;0.0229;-0.0157;-0.0140
0000385054;6.7181;2.5307;3.8978;0.0369;-0.0309;0.0093
0000385062;6.7588;2.4110;3.8427;0.0412;-0.0370;0.0195
0000385074;6.5745;2.4325;3.7613;0.0466;-0.0645;0.0261
0000385082;6.7038;2.5474;3.7757;0.0457;-0.0727;0.0358
0000385090;6.6607;2.5666;3.7254;0.0296;-0.0695;0.0420
0000385101;6.7900;2.7461;3.6943;0.0152;-0.0761;0.0396
0000385109;6.7828;2.7821;3.6200;-0.0067;-0.0751;0.0418
0000385121;6.8881;2.6049;3.6416;-0.0332;-0.0727;0.0348
0000385129;7.0030;2.5307;3.6512;-0.0524;-0.0687;0.0308
0000385140;6.8690;2.3846;3.7014;-0.0590;-0.0586;0.0308
0000385148;6.7971;2.3200;3.7565;-0.0537;-0.0572;0.0285
0000385156;6.7516;2.1979;3.7469;-0.0501;-0.0540;0.0340
0000385168;6.8570;2.1476;3.6655;-0.0341;-0.0506;0.0338
0000385176;6.8738;2.3008;3.6703;-0.0253;-0.0525;0.0321
0000385239;6.8881;2.3128;3.6703;-0.0498;-0.0545;0.0200
0000385247;6.9240;2.3894;3.6536;-0.0428;-0.0580;0.0096
0000385259;6.7157;2.2649;3.6919;-0.0405;-0.0630;0.0064
0000385267;6.6750;2.3415;3.6488;-0.0272;-0.0706;0.0037
0000385278;6.7828;2.3415;3.7565;-0.0172;-0.0813;-0.0049
0000385286;6.8187;2.3990;3.7206;-0.0155;-0.0851;-0.0015
0000385294;6.9264;2.6025;3.7254;-0.0184;-0.0826;-0.0047
0000385306;6.8115;2.4924;3.6200;-0.0244;-0.0955;-0.0095
0000385314;6.7828;2.5211;3.7565;-0.0292;-0.1010;-0.0175
0000385325;6.8977;2.4469;3.7469;-0.0456;-0.0979;-0.0213
0000385333;6.9360;2.5738;3.7493;-0.0584;-0.0943;-0.0229
0000385345;7.0054;2.3990;3.7397;-0.0678;-0.0837;-0.0278
0000385353;6.9911;2.2266;3.7182;-0.0711;-0.0747;-0.0289
0000385364;7.1251;2.3224;3.6536;-0.0730;-0.0659;-0.0257
0000385372;6.9528;2.1332;3.7158;-0.0609;-0.0622;-0.0200
0000385380;7.2592;2.2553;3.7278;-0.0456;-0.0624;-0.0173
0000385392;7.1898;2.2745;3.6919;-0.0349;-0.0469;-0.0153
0000385400;7.4077;2.3774;3.6559;-0.0290;-0.0362;-0.0068
0000385411;7.1970;2.3320;3.6129;-0.0218;-0.0304;-0.0167
0000385419;7.3191;2.4110;3.6871;-0.0196;-0.0185;-0.0117
0000385431;7.1012;2.2936;3.6703;-0.0187;-0.0116;-0.0173
0000385439;7.2736;2.4349;3.6823;-0.0269;0.0035;-0.0103
0000385502;7.1228;2.5570;3.6943;-0.0280;0.0213;0.0019
0000385510;6.9767;2.3032;3.7924;-0.0222;0.0171;-0.0047
0000385518;7.2257;2.4445;3.7038;-0.0177;0.0264;-0.0032
0000385530;7.1754;2.3966;3.7062;-0.0111;0.0228;-0.0143
0000385538;7.0054;2.4349;3.7685;-0.0152;0.0342;-0.0141
0000385549;6.8426;2.2146;3.7733;-0.0135;0.0366;-0.0129
0000385557;6.9360;2.2984;3.7852;-0.0135;0.0304;-0.0191
0000385569;6.9384;2.3296;3.8403;-0.0107;0.0306;-0.0145
0000385577;6.8785;2.2817;3.8188;0.0001;0.0246;-0.0216
0000385585;6.7038;2.1548;3.8618;0.0052;0.0211;-0.0181
0000385596;6.9599;2.3272;3.8092;0.0129;0.0252;-0.0230
0000385604;6.9623;2.4086;3.7373;0.0173;0.0204;-0.0208
0000385616;6.9815;2.4373;3.8044;0.0103;0.0269;-0.0216
0000385624;7.0030;2.4493;3.8140;0.0001;0.0329;-0.0159
0000385635;7.0294;2.4804;3.7996;-0.0029;0.0265;-0.0203
0000385643;7.0246;2.6384;3.7996;-0.0112;0.0314;-0.0168
0000385651;6.8331;2.4086;3.8547;-0.0208;0.0326;-0.0199
0000385663;6.8833;2.3343;3.8642;-0.0185;0.0232;-0.0179
0000385671;6.9623;2.4421;3.8116;-0.0203;0.0250;-0.0131
0000385682;6.9719;2.3511;3.8355;-0.0147;0.0250;-0.0137
0000385690;6.9743;2.3487;3.7852;-0.0171;0.0284;-0.0073
0000385702;6.9863;2.2769;3.9002;-0.0065;0.0318;-0.0069
0000385710;6.9216;2.2745;3.8283;-0.0005;0.0272;-0.0107
0000385776;6.8905;2.3583;3.8355;0.0012;0.0446;-0.0072
0000385784;6.7684;2.3631;3.7469;0.0017;0.0406;-0.0124
0000385792;6.6990;2.3870;3.8642;-0.0065;0.0444;-0.0032
0000385804;6.6846;2.2793;3.8283;-0.0108;0.0400;-0.0004
0000385812;6.6415;2.2936;3.9025;-0.0069;0.0266;-0.0053
0000385823;6.7995;2.3990;3.8595;-0.0148;0.0344;-0.0013
0000385831;6.7301;2.3798;3.8547;-0.0100;0.0218;-0.0005
0000385843;6.7540;2.3750;3.8140;-0.0151;0.0165;-0.0051
0000385851;6.7493;2.4924;3.8283;-0.0205;0.0192;-0.0008
0000385859;6.7516;2.4636;3.8331;-0.0188;0.0176;-0.0057
0000385870;6.7540;2.4134;3.8331;-0.0261;0.0254;-0.0043
0000385878;6.8426;2.3224;3.8427;-0.0240;0.0109;-0.0040
0000385890;6.8977;2.3774;3.8331;-0.0321;0.0137;-0.0067
0000385898;6.9743;2.3966;3.8523;-0.0318;0.0131;-0.0087
0000385909;6.9576;2.4205;3.7757;-0.0360;0.0140;-0.0112
0000385917;6.8714;2.3774;3.8786;-0.0313;0.0157;-0.0107
0000385929;6.7804;2.1428;3.8475;-0.0305;0.0144;-0.0117
0000385937;6.8402;2.3391;3.8523;-0.0284;0.0180;-0.0049
0000385945;6.9097;2.3296;3.8930;-0.0222;0.0199;-0.0087
0000385956;6.8163;2.3056;3.8618;-0.0173;0.0262;-0.0036
0000385964;6.9863;2.4397;3.8331;-0.0107;0.0280;-0.0051
0000385976;6.8714;2.2482;3.8762;-0.0121;0.0313;-0.0024
0000385984;6.9097;2.3894;3.8906;-0.0087;0.0253;-0.0079
0000386052;6.7588;2.3224;3.8666;-0.0155;0.0056;0.0025
0000386060;6.5362;2.3176;3.8762;-0.0195;0.0056;0.0032
0000386068;6.6846;2.3655;3.8571;-0.0165;-0.0029;0.0015
0000386079;6.8402;2.4493;3.8044;-0.0185;-0.0077;-0.0028
0000386087;6.7636;2.2673;3.8930;-0.0244;-0.0016;0.0037
0000386099;6.8474;2.4636;3.8475;-0.0281;0.0003;-0.0008
0000386107;6.8402;2.3080;3.9073;-0.0270;0.0012;-0.0027
0000386118;6.7445;2.3272;3.9097;-0.0294;0.0009;-0.0043
0000386126;6.6295;2.2051;3.8355;-0.0288;-0.0005;-0.0045
0000386138;6.7540;2.1979;3.9169;-0.0157;-0.0052;-0.0127
0000386146;6.8761;2.2913;3.8810;-0.0188;0.0051;-0.0044
0000386154;6.9408;2.3200;3.9648;-0.0148;-0.0040;-0.0103
0000386165;6.9121;2.4756;3.8355;-0.0193;-0.0016;-0.0031
0000386173;6.6607;2.2913;3.8379;-0.0136;-0.0073;-0.0113
0000386185;6.7708;2.3966;3.8235;-0.0164;-0.0048;-0.0084
0000386193;6.8043;2.4421;3.8403;-0.0199;-0.0087;-0.0072
0000386204;6.8091;2.3774;3.9241;-0.0195;-0.0072;-0.0033
0000386212;6.7062;2.2936;3.9289;-0.0131;-0.0129;-0.0141
0000386224;6.7181;2.3583;3.8475;-0.0141;-0.0161;-0.0165
0000386232;6.6200;2.4780;3.8020;-0.0147;-0.0077;-0.0111
0000386240;6.7325;2.3320;3.9289;-0.0117;-0.0173;-0.0181
0000386307;6.7564;2.3727;3.8810;-0.0132;-0.0133;-0.0141
0000386315;6.7780;2.3750;3.8403;-0.0136;-0.0160;-0.0163
0000386327;6.7612;2.4588;3.8499;-0.0149;-0.0139;-0.0136
0000386335;6.8307;2.3391;3.8523;-0.0137;-0.0180;-0.0108
0000386346;6.7469;2.3822;3.8116;-0.0177;-0.0105;-0.0052
0000386354;6.7181;2.4277;3.7685;-0.0168;-0.0189;-0.0120
0000386366;6.7062;2.2936;3.7278;-0.0197;-0.0159;-0.0111
0000386374;6.7205;2.3655;3.9409;-0.0264;-0.0127;-0.0039
0000386382;6.7900;2.4014;3.9025;-0.0288;-0.0112;-0.0076
0000386393;6.8642;2.3607;3.8235;-0.0325;-0.0053;-0.0037
0000386401;6.8857;2.4277;3.8954;-0.0285;-0.0044;-0.0147
0000386413;6.9599;2.3559;3.8523;-0.0232;0.0005;-0.0105
0000386421;6.9097;2.2913;3.8810;-0.0200;0.0039;-0.0072
0000386432;6.8354;2.3990;3.8235;-0.0187;0.0008;-0.0139
0000386440;6.7253;2.1859;3.7493;-0.0249;0.0089;-0.0044
0000386448;6.8953;2.3798;3.9193;-0.0282;0.0145;-0.0019
0000386460;6.8331;2.3774;3.9097;-0.0165;0.0052;-0.0096
0000386468;6.9073;2.4229;3.8930;-0.0180;0.0079;-0.0061
0000386479;6.7636;2.3320;3.8499;-0.0056;0.0068;-0.0121
0000386487;6.8642;2.5019;3.8403;-0.0108;0.0101;-0.0064
0000386499;6.5673;2.3583;3.8188;-0.0173;0.0049;-0.0107
0000386507;6.6774;2.5259;3.8211;-0.0281;0.0061;-0.0085
0000386574;6.8354;2.3463;3.8068;-0.0021;-0.0040;-0.0173
0000386582;6.7995;2.3918;3.7804;-0.0013;-0.0051;-0.0245
0000386590;6.8043;2.2865;3.7445;-0.0039;-0.0020;-0.0215
0000386602;6.7373;2.2482;3.8475;-0.0021;-0.0060;-0.0197
0000386610;6.6966;2.2721;3.8188;-0.0015;-0.0021;-0.0155
0000386621;6.6750;2.3080;3.8834;-0.0024;-0.0016;-0.0149
0000386629;6.6607;2.2553;3.8307;-0.0007;-0.0025;-0.0165
0000386641;6.7828;2.4588;3.8547;-0.0040;-0.0025;-0.0125
0000386649;6.7732;2.4110;3.9002;-0.0073;-0.0028;-0.0161
0000386660;6.5457;2.3272;3.8738;-0.0155;-0.0063;-0.0148
0000386668;6.9384;2.4924;3.8595;-0.0173;-0.0099;-0.0171
0000386676;6.8091;2.4541;3.9504;-0.0129;-0.0136;-0.0163
0000386688;6.8307;2.4660;3.9121;-0.0107;-0.0104;-0.0213
0000386696;6.6846;2.3511;3.8451;-0.0095;-0.0164;-0.0171
0000386707;6.6990;2.1931;3.8930;-0.0091;-0.0124;-0.0228
0000386715;6.4835;2.2482;3.9528;-0.0127;-0.0125;-0.0212
0000386727;6.7947;2.4517;3.8283;-0.0083;-0.0196;-0.0269
0000386735;6.7684;2.3607;3.8331;-0.0127;-0.0157;-0.0185
0000386746;6.7133;2.5115;3.8116;-0.0156;-0.0217;-0.0189
0000386754;6.6846;2.4421;3.8451;-0.0203;-0.0189;-0.0211
0000386762;6.7373;2.3990;3.8331;-0.0252;-0.0187;-0.0183
0000386774;6.6726;2.3224;3.9361;-0.0262;-0.0201;-0.0208
0000386782;6.7756;2.4493;3.8690;-0.0353;-0.0191;-0.0163
0000386849;6.8259;2.2194;3.9409;-0.0107;-0.0256;-0.0240
0000386857;6.8809;2.3990;3.9121;-0.0164;-0.0196;-0.0168
0000386869;6.7636;2.2697;3.8810;-0.0156;-0.0248;-0.0205
0000386877;6.6679;2.3774;3.9648;-0.0213;-0.0179;-0.0113
0000386888;6.5553;2.1572;3.8906;-0.0168;-0.0282;-0.0189
0000386896;6.5912;2.3631;3.9816;-0.0215;-0.0233;-0.0104
0000386904;6.5362;2.3128;3.9959;-0.0248;-0.0260;-0.0124
0000386916;6.8019;2.4134;3.8523;-0.0252;-0.0176;-0.0136
0000386924;6.6152;2.1739;3.9409;-0.0208;-0.0156;-0.0092
0000386935;6.8618;2.3894;3.8762;-0.0205;-0.0157;-0.0133
0000386943;6.8977;2.4325;3.9241;-0.0213;-0.0089;-0.0084
0000386955;6.6942;2.3152;3.9648;-0.0233;-0.0041;-0.0085
0000386963;6.5673;2.2625;3.9073;-0.0265;-0.0012;-0.0025
0000386974;6.7516;2.3128;3.9983;-0.0228;-0.0032;-0.0103
0000386982;6.7493;2.4205;3.8307;-0.0281;0.0065;-0.0035
0000386990;6.7636;2.3894;3.8571;-0.0273;0.0003;-0.0113
0000387002;6.6200;2.2936;3.9025;-0.0308;0.0005;-0.0025
0000387010;6.5673;2.3224;3.9648;-0.0237;-0.0069;-0.0093
0000387021;6.4835;2.2649;3.9480;-0.0308;-0.0075;-0.0056
0000387029;6.7469;2.4157;3.9361;-0.0252;-0.0147;-0.0087
0000387041;6.7133;2.2673;3.8475;-0.0252;-0.0120;-0.0111
0000387049;6.5050;2.3750;3.8259;-0.0205;-0.0161;-0.0132
0000387116;6.8833;2.5067;3.8834;-0.0161;-0.0252;-0.0168
0000387124;6.6200;2.2673;3.8451;-0.0156;-0.0313;-0.0205
0000387132;6.7493;2.4565;3.8547;-0.0108;-0.0333;-0.0165
0000387144;6.8426;2.4756;3.9361;-0.0157;-0.0278;-0.0123
0000387152;6.7469;2.4325;3.8666;-0.0192;-0.0269;-0.0133
0000387163;6.6774;2.3343;3.9504;-0.0242;-0.0225;-0.0076
0000387171;6.7229;2.4110;3.9385;-0.0264;-0.0215;-0.0120
0000387183;6.8642;2.4541;3.7900;-0.0258;-0.0171;-0.0137
0000387191;6.7780;2.4517;3.9361;-0.0278;-0.0184;-0.0116
0000387202;6.4667;2.2194;3.9097;-0.0234;-0.0232;-0.0123
0000387210;6.6463;2.2386;3.8211;-0.0208;-0.0233;-0.0112
0000387218;6.5649;2.2194;3.9241;-0.0200;-0.0207;-0.0132
0000387230;6.5146;2.1811;3.9145;-0.0151;-0.0212;-0.0080
0000387238;6.8307;2.3439;3.8930;-0.0067;-0.0240;-0.0135
0000387249;6.6726;2.2482;3.9433;-0.0051;-0.0204;-0.0103
0000387257;6.8833;2.4277;3.8427;-0.0089;-0.0161;-0.0105
0000387269;6.6631;2.3463;3.9361;-0.0069;-0.0160;-0.0109
0000387277;6.7684;2.3487;3.8211;-0.0057;-0.0135;-0.0163
0000387288;6.5625;2.2003;3.9025;-0.0072;-0.0103;-0.0144
0000387296;6.6846;2.2745;3.9097;-0.0099;-0.0116;-0.0173
0000387304;6.4787;2.3631;3.8882;-0.0021;-0.0228;-0.0208
0000387316;6.7636;2.3846;3.9049;-0.0060;-0.0237;-0.0184
0000387324;6.7205;2.3607;3.9313;-0.0035;-0.0298;-0.0165
0000387391;6.7253;2.3248;3.8762;0.0060;-0.0191;-0.0236
0000387399;6.5481;2.2553;3.9887;0.0011;-0.0201;-0.0171
0000387411;6.6511;2.3176;4.0390;-0.0020;-0.0269;-0.0240
0000387419;6.5338;2.2936;3.9935;0.0007;-0.0388;-0.0277
0000387431;6.7852;2.4421;3.9552;-0.0015;-0.0361;-0.0265
0000387439;6.8091;2.5187;3.9289;-0.0011;-0.0393;-0.0218
0000387447;6.4691;2.2721;4.0366;-0.0020;-0.0400;-0.0238
0000387458;6.7133;2.4493;3.9887;-0.0029;-0.0394;-0.0238
0000387466;6.6726;2.2697;4.0462;-0.0055;-0.0420;-0.0222
0000387478;6.5817;2.3032;3.8595;-0.0100;-0.0397;-0.0225
0000387486;6.7325;2.3894;4.0127;-0.0140;-0.0368;-0.0257
0000387497;6.6631;2.3128;3.9145;-0.0133;-0.0377;-0.0240
0000387505;6.4165;2.2553;4.0630;-0.0176;-0.0293;-0.0258
0000387517;6.6463;2.2697;3.9863;-0.0111;-0.0378;-0.0345
0000387525;6.6272;2.2003;4.0462;-0.0048;-0.0342;-0.0284
0000387533;6.5673;2.1237;4.1228;-0.0024;-0.0336;-0.0289
0000387544;6.5003;2.2218;4.0965;0.0145;-0.0373;-0.0361
0000387552;6.3877;2.1835;4.0606;0.0141;-0.0317;-0.0274
0000387564;6.7181;2.3104;4.1084;0.0393;-0.0358;-0.0389
0000387572;6.6248;2.2865;4.1539;0.0486;-0.0406;-0.0409
0000387584;6.4308;2.2745;4.0749;0.0476;-0.0545;-0.0413
0000387592;6.3039;2.1668;4.2162;0.0460;-0.0654;-0.0380
0000387660;6.7516;2.2482;4.0414;0.1086;-0.1103;-0.0264
0000387668;6.8738;2.3631;4.0223;0.1188;-0.1123;-0.0318
0000387676;7.0677;2.5402;4.0390;0.1179;-0.1009;-0.0289
0000387687;6.7277;2.3320;3.9816;0.1182;-0.0958;-0.0301
0000387695;6.8785;2.5019;3.9744;0.1182;-0.0925;-0.0350
0000387707;6.6726;2.5019;3.8523;0.1150;-0.0903;-0.0356
0000387715;6.4955;2.4277;3.8690;0.1198;-0.0957;-0.0374
0000387726;6.5362;2.4924;3.9576;0.1096;-0.1059;-0.0337
0000387734;6.4069;2.5115;3.8547;0.1050;-0.1112;-0.0349
0000387742;6.4069;2.4110;3.8810;0.1023;-0.1166;-0.0386
0000387754;6.3614;2.2649;3.8331;0.1034;-0.1294;-0.0404
0000387762;6.5242;2.4349;3.8882;0.1091;-0.1410;-0.0500
0000387773;6.5505;2.3080;3.8068;0.1108;-0.1524;-0.0568
0000387781;6.4979;2.3152;3.7972;0.1118;-0.1613;-0.0616
0000387793;6.6918;2.5426;3.7469;0.1061;-0.1627;-0.0641
0000387801;6.6655;2.4277;3.7541;0.0871;-0.1571;-0.0624
0000387812;6.4620;2.1620;3.8116;0.0842;-0.1641;-0.0598
0000387820;6.6726;2.4684;3.7709;0.0739;-0.1601;-0.0618
0000387828;6.5841;2.3990;3.7302;0.0782;-0.1696;-0.0678
0000387840;6.6822;2.5115;3.9552;0.0791;-0.1771;-0.0636
0000387848;6.5481;2.4086;4.0079;0.0935;-0.1908;-0.0617
0000387860;6.5984;2.4325;3.9313;0.0897;-0.1974;-0.0584
0000387868;6.5960;2.6025;3.9959;0.0793;-0.1905;-0.0562
0000387936;6.6056;2.3439;3.5721;-0.0938;-0.0878;-0.1091
0000387944;6.4883;2.2769;3.5075;-0.0991;-0.0675;-0.1180
0000387952;6.6439;2.2314;3.4764;-0.0961;-0.0413;-0.1223
0000387963;6.6870;2.4517;3.4309;-0.0953;0.0060;-0.1226
0000387971;6.6343;2.4229;3.4668;-0.0930;0.0305;-0.1180
0000387983;6.7995;2.4900;3.3495;-0.0895;0.0662;-0.1192
0000387991;6.4572;2.3128;3.3160;-0.0913;0.0735;-0.1214
0000388002;6.2441;2.4086;3.4405;-0.1009;0.0815;-0.1066
0000388010;5.9975;2.3750;3.5243;-0.0995;0.0698;-0.1103
0000388022;5.6240;2.2984;3.6775;-0.0829;0.0421;-0.0901
0000388030;5.4253;2.3463;3.7637;-0.0763;0.0240;-0.0755
0000388038;5.4181;2.3870;3.7445;-0.0633;-0.0153;-0.0723
0000388049;5.2241;2.2889;3.8523;-0.0600;-0.0497;-0.0537
0000388057;5.4420;2.5187;3.7445;-0.0613;-0.0894;-0.0530
0000388069;5.8371;2.4828;3.6512;-0.0718;-0.1288;-0.0572
0000388077;5.9759;2.3679;3.7828;-0.0697;-0.1603;-0.0694
0000388088;6.1387;2.2338;3.7421;-0.0743;-0.1772;-0.0754
0000388096;6.2680;2.1404;3.7900;-0.0634;-0.1981;-0.0878
0000388108;6.3734;2.2003;3.7828;-0.0628;-0.2126;-0.1075
0000388116;6.3734;2.2027;3.7972;-0.0593;-0.2300;-0.1206
0000388124;6.3111;2.2146;3.7541;-0.0548;-0.2385;-0.1354
0000388136;6.3949;2.3966;3.8188;-0.0678;-0.2573;-0.1506
0000388144;6.4069;2.6480;3.7517;-0.0790;-0.2618;-0.1491
0000388208;6.7229;2.3559;3.6416;-0.0879;-0.2599;-0.1715
0000388216;6.7804;2.2505;3.7014;-0.0801;-0.2530;-0.1681
0000388227;6.7277;2.3535;3.6823;-0.0782;-0.2349;-0.1629
0000388235;6.6607;2.3559;3.7038;-0.0727;-0.2354;-0.1643
0000388247;6.6583;2.3679;3.7110;-0.0633;-0.2392;-0.1588
0000388255;6.4428;2.2529;3.7948;-0.0608;-0.2403;-0.1503
0000388263;6.5697;2.2386;3.7924;-0.0570;-0.2445;-0.1498
0000388274;6.5194;2.3583;3.8427;-0.0453;-0.2639;-0.1619
0000388282;6.5864;2.4014;3.8427;-0.0353;-0.2832;-0.1725
0000388294;6.4548;2.4373;3.7781;-0.0341;-0.2931;-0.1721
0000388302;6.4596;2.4684;3.6871;-0.0345;-0.3000;-0.1664
0000388313;6.7804;2.7007;3.6895;-0.0424;-0.3138;-0.1613
0000388321;6.7708;2.5307;3.7206;-0.0506;-0.3202;-0.1692
0000388333;6.9336;2.4804;3.7038;-0.0733;-0.3300;-0.1764
0000388341;7.1323;2.5402;3.7804;-0.0853;-0.3372;-0.1899
0000388349;7.1706;2.5522;3.7589;-0.1010;-0.3299;-0.1945
0000388360;7.1323;2.5666;3.7254;-0.1224;-0.3134;-0.2009
0000388368;6.8402;2.3631;3.6344;-0.1362;-0.2920;-0.2046
0000388380;7.0485;2.4229;3.5793;-0.1552;-0.2557;-0.2112
0000388388;7.2065;2.4517;3.5291;-0.1729;-0.2237;-0.2033
0000388400;7.3310;2.6719;3.4596;-0.1824;-0.1863;-0.1937
0000388408;7.1467;2.6025;3.5291;-0.1892;-0.1755;-0.1851
0000388472;6.5027;2.1596;3.6990;-0.1416;-0.1224;-0.1085
0000388480;6.4548;1.9249;3.7613;-0.1118;-0.1186;-0.1276
0000388488;6.5721;1.9154;3.8068;-0.0789;-0.1207;-0.1438
0000388499;6.4643;1.8699;3.9337;-0.0560;-0.1187;-0.1627
0000388507;6.5888;2.2027;3.9169;-0.0513;-0.1170;-0.1688
0000388519;6.5218;2.1691;4.1492;-0.0659;-0.1154;-0.1761
0000388527;6.5266;2.3750;4.1970;-0.0917;-0.1073;-0.1757
0000388538;6.5074;2.5163;4.2066;-0.1564;-0.1085;-0.1697
0000388546;6.7229;2.6288;4.1611;-0.2106;-0.1082;-0.1564
0000388558;6.6702;2.3750;4.3383;-0.2778;-0.1115;-0.1504
0000388566;6.8283;2.3008;4.2617;-0.3122;-0.1030;-0.1419
0000388574;6.7947;2.0279;4.4460;-0.3283;-0.1018;-0.1488
0000388585;6.9456;1.5467;4.5107;-0.3240;-0.1011;-0.1708
0000388593;6.8618;1.5682;4.5729;-0.3079;-0.0945;-0.1812
0000388605;6.5577;1.3599;4.4532;-0.2887;-0.0886;-0.1785
0000388613;6.4787;1.2258;4.4077;-0.2735;-0.0857;-0.1588
0000388624;6.5505;1.3623;4.4197;-0.2450;-0.1030;-0.1344
0000388632;6.5218;1.4461;4.4724;-0.2401;-0.1010;-0.1019
0000388644;6.6032;1.3455;4.5394;-0.2277;-0.1156;-0.0675
0000388652;6.8235;1.5897;4.5418;-0.2244;-0.1356;-0.0566
0000388660;6.7253;1.4940;4.5945;-0.2284;-0.1358;-0.0406
0000388672;6.9504;1.7119;4.3694;-0.2328;-0.1514;-0.0445
0000388680;6.7564;1.5347;4.2784;-0.2519;-0.1587;-0.0457
0000388744;6.9145;0.9936;4.1252;-0.2783;-0.1753;-0.0802
0000388752;6.7924;1.0199;4.1444;-0.2687;-0.1789;-0.0722
0000388764;6.8067;1.2091;4.2808;-0.2721;-0.1827;-0.0378
0000388772;6.9025;1.1708;4.5035;-0.2777;-0.1899;-0.0254
0000388783;7.1347;1.4485;4.5729;-0.2787;-0.1968;-0.0099
0000388791;6.9599;1.4796;4.5155;-0.2851;-0.1980;-0.0104
0000388799;6.9240;1.6113;4.2210;-0.2872;-0.1904;-0.0109
0000388811;6.4476;1.6328;4.0247;-0.2902;-0.1571;-0.0009
0000388819;6.2848;1.4581;3.7733;-0.2741;-0.1308;-0.0024
0000388830;6.2944;1.3958;3.6344;-0.2519;-0.0830;0.0199
0000388838;6.3782;1.3862;3.6895;-0.2226;-0.0508;0.0349
0000388850;6.6152;1.2522;4.0390;-0.1739;-0.0165;0.0546
0000388858;6.8354;1.3264;4.2665;-0.1520;0.0039;0.0833
0000388869;6.9935;1.3767;4.3886;-0.1227;0.0068;0.1039
0000388877;6.9983;1.5347;4.4269;-0.1107;0.0124;0.1065
0000388885;6.9480;1.6089;4.5490;-0.1001;0.0222;0.0878
0000388897;6.6056;1.6352;4.5107;-0.1174;0.0505;0.0300
0000388905;6.3566;1.7765;4.4269;-0.1426;0.0614;-0.0077
0000388916;5.8730;1.7909;4.2689;-0.1869;0.0739;-0.0444
0000388924;5.7341;1.7430;4.4365;-0.2016;0.0671;-0.0474
0000388936;5.4037;1.6137;4.5155;-0.2114;0.0377;-0.0213
0000388944;5.2792;1.3886;4.3215;-0.2146;0.0057;0.0091
0000388952;5.4708;1.3838;4.2066;-0.1990;-0.0410;0.0232
0000389015;6.6343;1.9273;4.8363;-0.1006;0.0288;-0.0376
0000389023;6.6295;1.9585;4.7597;-0.1062;0.0262;-0.0308
0000389035;6.6463;1.8914;4.5466;-0.1096;0.0068;-0.0204
0000389043;6.6511;1.9321;4.6448;-0.0993;-0.0164;-0.0328
0000389055;6.0071;1.9824;4.7716;-0.0950;-0.0313;-0.0669
0000389063;5.6695;2.0614;4.9512;-0.1057;-0.0272;-0.0846
0000389075;5.4396;2.2458;5.0996;-0.1208;-0.0289;-0.1096
0000389083;5.4827;2.2122;5.1068;-0.1282;-0.0301;-0.1126
0000389091;5.7030;2.3607;5.0733;-0.1302;-0.0376;-0.1142
0000389102;5.8490;2.1955;4.9656;-0.1322;-0.0568;-0.1134
0000389110;5.9520;2.1548;4.9416;-0.1294;-0.0674;-0.1151
0000389122;6.3638;1.8651;4.6974;-0.1191;-0.0775;-0.1094
0000389130;6.3925;1.7693;4.7764;-0.1013;-0.0689;-0.1099
0000389141;6.3446;1.5706;4.8052;-0.0695;-0.0461;-0.1170
0000389149;6.4021;1.3958;4.6687;-0.0598;-0.0266;-0.1214
0000389161;6.4907;1.3384;4.6471;-0.0538;-0.0180;-0.1262
0000389169;6.4739;1.3934;4.6687;-0.0534;-0.0137;-0.1203
0000389177;6.4045;1.3408;4.7118;-0.0642;-0.0207;-0.1320
0000389188;6.3063;1.7262;4.6352;-0.0893;-0.0401;-0.1358
0000389196;5.9400;1.7262;4.6448;-0.1191;-0.0662;-0.1370
0000389208;5.9831;2.0111;4.8028;-0.1585;-0.1069;-0.1415
0000389216;5.4803;1.8459;4.6543;-0.1851;-0.1316;-0.1351
0000389279;6.3925;1.6472;5.1834;-0.1841;-0.2349;-0.0180
0000389287;6.8522;1.5921;5.1451;-0.1986;-0.2044;-0.0172
0000389299;7.0294;1.5467;5.5378;-0.2036;-0.1535;-0.0428
0000389307;6.9743;1.5419;5.7700;-0.1708;-0.1208;-0.0580
0000389315;6.8115;1.5107;5.7030;-0.1494;-0.0825;-0.0592
0000389326;6.8785;1.8220;5.8586;-0.1208;-0.0542;-0.0604
0000389334;6.9001;1.9130;5.6599;-0.1043;-0.0532;-0.0493
0000389346;6.8618;2.0327;5.6336;-0.0951;-0.0484;-0.0362
0000389354;6.6894;2.0901;5.4516;-0.1014;-0.0368;-0.0309
0000389365;6.4524;1.8914;5.3582;-0.1360;-0.0157;-0.0069
0000389373;6.4787;1.7238;5.3199;-0.1648;-0.0068;0.0065
0000389385;6.3422;1.4365;5.4396;-0.1828;-0.0061;0.0430
0000389393;6.3734;1.3024;5.2912;-0.1728;0.0019;0.0648
0000389401;6.4404;1.4078;5.3606;-0.1374;0.0254;0.1022
0000389412;6.3087;1.2139;5.0829;-0.1103;0.0425;0.1471
0000389420;6.4596;1.2953;4.8746;-0.1100;0.0642;0.1849
0000389432;6.8115;1.0894;4.6112;-0.1631;0.1106;0.1947
0000389440;6.6200;1.2977;5.0302;-0.1418;0.1504;0.1989
0000389451;6.4739;1.0175;4.8530;-0.1276;0.2056;0.1771
0000389459;6.2417;0.9074;4.7932;-0.1498;0.2378;0.1339
0000389467;5.6168;0.6201;4.8674;-0.1964;0.2534;0.1134
0000389479;5.2936;0.5219;5.1858;-0.1729;0.2166;0.1026
0000389487;5.2337;0.7925;5.1787;-0.1323;0.1903;0.0902
0000389550;5.9233;0.6081;4.7262;-0.1043;-0.0089;0.0803
0000389558;6.0334;0.3926;5.1068;-0.0839;-0.0011;0.1035
0000389570;6.2393;-0.0072;4.9680;-0.0585;0.0309;0.1466
0000389578;6.5098;-0.1245;4.9943;-0.0043;0.0569;0.1736
0000389586;6.4380;0.1604;5.1739;0.0743;0.0626;0.1820
0000389597;6.4308;0.0431;4.9464;0.1200;0.0546;0.1747
0000389605;6.5864;0.4094;4.9033;0.1665;0.0422;0.1262
0000389617;6.4069;0.5962;5.0470;0.2001;0.0372;0.0384
0000389626;6.1842;0.7901;5.0111;0.1632;0.0540;-0.0129
0000389638;6.1244;1.2115;5.1978;0.1503;0.0847;-0.0350
0000389647;6.0406;1.2043;5.0685;0.1447;0.0981;-0.0065
0000389656;6.0382;1.0989;5.0853;0.1258;0.0963;0.0420
0000389669;6.5553;1.3599;5.2289;0.1391;0.1053;0.0913
0000389678;6.5170;1.1420;5.0494;0.1492;0.1103;0.1027
0000389691;6.7205;1.2378;5.3726;0.1476;0.1330;0.1071
0000389700;6.6918;1.2330;4.9895;0.1600;0.1495;0.1058
0000389713;6.7301;1.3503;4.7357;0.1346;0.1847;0.1299
0000389722;6.5745;1.0439;4.5753;0.0362;0.2134;0.1494
0000389731;6.6990;0.8164;4.9584;0.0185;0.2519;0.1705
0000389743;6.9049;0.6632;5.2265;0.0616;0.2810;0.2364
0000389752;7.1946;0.6081;5.0302;0.1047;0.3116;0.2964
0000389765;7.5034;0.6632;5.2960;0.1932;0.3244;0.3412
0000389774;7.2880;0.7949;5.0470;0.2899;0.3099;0.3344
0000389838;4.5298;1.8220;5.3247;0.0751;-0.0385;0.1190
0000389847;4.9153;1.5155;5.2241;0.1087;-0.0797;0.1071
0000389856;5.6168;1.4629;5.4516;0.1572;-0.1014;0.0815
0000389869;6.2680;1.5299;5.1356;0.2157;-0.0830;0.0121
0000389878;6.5601;1.9058;4.8770;0.2236;-0.0542;-0.0485
0000389891;6.6583;2.2170;4.7477;0.2392;-0.0056;-0.1238
0000389900;6.5481;1.9920;4.6855;0.2264;0.0224;-0.1609
0000389913;6.1028;1.8387;4.5442;0.2237;0.0264;-0.2029
0000389922;5.6743;1.9034;4.6735;0.2641;-0.0064;-0.2078
0000389931;5.6144;1.5754;4.6184;0.2862;-0.0494;-0.1961
0000389943;5.7078;1.4102;4.3191;0.3520;-0.1143;-0.1635
0000389952;5.7174;1.2019;4.0582;0.3728;-0.1619;-0.1407
0000389965;6.0932;0.8859;4.5633;0.4081;-0.1978;-0.0987
0000389974;6.3231;1.1181;4.6136;0.4846;-0.2021;-0.0636
0000389986;6.7325;1.1971;4.0510;0.5456;-0.2270;0.0005
0000389995;6.8738;1.3862;3.9672;0.5650;-0.2193;0.0139
0000390004;6.9025;1.6352;3.7278;0.5656;-0.1931;0.0257
0000390017;6.7181;1.7957;3.8475;0.5648;-0.1961;0.0417
0000390026;6.6176;1.7645;3.8762;0.5664;-0.2034;0.0530
0000390038;6.5218;1.7861;4.1563;0.5848;-0.1916;0.0601
0000390047;6.7684;1.9920;4.2856;0.5809;-0.1787;0.0525
0000390060;6.6152;1.8675;4.3479;0.6174;-0.1539;0.0370
0000390069;6.7828;2.0949;3.9935;0.6648;-0.1315;0.0289
0000390078;6.9073;2.5211;3.7757;0.6764;-0.1219;0.0185
0000390142;5.8227;2.4062;4.1348;0.6917;-0.1484;-0.0710
0000390151;6.1363;2.4277;3.9385;0.7370;-0.1596;-0.0790
0000390164;6.4476;2.4253;3.9049;0.7847;-0.1420;-0.0873
0000390173;6.8426;2.7653;3.9145;0.8242;-0.1247;-0.0929
0000390189;6.6583;2.9137;3.5386;0.8255;-0.0747;-0.0970
0000390198;6.5266;2.8946;3.4453;0.8022;-0.0580;-0.0813
0000390211;6.3877;2.9425;3.5051;0.7783;-0.0434;-0.1013
0000390220;6.0071;2.9425;3.5889;0.7971;-0.0432;-0.1250
0000390229;5.7557;3.2513;3.5674;0.8143;-0.0496;-0.1503
0000390241;5.3391;3.7230;3.3232;0.8187;-0.0915;-0.1808
0000390250;5.4971;4.0247;2.9377;0.7608;-0.1135;-0.1915
0000390263;5.8179;3.7685;2.6025;0.6687;-0.1657;-0.2192
0000390272;6.2153;3.3615;2.4229;0.6182;-0.1720;-0.2300
0000390284;6.6870;3.2106;2.5714;0.6270;-0.1604;-0.2369
0000390293;6.9073;3.0526;2.6073;0.6608;-0.1350;-0.2304
0000390302;6.8402;2.9377;2.4948;0.6979;-0.0919;-0.2180
0000390315;7.0581;2.8587;2.3535;0.7561;-0.0561;-0.2037
0000390324;6.8115;2.8659;2.3152;0.7903;-0.0325;-0.1980
0000390393;5.9975;2.8563;2.1189;0.6560;-0.1152;0.0193
0000390402;6.2345;2.6264;2.0351;0.7254;-0.1078;0.0153
0000390415;6.0094;2.0111;1.7933;0.8171;-0.0795;0.0131
0000390424;6.1220;2.0446;1.7573;0.8745;-0.0981;0.0003
0000390433;6.1339;2.2003;1.4916;0.9317;-0.0982;0.0218
0000390445;6.4500;2.6576;1.2450;0.9726;-0.1057;0.0440
0000390454;6.7828;3.1220;1.1684;0.9489;-0.1062;0.0628
0000390467;6.8115;3.6248;0.7901;0.8693;-0.1082;0.0593
0000390476;6.5888;3.7733;0.8092;0.7949;-0.1047;0.0556
0000390488;6.2848;3.7350;1.1660;0.7357;-0.0927;0.0413
0000390497;5.7413;3.3279;1.7382;0.7654;-0.0847;0.0132
0000390506;5.6336;3.0981;1.7597;0.8426;-0.1167;-0.0075
0000390519;5.7054;3.1747;1.1947;0.9225;-0.1655;-0.0069
0000390528;6.1938;3.3471;0.9577;0.9182;-0.2000;0.0013
0000390540;6.9192;3.6224;0.8595;0.8860;-0.2161;0.0116
0000390549;7.0557;3.6368;0.6847;0.8689;-0.2081;0.0165
0000390562;7.0174;4.1779;0.5267;0.8505;-0.2070;0.0217
0000390571;6.9432;4.2210;0.3184;0.8019;-0.1851;0.0349
0000390583;6.4308;4.1468;0.3974;0.7052;-0.1561;0.0434
0000390592;6.1363;3.9504;0.5818;0.6664;-0.1511;0.0338
0000390601;6.0717;3.7206;0.8212;0.6869;-0.1478;0.0226
0000390614;6.2441;3.9193;0.6704;0.7506;-0.1448;0.0135
0000390623;6.4596;4.0510;0.4477;0.7865;-0.1399;-0.0143
0000390692;5.7533;3.7828;0.1077;0.6017;-0.1031;-0.1015
0000390701;5.8155;3.8020;0.1437;0.6139;-0.1063;-0.0742
0000390714;6.1052;3.8499;0.1101;0.6344;-0.1140;-0.0497
0000390723;6.3782;3.7062;-0.0287;0.6462;-0.1152;-0.0482
0000390732;6.5553;3.9073;-0.2227;0.6595;-0.1182;-0.0562
0000390744;6.7253;4.1851;-0.3232;0.6399;-0.1152;-0.0745
0000390753;6.4141;4.0821;-0.3591;0.6394;-0.1058;-0.0874
0000390766;6.2896;4.3622;-0.4764;0.6171;-0.0821;-0.0965
0000390775;6.3614;4.3503;-0.5004;0.6015;-0.0886;-0.1148
0000390787;6.3686;4.2210;-0.4764;0.5856;-0.0833;-0.1092
0000390796;6.3279;4.1563;-0.7039;0.5861;-0.0858;-0.0974
0000390809;6.4763;4.0606;-0.8475;0.5822;-0.0862;-0.0758
0000390818;6.4093;4.0199;-0.8188;0.5813;-0.0817;-0.0671
0000390827;6.2058;3.8618;-0.7901;0.5733;-0.0733;-0.0481
0000390839;6.5003;3.9576;-0.8404;0.5662;-0.0730;-0.0406
0000390848;6.3949;3.7996;-0.9840;0.5621;-0.0793;-0.0425
0000390861;6.2920;3.6631;-1.1756;0.5360;-0.0785;-0.0592
0000390870;6.0765;3.5314;-1.2881;0.5125;-0.0598;-0.0614
0000390882;6.1651;3.4500;-1.5251;0.5151;-0.0628;-0.0703
0000390891;6.4021;3.3878;-1.6281;0.4996;-0.0723;-0.0566
0000390904;6.3375;2.9185;-1.6975;0.4984;-0.0774;-0.0228
0000390913;6.4667;2.8156;-1.7693;0.4870;-0.0783;-0.0068
0000390922;6.6367;2.7797;-1.6496;0.4854;-0.0791;0.0051
0000390991;5.1834;3.4836;-1.9465;0.7152;-0.1436;-0.0436
0000391000;5.2385;3.6368;-1.9178;0.6923;-0.1771;-0.0492
0000391013;5.5569;3.5434;-1.9273;0.6555;-0.2172;-0.0733
0000391022;5.7221;3.4692;-2.0183;0.6490;-0.2377;-0.1086
0000391034;5.7293;3.3112;-2.0949;0.6468;-0.2482;-0.1407
0000391043;5.5234;3.3375;-2.1308;0.6592;-0.2594;-0.1775
0000391056;5.5354;3.3327;-2.3631;0.6634;-0.2745;-0.1990
0000391065;5.4516;3.2633;-2.4517;0.6515;-0.2834;-0.2032
0000391074;5.4253;3.2370;-2.4852;0.6552;-0.3015;-0.2073
0000391086;5.7317;3.5410;-2.4421;0.6514;-0.3186;-0.2033
0000391095;5.8299;3.4309;-2.5235;0.6538;-0.3254;-0.1836
0000391108;6.1316;3.4285;-2.6528;0.6604;-0.3256;-0.1572
0000391117;6.3997;3.3758;-2.8156;0.6679;-0.3218;-0.1471
0000391129;6.6607;3.4141;-2.9616;0.6460;-0.3064;-0.1380
0000391138;6.6176;3.2729;-3.2705;0.6211;-0.2794;-0.1343
0000391151;6.4763;3.1484;-3.3016;0.5985;-0.2447;-0.1346
0000391160;6.2824;2.9329;-3.3639;0.5804;-0.2308;-0.1210
0000391169;6.3231;3.0071;-3.2992;0.5758;-0.2230;-0.1046
0000391181;6.4476;2.9784;-3.4237;0.5885;-0.2073;-0.0855
0000391190;6.5697;2.9975;-3.5913;0.5935;-0.2038;-0.0698
0000391203;6.6200;3.0287;-3.7709;0.5674;-0.1744;-0.0702
0000391212;6.6224;3.1651;-3.9816;0.5376;-0.1527;-0.0628
0000391281;5.9113;2.9497;-3.7517;0.4839;-0.0914;-0.0549
0000391290;5.7461;2.9185;-3.8618;0.4775;-0.0907;-0.0685
0000391303;5.4779;3.1388;-4.1396;0.4558;-0.0274;-0.0937
0000391312;5.4516;3.1795;-4.3718;0.4331;0.0179;-0.1002
0000391321;5.7509;3.2968;-4.3622;0.3981;0.0533;-0.0823
0000391333;4.9823;5.8107;-5.7317;0.5237;0.1158;-0.0445
0000391342;4.7908;5.8323;-5.3630;0.3941;0.1041;-0.0035
0000391355;5.5234;3.6703;-3.6871;0.3128;0.1263;0.0116
0000391364;6.0549;2.7270;-3.2441;0.3271;0.1415;-0.0049
0000391376;5.6647;2.1428;-3.8068;0.4135;0.1259;-0.0248
0000391385;5.7461;2.2098;-4.5083;0.4289;0.0943;-0.0148
0000391398;5.2648;2.5929;-4.7788;0.3760;0.0586;0.0257
0000391407;5.3678;2.6384;-4.6998;0.3143;0.0958;0.0715
0000391416;5.7197;2.7198;-4.4628;0.3186;0.1206;0.0805
0000391428;6.1531;2.7773;-4.3886;0.3456;0.1348;0.0723
0000391437;6.2920;2.6647;-4.2760;0.3651;0.1327;0.0474
0000391450;6.4428;2.5498;-4.4053;0.3304;0.1352;-0.0312
0000391459;6.1316;2.4852;-4.4891;0.3226;0.1595;-0.0761
0000391471;6.1579;2.3008;-4.5921;0.2678;0.1820;-0.1262
0000391480;5.8682;2.2529;-4.3287;0.2499;0.1800;-0.1288
0000391489;5.9903;2.2793;-4.5107;0.2262;0.1805;-0.1239
0000391502;5.4971;2.3104;-4.6615;0.2725;0.1672;-0.0982
0000391511;5.6000;2.6264;-4.9656;0.3070;0.1764;-0.0753
0000391580;5.7652;2.4876;-4.5777;0.3320;0.1195;-0.1589
0000391589;5.6336;2.1500;-4.4724;0.3170;0.1298;-0.1524
0000391602;6.1746;2.3439;-4.4915;0.3456;0.0989;-0.1675
0000391611;5.7341;2.2793;-5.2098;0.3675;0.0978;-0.1452
0000391620;5.8012;2.3918;-5.5617;0.3533;0.1387;-0.1403
0000391632;5.8969;2.1380;-5.4731;0.3031;0.1693;-0.1490
0000391641;6.0406;2.2601;-5.4899;0.2527;0.1688;-0.1476
0000391654;6.1914;2.4253;-5.3391;0.1949;0.1641;-0.1857
0000391663;5.8107;2.0159;-5.2074;0.1851;0.1402;-0.1935
0000391674;6.0597;2.3224;-4.9943;0.1962;0.1483;-0.2252
0000391683;6.0573;2.5091;-5.1643;0.0894;0.1525;-0.2212
0000391697;5.9472;1.4868;-5.5857;0.0763;0.1884;-0.2653
0000391706;5.7150;2.6480;-5.3965;0.0722;0.1776;-0.2577
0000391715;5.5019;1.7621;-5.2864;0.0520;0.1635;-0.2342
0000391728;5.8083;1.9824;-4.7621;0.1029;0.1308;-0.2562
0000391737;5.4660;1.7262;-5.1858;0.1700;0.1039;-0.2506
0000391749;5.5043;1.7861;-5.2241;0.1873;0.0649;-0.2149
0000391758;5.2601;1.6927;-5.3367;0.2451;0.0358;-0.2006
0000391771;4.8483;1.7645;-5.3917;0.2260;-0.0105;-0.0875
0000391780;5.1260;2.3200;-4.8387;0.2693;-0.0248;-0.0165
0000391789;5.7245;1.9297;-5.1691;0.2783;-0.0072;0.0099
0000391801;5.8586;1.8052;-5.2361;0.2892;0.0052;-0.0242
0000391810;5.6575;2.0758;-5.3247;0.2846;-0.0053;-0.0449
0000391879;5.6503;1.7549;-5.9687;0.0089;-0.0894;-0.0670
0000391888;5.6240;2.0423;-5.5713;-0.0157;-0.1010;-0.0685
0000391900;5.7030;2.1620;-5.4755;-0.0109;-0.0938;-0.0581
0000391909;5.5617;1.9585;-5.5354;-0.0163;-0.0991;-0.0693
0000391922;5.7078;2.0135;-5.3941;-0.0325;-0.1058;-0.0751
0000391931;5.7269;1.9297;-5.3271;-0.0176;-0.1146;-0.0827
0000391943;5.5162;1.8268;-5.5043;-0.0246;-0.1119;-0.0769
0000391952;5.4827;1.8244;-5.4061;-0.0397;-0.1166;-0.0819
0000391961;5.6048;1.8986;-5.4133;-0.0565;-0.1085;-0.0753
0000391974;5.5905;1.9082;-5.2625;-0.0653;-0.1099;-0.0818
0000391983;5.5282;2.0159;-5.4396;-0.0749;-0.1022;-0.0706
0000391995;5.4277;2.1189;-5.2601;-0.0608;-0.1010;-0.0667
0000392004;5.2792;1.9872;-5.4085;-0.0605;-0.0890;-0.0477
0000392017;5.3774;1.8651;-5.5138;-0.0725;-0.0817;-0.0324
0000392026;5.5833;1.9273;-5.2601;-0.0597;-0.0867;-0.0430
0000392038;5.4995;2.0877;-5.4085;-0.0701;-0.0766;-0.0430
0000392047;5.5905;2.0806;-5.3415;-0.0749;-0.0722;-0.0341
0000392060;5.5569;2.0758;-5.2409;-0.0636;-0.0598;-0.0258
0000392069;5.2361;1.8555;-5.4540;-0.0854;-0.0410;-0.0009
0000392078;5.7293;1.6424;-5.2553;-0.1119;-0.0390;-0.0007
0000392090;5.8131;2.1021;-4.8435;-0.1019;-0.0262;-0.0199
0000392099;5.6000;2.0087;-4.7142;-0.0596;-0.0244;-0.0296
0000392168;5.5043;2.1739;-5.2960;0.0605;-0.0075;-0.0370
0000392177;5.6144;2.0039;-5.4277;0.0636;-0.0016;-0.0274
0000392189;5.6623;2.1165;-5.1978;0.0574;-0.0092;-0.0393
0000392198;5.5402;2.0853;-5.0254;0.0929;0.0093;-0.0433
0000392211;5.1595;2.0877;-5.8347;0.1212;0.0390;-0.0458
0000392220;5.1834;1.5179;-6.1746;0.0494;0.0468;-0.0286
0000392229;5.2792;1.7597;-6.1124;-0.0238;0.0258;0.0004
0000392241;5.2433;2.0303;-6.5386;-0.1252;-0.0043;0.0220
0000392250;5.5450;2.0279;-6.0621;-0.2136;-0.0015;0.0409
0000392263;5.4851;1.9872;-5.1834;-0.2160;0.0004;0.0421
0000392272;5.3678;2.0351;-5.2170;-0.1824;0.0073;0.0474
0000392284;5.4564;2.4924;-6.4045;-0.2595;0.0125;0.0646
0000392293;5.9233;2.8108;-6.7971;-0.4967;0.0320;0.0785
0000392302;6.1339;2.8036;-5.8466;-0.6708;0.0296;0.0890
0000392315;5.4708;2.1476;-4.9847;-0.5951;-0.0358;0.0592
0000392324;5.2553;2.0039;-4.9608;-0.4763;-0.0709;0.0328
0000392336;5.1787;2.2338;-5.0589;-0.4561;-0.0985;0.0409
0000392345;5.5019;2.4181;-5.1595;-0.5236;-0.1343;0.0542
0000392358;5.6024;2.4995;-4.9512;-0.6318;-0.1713;0.0512
0000392367;5.7533;2.5019;-4.9584;-0.7141;-0.2132;0.0329
0000392379;5.6838;2.2218;-4.5945;-0.7779;-0.2337;0.0268
0000392388;5.5091;1.9537;-4.3167;-0.8196;-0.2386;0.0282
0000392397;5.4995;1.8818;-4.3694;-0.8030;-0.2110;0.0200
0000392466;6.0932;2.0662;-4.5179;-0.1761;-0.0015;0.1191
0000392475;5.9664;2.1356;-4.4341;-0.1456;0.0328;0.1328
0000392487;5.6455;2.4253;-4.0270;-0.0793;0.0718;0.1454
0000392496;5.6264;2.7773;-3.7038;-0.0196;0.0839;0.1443
0000392509;5.4612;2.7773;-3.9313;0.0678;0.0893;0.1366
0000392518;5.8778;2.9185;-4.2689;0.0965;0.0604;0.1057
0000392530;5.9376;2.8060;-5.0685;0.0683;0.0240;0.0628
0000392539;6.0382;2.3798;-4.9057;0.0209;0.0144;0.0445
0000392548;5.9424;2.3080;-4.3479;-0.0248;0.0019;0.0274
0000392561;5.9831;2.1668;-4.2018;0.0225;0.0230;0.0400
0000392570;6.1651;2.2122;-4.2952;0.0738;0.0510;0.0604
0000392582;5.6838;2.4349;-4.4796;0.0894;0.0601;0.0582
0000392591;5.8897;2.7845;-4.5873;0.0925;0.0484;0.0533
0000392604;5.7940;2.4565;-4.6663;0.0974;0.0209;0.0606
0000392613;5.9640;2.6552;-4.8147;0.0802;-0.0052;0.0525
0000392622;5.8802;2.7557;-4.8411;0.0472;-0.0338;0.0293
0000392634;5.7604;2.4325;-4.6807;-0.0035;-0.0767;-0.0152
0000392643;5.9065;2.4229;-4.5897;-0.0128;-0.0955;-0.0211
0000392656;5.8538;2.2410;-4.5274;0.0029;-0.0929;-0.0107
0000392665;6.0023;2.2003;-4.6184;0.0007;-0.0743;-0.0033
0000392677;5.8730;2.2649;-4.4963;-0.0171;-0.0577;-0.0167
0000392686;5.8395;2.3894;-4.5825;-0.0128;-0.0600;-0.0274
0000392755;5.8634;2.4828;-4.4532;-0.0369;-0.0751;-0.0261
0000392764;5.8419;2.4373;-4.5490;-0.0294;-0.0781;-0.0294
0000392773;5.7413;2.3727;-4.5011;-0.0385;-0.0675;-0.0278
0000392785;5.5785;2.2697;-4.3551;-0.0306;-0.0665;-0.0183
0000392794;5.6790;2.4756;-4.3215;-0.0200;-0.0705;-0.0237
0000392807;5.7652;2.4517;-4.3934;-0.0192;-0.0589;-0.0121
0000392816;5.7796;2.3870;-4.5107;-0.0157;-0.0561;-0.0111
0000392828;5.5378;2.3703;-4.3646;-0.0112;-0.0400;0.0028
0000392837;5.6120;2.2960;-4.4556;-0.0049;-0.0397;0.0033
0000392850;5.8466;2.3750;-4.3790;-0.0007;-0.0236;0.0067
0000392859;5.8155;2.4948;-4.4365;0.0036;-0.0224;0.0048
0000392871;5.7365;2.3511;-4.4628;0.0069;-0.0228;0.0033
0000392880;5.6910;2.2529;-4.5394;0.0029;-0.0238;0.0024
0000392889;5.6407;2.2553;-4.3934;0.0044;-0.0236;0.0049
0000392902;5.6767;2.2098;-4.3479;0.0023;-0.0140;0.0107
0000392911;5.9711;2.4565;-4.2904;0.0129;-0.0199;0.0037
0000392923;5.8323;2.4229;-4.4341;0.0123;-0.0149;0.0019
0000392932;5.5617;2.2745;-4.4772;0.0067;-0.0076;-0.0024
0000392945;5.8490;2.4205;-4.4652;0.0000;-0.0069;0.0020
0000392954;5.8012;2.4397;-4.4604;0.0083;-0.0076;0.0003
0000392963;5.8634;2.4517;-4.4819;0.0037;-0.0041;0.0032
0000392975;5.8155;2.3320;-4.4053;0.0036;-0.0013;0.0037
0000392984;5.7150;2.3080;-4.4580;0.0048;-0.0059;-0.0001
0000393049;5.8323;2.4134;-4.5155;-0.0091;-0.0092;0.0133
0000393058;5.8442;2.3080;-4.5801;-0.0095;-0.0108;0.0075
0000393070;5.9161;2.3990;-4.5346;-0.0125;-0.0057;0.0032
0000393079;6.0071;2.4445;-4.4652;-0.0160;0.0000;0.0089
0000393092;5.8323;2.3679;-4.5394;-0.0133;-0.0008;0.0055
0000393101;5.8993;2.5307;-4.5250;-0.0193;0.0007;0.0107
0000393110;5.7748;2.4397;-4.5777;-0.0180;0.0049;0.0020
0000393122;5.8275;2.3822;-4.4843;-0.0226;-0.0004;0.0081
0000393131;5.8466;2.3343;-4.4436;-0.0168;-0.0027;0.0051
0000393145;5.9065;2.3080;-4.4676;-0.0144;-0.0048;-0.0067
0000393154;5.9544;2.5235;-4.5226;-0.0180;-0.0005;-0.0087
0000393167;5.7317;2.2577;-4.3886;-0.0140;-0.0143;-0.0128
0000393176;5.7748;2.3679;-4.5322;-0.0117;-0.0180;-0.0084
0000393188;6.0142;2.4612;-4.4915;-0.0061;-0.0201;-0.0113
0000393197;5.8778;2.3655;-4.4293;-0.0025;-0.0257;-0.0151
0000393206;5.8395;2.3559;-4.5346;-0.0092;-0.0213;-0.0139
0000393219;5.9735;2.4828;-4.5131;-0.0033;-0.0306;-0.0276
0000393228;5.9233;2.3248;-4.5250;-0.0115;-0.0270;-0.0185
0000393240;5.7652;2.3032;-4.4341;-0.0101;-0.0289;-0.0209
0000393249;5.8466;2.3607;-4.4245;-0.0125;-0.0294;-0.0192
0000393314;5.8227;2.3750;-4.5226;-0.0192;-0.0485;-0.0308
0000393323;5.8035;2.5043;-4.5729;-0.0232;-0.0464;-0.0292
0000393335;5.6096;2.2505;-4.5059;-0.0305;-0.0456;-0.0265
0000393344;5.6814;2.2290;-4.4987;-0.0398;-0.0390;-0.0175
0000393357;5.8275;2.4086;-4.5681;-0.0434;-0.0426;-0.0153
0000393366;5.8730;2.3894;-4.5633;-0.0397;-0.0429;-0.0175
0000393375;5.7604;2.4301;-4.4748;-0.0332;-0.0490;-0.0234
0000393386;5.8131;2.4421;-4.4532;-0.0326;-0.0389;-0.0240
0000393395;5.8826;2.4014;-4.5825;-0.0298;-0.0373;-0.0258
0000393408;5.8083;2.3750;-4.5035;-0.0324;-0.0336;-0.0297
0000393417;5.9161;2.4277;-4.4484;-0.0396;-0.0159;-0.0234
0000393429;5.6312;2.2290;-4.5011;-0.0400;-0.0040;-0.0237
0000393438;5.7652;2.3248;-4.3934;-0.0402;-0.0012;-0.0322
0000393451;5.7796;2.3583;-4.4412;-0.0476;0.0135;-0.0221
0000393460;5.9280;2.5762;-4.5801;-0.0450;0.0209;-0.0266
0000393472;5.9424;2.5331;-4.4628;-0.0384;0.0141;-0.0313
0000393481;5.8969;2.4541;-4.4029;-0.0440;0.0192;-0.0245
0000393490;5.9328;2.4421;-4.5825;-0.0360;0.0093;-0.0324
0000393503;5.7940;2.4110;-4.4676;-0.0406;0.0033;-0.0376
0000393512;5.8754;2.3679;-4.4365;-0.0382;-0.0045;-0.0388
0000393524;5.7940;2.2936;-4.3886;-0.0418;-0.0036;-0.0377
0000393533;5.8682;2.4636;-4.4843;-0.0349;-0.0132;-0.0433
0000393597;5.6767;2.3008;-4.4149;-0.0209;-0.0513;-0.0316
0000393606;5.8251;2.4565;-4.4724;-0.0213;-0.0552;-0.0342
0000393618;5.7030;2.3679;-4.4293;-0.0168;-0.0574;-0.0349
0000393627;5.8969;2.4948;-4.4460;-0.0204;-0.0438;-0.0257
0000393636;5.7820;2.4397;-4.5131;-0.0153;-0.0501;-0.0277
0000393649;5.7293;2.4373;-4.4341;-0.0204;-0.0430;-0.0173
0000393658;5.8442;2.4972;-4.4556;-0.0131;-0.0390;-0.0211
0000393670;5.7916;2.4086;-4.4867;-0.0189;-0.0373;-0.0160
0000393679;5.9256;2.5235;-4.3598;-0.0229;-0.0310;-0.0088
0000393692;5.8323;2.4612;-4.5083;-0.0229;-0.0225;-0.0067
0000393701;5.8562;2.4636;-4.5466;-0.0191;-0.0261;-0.0089
0000393713;5.8706;2.5833;-4.5035;-0.0258;-0.0254;0.0000
0000393722;5.7269;2.3846;-4.4604;-0.0205;-0.0268;-0.0052
0000393735;5.8179;2.4253;-4.4388;-0.0265;-0.0218;0.0028
0000393744;5.6838;2.3176;-4.3646;-0.0266;-0.0224;-0.0029
0000393753;5.8873;2.5091;-4.4484;-0.0261;-0.0171;-0.0004
0000393765;5.8658;2.5570;-4.4029;-0.0229;-0.0147;-0.0017
0000393774;5.8538;2.3128;-4.4843;-0.0254;-0.0144;-0.0051
0000393787;5.8107;2.3559;-4.3670;-0.0185;-0.0155;-0.0044
0000393796;6.0238;2.5163;-4.3335;-0.0221;-0.0116;0.0049
0000393808;5.8778;2.4229;-4.4317;-0.0222;-0.0137;0.0037
0000393817;5.9089;2.4565;-4.3981;-0.0281;-0.0128;-0.0004
0000393882;5.6982;2.2913;-4.4293;-0.0273;-0.0200;-0.0189
0000393891;5.6982;2.3415;-4.4245;-0.0253;-0.0132;-0.0107
0000393903;5.8849;2.4253;-4.3598;-0.0281;-0.0144;-0.0163
0000393912;5.9137;2.4373;-4.4077;-0.0333;-0.0087;-0.0184
0000393921;5.8275;2.4565;-4.4341;-0.0286;-0.0059;-0.0187
0000393934;5.8203;2.3822;-4.3862;-0.0298;-0.0027;-0.0147
0000393943;5.8610;2.5091;-4.5059;-0.0408;0.0080;-0.0117
0000393955;5.9735;2.5259;-4.3670;-0.0410;-0.0009;-0.0257
0000393964;5.9352;2.4660;-4.3742;-0.0324;-0.0191;-0.0289
0000393977;5.7197;2.4445;-4.4796;-0.0274;-0.0203;-0.0220
0000393986;5.9592;2.4565;-4.4556;-0.0262;-0.0217;-0.0230
0000393998;5.7700;2.4493;-4.3598;-0.0250;-0.0286;-0.0250
0000394007;5.9041;2.4373;-4.3527;-0.0256;-0.0280;-0.0293
0000394020;5.8730;2.5570;-4.4245;-0.0278;-0.0277;-0.0233
0000394029;5.8562;2.3750;-4.3503;-0.0293;-0.0308;-0.0273
0000394038;5.9113;2.4756;-4.4628;-0.0245;-0.0348;-0.0238
0000394050;6.0525;2.5738;-4.4676;-0.0276;-0.0369;-0.0228
0000394059;5.7700;2.2769;-4.3287;-0.0282;-0.0370;-0.0254
0000394072;5.8778;2.5762;-4.4269;-0.0288;-0.0352;-0.0270
0000394081;5.9328;2.4110;-4.4005;-0.0258;-0.0389;-0.0312
0000394093;5.9400;2.4493;-4.3934;-0.0237;-0.0326;-0.0297
0000394102;5.9448;2.3846;-4.3742;-0.0262;-0.0252;-0.0242
0000394166;5.8562;2.4948;-4.4101;-0.0079;-0.0461;-0.0289
0000394175;5.8802;2.4995;-4.4149;-0.0123;-0.0409;-0.0212
0000394184;5.8466;2.4421;-4.4149;-0.0116;-0.0426;-0.0294
0000394196;6.0645;2.5953;-4.4077;-0.0135;-0.0386;-0.0238
0000394205;5.8778;2.3798;-4.4173;-0.0133;-0.0365;-0.0256
0000394218;5.8466;2.5043;-4.4101;-0.0153;-0.0426;-0.0246
0000394227;5.8658;2.3990;-4.4508;-0.0128;-0.0420;-0.0262
0000394239;5.8682;2.5043;-4.3551;-0.0153;-0.0417;-0.0282
0000394248;5.8035;2.5163;-4.4628;-0.0192;-0.0374;-0.0220
0000394261;5.7365;2.4301;-4.4005;-0.0234;-0.0400;-0.0209
0000394270;5.6814;2.3008;-4.3886;-0.0258;-0.0418;-0.0266
0000394282;5.6719;2.3391;-4.3694;-0.0250;-0.0382;-0.0207
0000394291;5.8634;2.4110;-4.3574;-0.0220;-0.0412;-0.0285
0000394300;5.7916;2.5642;-4.3838;-0.0240;-0.0418;-0.0274
0000394313;5.8562;2.5786;-4.4293;-0.0212;-0.0426;-0.0242
0000394322;5.6383;2.2793;-4.3574;-0.0230;-0.0448;-0.0225
0000394334;5.8395;2.4062;-4.2952;-0.0229;-0.0445;-0.0276
0000394343;5.8897;2.6193;-4.4341;-0.0245;-0.0408;-0.0215
0000394356;5.8897;2.5139;-4.3838;-0.0260;-0.0380;-0.0228
0000394365;5.8802;2.4636;-4.4173;-0.0248;-0.0461;-0.0282
0000394377;5.7078;2.4636;-4.3455;-0.0257;-0.0409;-0.0234
0000394386;5.7652;2.4636;-4.2976;-0.0209;-0.0437;-0.0246
0000394451;5.7628;2.4517;-4.3766;-0.0203;-0.0341;-0.0242
0000394460;5.8059;2.4253;-4.3263;-0.0128;-0.0390;-0.0325
0000394469;5.8275;2.4229;-4.3838;-0.0141;-0.0356;-0.0204
0000394481;5.8826;2.6576;-4.4125;-0.0117;-0.0354;-0.0289
0000394490;5.7628;2.4181;-4.3527;-0.0144;-0.0402;-0.0305
0000394503;5.9640;2.4349;-4.4412;-0.0177;-0.0446;-0.0300
0000394512;5.7293;2.3272;-4.3886;-0.0131;-0.0392;-0.0308
0000394524;5.7700;2.3750;-4.3359;-0.0109;-0.0425;-0.0354
0000394533;5.8059;2.5450;-4.3072;-0.0165;-0.0318;-0.0300
0000394546;5.6838;2.4397;-4.3359;-0.0180;-0.0301;-0.0341
0000394555;5.8323;2.4804;-4.3694;-0.0143;-0.0377;-0.0336
0000394567;5.7652;2.5738;-4.4221;-0.0173;-0.0418;-0.0330
0000394576;5.8706;2.5857;-4.3239;-0.0229;-0.0397;-0.0258
0000394585;5.8921;2.6217;-4.3862;-0.0236;-0.0416;-0.0232
0000394599;5.7006;2.3463;-4.3215;-0.0125;-0.0376;-0.0276
0000394608;5.7293;2.4086;-4.3527;-0.0067;-0.0426;-0.0278
0000394621;5.8706;2.3703;-4.4700;-0.0117;-0.0425;-0.0253
0000394630;5.8466;2.6217;-4.4580;-0.0185;-0.0418;-0.0284
0000394642;5.8012;2.4972;-4.3574;-0.0211;-0.0386;-0.0192
0000394651;5.8059;2.4157;-4.4005;-0.0172;-0.0422;-0.0203
0000394664;5.7748;2.3894;-4.3910;-0.0187;-0.0369;-0.0199
0000394673;5.7245;2.4804;-4.3910;-0.0067;-0.0474;-0.0265
0000394740;5.9256;2.5043;-4.3790;-0.0148;-0.0462;-0.0203
0000394749;5.8035;2.3727;-4.3144;-0.0193;-0.0337;-0.0121
0000394758;5.7150;2.3056;-4.3503;-0.0109;-0.0405;-0.0225
0000394771;5.7868;2.5355;-4.4245;-0.0115;-0.0360;-0.0172
0000394780;5.8778;2.4397;-4.3048;-0.0092;-0.0356;-0.0143
0000394792;5.6024;2.3032;-4.3383;-0.0103;-0.0418;-0.0215
0000394801;5.9017;2.6025;-4.3359;-0.0167;-0.0352;-0.0148
0000394814;5.7892;2.3990;-4.3263;-0.0163;-0.0336;-0.0132
0000394823;5.6455;2.3320;-4.2904;-0.0099;-0.0414;-0.0218
0000394835;5.7293;2.2553;-4.4221;-0.0140;-0.0362;-0.0212
0000394844;5.7197;2.4469;-4.4077;-0.0096;-0.0330;-0.0209
0000394857;5.7868;2.5091;-4.3503;-0.0064;-0.0350;-0.0176
0000394866;5.7557;2.4397;-4.3407;-0.0012;-0.0380;-0.0226
0000394875;5.7197;2.4924;-4.3431;-0.0039;-0.0334;-0.0224
0000394887;5.8059;2.3894;-4.4053;-0.0109;-0.0329;-0.0165
0000394896;5.6838;2.4062;-4.3718;-0.0100;-0.0270;-0.0123
0000394909;5.8706;2.5115;-4.3000;-0.0079;-0.0253;-0.0131
0000394918;5.6383;2.4948;-4.4676;-0.0032;-0.0360;-0.0199
0000394930;5.6072;2.3798;-4.3167;-0.0017;-0.0404;-0.0212
0000394939;5.9687;2.4301;-4.2617;-0.0073;-0.0338;-0.0183
0000394952;5.7604;2.5115;-4.3215;-0.0047;-0.0350;-0.0199
0000394961;5.8059;2.5091;-4.3000;-0.0047;-0.0420;-0.0280
0000394970;5.7628;2.4062;-4.3934;-0.0091;-0.0352;-0.0232
0000395037;5.7269;2.5379;-4.4245;0.0088;-0.0289;-0.0113
0000395046;5.6862;2.4301;-4.1779;0.0129;-0.0224;-0.0059
0000395059;5.5138;2.2051;-4.1755;0.0361;-0.0081;-0.0075
0000395068;5.5641;2.2817;-4.1539;0.0398;0.0019;0.0036
0000395080;5.8323;2.4684;-4.2856;0.0577;0.0131;0.0084
0000395089;5.8562;2.6743;-4.4796;0.0762;0.0152;-0.0044
0000395102;6.0334;2.6839;-4.5370;0.0746;0.0232;-0.0204
0000395111;5.8802;2.4732;-4.4580;0.0838;0.0153;-0.0450
0000395120;6.1004;2.7773;-4.4005;0.0887;0.0160;-0.0586
0000395132;5.7533;2.5570;-4.3646;0.1172;-0.0076;-0.0727
0000395141;5.7006;2.4660;-4.3622;0.1222;-0.0163;-0.0669
0000395154;5.6407;2.3463;-4.2856;0.1494;-0.0373;-0.0524
0000395163;5.7581;2.4253;-4.3359;0.1620;-0.0478;-0.0449
0000395175;5.8155;2.2122;-4.5442;0.1585;-0.0525;-0.0408
0000395184;5.7748;2.3080;-4.5466;0.1502;-0.0705;-0.0570
0000395197;5.8538;2.2266;-4.4484;0.1298;-0.0954;-0.0686
0000395206;5.7988;2.2913;-4.5250;0.1276;-0.1211;-0.0795
0000395215;5.8012;2.3224;-4.4939;0.1199;-0.1327;-0.0701
0000395227;5.4947;2.3272;-4.6160;0.0927;-0.1525;-0.0530
0000395236;5.4324;2.3032;-4.5801;0.0883;-0.1765;-0.0454
0000395249;5.6000;2.2721;-4.5897;0.0628;-0.1792;-0.0252
0000395258;5.6695;2.2410;-4.6974;0.0694;-0.1580;0.0015
0000395327;5.5617;2.2625;-4.8339;-0.0233;-0.0909;-0.0281
0000395336;5.5067;2.1691;-4.8243;-0.0337;-0.0855;-0.0260
0000395349;5.6407;2.4397;-4.6878;-0.0460;-0.0769;-0.0209
0000395358;5.7557;2.3535;-4.7118;-0.0518;-0.0733;-0.0233
0000395367;5.7102;2.5450;-4.6639;-0.0536;-0.0667;-0.0220
0000395379;5.6264;2.2745;-4.6376;-0.0522;-0.0648;-0.0296
0000395388;5.6431;2.4349;-4.6519;-0.0645;-0.0529;-0.0220
0000395401;5.4923;2.3176;-4.6064;-0.0560;-0.0521;-0.0163
0000395410;5.7054;2.4948;-4.6424;-0.0524;-0.0536;-0.0169
0000395422;5.5162;2.3320;-4.5466;-0.0605;-0.0413;-0.0113
0000395431;5.7820;2.5355;-4.5705;-0.0516;-0.0430;-0.0169
0000395444;5.5426;2.3774;-4.5274;-0.0461;-0.0430;-0.0093
0000395453;5.9113;2.3463;-4.5370;-0.0442;-0.0392;-0.0037
0000395465;5.7317;2.3439;-4.4508;-0.0426;-0.0368;-0.0028
0000395474;5.5474;2.2793;-4.5849;-0.0374;-0.0440;-0.0117
0000395483;5.6000;2.2960;-4.5418;-0.0426;-0.0446;-0.0111
0000395496;5.7221;2.4732;-4.5993;-0.0440;-0.0472;-0.0152
0000395505;5.4899;2.2673;-4.5610;-0.0457;-0.0522;-0.0236
0000395516;5.6360;2.3487;-4.5705;-0.0469;-0.0428;-0.0203
0000395525;5.6527;2.4636;-4.4748;-0.0376;-0.0502;-0.0224
0000395538;5.6527;2.4804;-4.5203;-0.0357;-0.0493;-0.0163
0000395547;5.6312;2.3032;-4.6543;-0.0432;-0.0460;-0.0143
0000395616;5.6336;2.4086;-4.4843;-0.0321;-0.0328;-0.0168
0000395625;5.5641;2.2745;-4.3814;-0.0366;-0.0273;-0.0104
0000395638;5.5258;2.2984;-4.4915;-0.0332;-0.0242;-0.0079
0000395647;5.7916;2.3918;-4.5753;-0.0322;-0.0254;-0.0096
0000395656;5.5522;2.3655;-4.5897;-0.0244;-0.0329;-0.0119
0000395668;5.7461;2.4636;-4.5107;-0.0309;-0.0256;-0.0123
0000395677;5.5785;2.3607;-4.4843;-0.0252;-0.0321;-0.0237
0000395690;5.6072;2.3008;-4.5538;-0.0226;-0.0352;-0.0232
0000395699;5.5809;2.3439;-4.4604;-0.0296;-0.0308;-0.0188
0000395711;5.5545;2.2458;-4.5011;-0.0290;-0.0332;-0.0204
0000395720;5.5450;2.4445;-4.5969;-0.0304;-0.0396;-0.0274
0000395733;5.6838;2.4229;-4.4532;-0.0321;-0.0369;-0.0238
0000395742;5.6336;2.3822;-4.5322;-0.0341;-0.0370;-0.0221
0000395754;5.7509;2.4828;-4.4939;-0.0292;-0.0384;-0.0290
0000395763;5.6407;2.3703;-4.5346;-0.0322;-0.0420;-0.0260
0000395772;5.6671;2.3200;-4.4843;-0.0329;-0.0364;-0.0282
0000395785;5.6838;2.4349;-4.5442;-0.0356;-0.0365;-0.0292
0000395794;5.5330;2.2601;-4.5298;-0.0436;-0.0296;-0.0268
0000395806;5.6192;2.2889;-4.4915;-0.0469;-0.0306;-0.0257
0000395815;5.6982;2.3631;-4.4963;-0.0496;-0.0328;-0.0236
0000395828;5.5115;2.3990;-4.4843;-0.0525;-0.0373;-0.0297
0000395837;5.6240;2.4110;-4.4436;-0.0545;-0.0385;-0.0341
0000395906;5.5019;2.3296;-4.4580;-0.0661;-0.0458;-0.0172
0000395915;5.6336;2.4062;-4.3886;-0.0721;-0.0385;-0.0152
0000395928;5.8251;2.5211;-4.3958;-0.0785;-0.0389;-0.0165
0000395937;5.6934;2.4205;-4.4772;-0.0727;-0.0424;-0.0207
0000395946;5.6120;2.4277;-4.4197;-0.0791;-0.0397;-0.0073
0000395958;5.6383;2.4181;-4.3551;-0.0608;-0.0458;-0.0091
0000395967;5.7150;2.4469;-4.3359;-0.0605;-0.0392;0.0037
0000395980;5.5737;2.3320;-4.3838;-0.0548;-0.0426;-0.0075
0000395989;5.5785;2.5235;-4.4436;-0.0498;-0.0358;-0.0027
0000396001;5.6719;2.5786;-4.4604;-0.0394;-0.0366;-0.0129
0000396010;5.7054;2.3942;-4.3120;-0.0422;-0.0290;-0.0071
0000396024;5.6551;2.5043;-4.3551;-0.0373;-0.0302;-0.0116
0000396033;5.5474;2.4493;-4.3958;-0.0300;-0.0344;-0.0163
0000396042;5.6743;2.4756;-4.3527;-0.0354;-0.0290;-0.0127
0000396055;5.5091;2.2984;-4.2808;-0.0269;-0.0253;-0.0060
0000396064;5.5474;2.3870;-4.4053;-0.0112;-0.0344;-0.0115
0000396076;5.6599;2.3727;-4.3742;-0.0135;-0.0305;-0.0095
0000396085;5.6455;2.3750;-4.2904;-0.0101;-0.0238;-0.0043
0000396098;5.8323;2.5881;-4.4724;-0.0128;-0.0234;-0.0057
0000396107;5.5306;2.4181;-4.4341;-0.0060;-0.0337;-0.0133
0000396119;5.7892;2.5714;-4.4149;-0.0109;-0.0290;-0.0135
0000396128;5.6024;2.5163;-4.4269;-0.0172;-0.0241;-0.0037
0000396196;5.6599;2.4876;-4.4077;-0.0406;-0.0349;-0.0111
0000396205;5.5162;2.3463;-4.3574;-0.0418;-0.0229;-0.0053
0000396214;5.6288;2.4134;-4.3431;-0.0409;-0.0241;-0.0112
0000396226;5.5689;2.3487;-4.3958;-0.0372;-0.0232;-0.0157
0000396235;5.6407;2.4014;-4.3886;-0.0396;-0.0183;-0.0036
0000396248;5.5641;2.3703;-4.4149;-0.0420;-0.0226;-0.0067
0000396257;5.5976;2.3032;-4.2401;-0.0382;-0.0289;-0.0123
0000396269;5.5737;2.4804;-4.2425;-0.0298;-0.0293;-0.0079
0000396278;5.5833;2.3367;-4.2593;-0.0296;-0.0221;-0.0059
0000396291;5.3175;2.1835;-4.2976;-0.0213;-0.0304;-0.0071
0000396300;5.6336;2.4708;-4.3934;-0.0296;-0.0257;-0.0048
0000396312;5.6264;2.3559;-4.3048;-0.0236;-0.0268;-0.0025
0000396321;5.7988;2.5762;-4.2689;-0.0152;-0.0318;-0.0039
0000396330;5.6479;2.4253;-4.4029;-0.0196;-0.0324;-0.0048
0000396343;5.6910;2.3846;-4.3934;-0.0225;-0.0352;-0.0120
0000396352;5.7102;2.4660;-4.3766;-0.0192;-0.0384;-0.0135
0000396364;5.6886;2.4373;-4.3072;-0.0183;-0.0405;-0.0164
0000396373;5.7030;2.6336;-4.3718;-0.0135;-0.0426;-0.0167
0000396386;5.5665;2.3870;-4.4317;-0.0238;-0.0356;-0.0131
0000396395;5.6216;2.5570;-4.4580;-0.0282;-0.0400;-0.0135
0000396407;5.7078;2.5379;-4.4293;-0.0430;-0.0378;-0.0181
0000396416;5.6599;2.5618;-4.5131;-0.0542;-0.0397;-0.0176
0000396484;5.7581;2.2146;-4.2066;-0.0782;-0.0414;-0.0272
0000396493;5.5881;2.2122;-4.1994;-0.0558;-0.0396;-0.0289
0000396502;5.6838;2.4397;-4.2114;-0.0550;-0.0313;-0.0216
0000396514;5.4708;2.2769;-4.0869;-0.0565;-0.0226;-0.0121
0000396523;5.5952;2.2841;-4.1827;-0.0456;-0.0244;-0.0105
0000396536;5.6168;2.4972;-4.3000;-0.0385;-0.0233;-0.0091
0000396545;5.6623;2.5642;-4.2425;-0.0416;-0.0220;-0.0056
0000396557;5.6407;2.4900;-4.2258;-0.0358;-0.0272;-0.0143
0000396566;5.6000;2.5905;-4.2258;-0.0322;-0.0334;-0.0099
0000396579;5.7269;2.5283;-4.2066;-0.0316;-0.0320;-0.0132
0000396588;5.7437;2.5953;-4.2569;-0.0261;-0.0376;-0.0103
0000396600;5.5641;2.4301;-4.1563;-0.0141;-0.0404;-0.0156
0000396609;5.6120;2.4660;-4.3048;-0.0113;-0.0338;-0.0092
0000396618;5.6048;2.4948;-4.1276;-0.0080;-0.0340;-0.0079
0000396631;5.7940;2.4588;-4.2545;-0.0037;-0.0334;-0.0073
0000396640;5.4875;2.4325;-4.2018;0.0000;-0.0317;-0.0076
0000396652;5.6671;2.5977;-4.3167;-0.0004;-0.0296;-0.0024
0000396661;5.6814;2.4397;-4.3335;0.0015;-0.0364;-0.0075
0000396674;5.8203;2.5881;-4.4532;-0.0023;-0.0338;-0.0079
0000396683;5.8514;2.6121;-4.3263;-0.0060;-0.0317;-0.0088
0000396695;5.7102;2.3727;-4.3742;-0.0075;-0.0322;-0.0113
0000396704;5.7820;2.3990;-4.2353;-0.0064;-0.0410;-0.0169
0000396713;5.6767;2.5450;-4.2784;-0.0029;-0.0344;-0.0112
0000396781;5.7652;2.6001;-4.3167;-0.0083;-0.0337;-0.0108
0000396790;5.4971;2.3128;-4.3383;-0.0095;-0.0346;-0.0129
0000396802;5.6575;2.5379;-4.2760;-0.0045;-0.0358;-0.0137
0000396811;5.8155;2.6839;-4.3000;-0.0111;-0.0326;-0.0096
0000396824;5.7006;2.6097;-4.3670;-0.0140;-0.0360;-0.0148
0000396833;5.8012;2.4900;-4.3096;-0.0172;-0.0324;-0.0119
0000396845;5.6383;2.5283;-4.2569;-0.0148;-0.0297;-0.0084
0000396854;5.7006;2.6025;-4.2186;-0.0139;-0.0370;-0.0175
0000396867;5.4612;2.2865;-4.3718;-0.0164;-0.0348;-0.0101
0000396876;5.5617;2.4325;-4.2737;-0.0137;-0.0372;-0.0163
0000396885;5.6336;2.5067;-4.2401;-0.0129;-0.0376;-0.0113
0000396897;5.5067;2.4181;-4.3167;-0.0085;-0.0438;-0.0236
0000396906;5.6982;2.5091;-4.2760;-0.0169;-0.0326;-0.0161
0000396919;5.3870;2.2625;-4.1707;-0.0105;-0.0400;-0.0179
0000396928;5.6551;2.4349;-4.1755;-0.0124;-0.0386;-0.0181
0000396940;5.7150;2.4277;-4.2497;-0.0097;-0.0369;-0.0205
0000396949;5.5833;2.4493;-4.3215;-0.0137;-0.0322;-0.0199
0000396962;5.5450;2.4876;-4.3431;-0.0068;-0.0349;-0.0218
0000396971;5.6072;2.3727;-4.3694;-0.0079;-0.0345;-0.0192
0000396983;5.5330;2.3846;-4.2665;0.0020;-0.0365;-0.0277
0000396992;5.4636;2.3535;-4.3407;-0.0047;-0.0360;-0.0225
0000397001;5.5426;2.5091;-4.1731;-0.0052;-0.0316;-0.0209
0000397069;5.6647;2.5857;-4.2880;-0.0016;-0.0333;-0.0201
0000397078;5.7245;2.6312;-4.2928;-0.0085;-0.0293;-0.0171
0000397090;5.5833;2.4948;-4.3144;-0.0060;-0.0334;-0.0128
0000397099;5.4492;2.3679;-4.3766;-0.0108;-0.0356;-0.0177
0000397112;5.7269;2.6145;-4.3191;-0.0115;-0.0378;-0.0189
0000397121;5.6527;2.5139;-4.3407;-0.0193;-0.0329;-0.0147
0000397133;5.5881;2.4469;-4.3407;-0.0215;-0.0358;-0.0143
0000397142;5.5115;2.4660;-4.2665;-0.0225;-0.0317;-0.0105
0000397155;5.5881;2.5235;-4.3000;-0.0159;-0.0354;-0.0184
0000397164;5.4851;2.5187;-4.3359;-0.0199;-0.0338;-0.0137
0000397173;5.5737;2.5498;-4.2904;-0.0197;-0.0374;-0.0189
0000397185;5.6264;2.3224;-4.3024;-0.0204;-0.0306;-0.0161
0000397194;5.5545;2.3918;-4.2258;-0.0132;-0.0390;-0.0207
0000397207;5.4971;2.3846;-4.3766;-0.0167;-0.0409;-0.0147
0000397216;5.5952;2.3631;-4.4365;-0.0277;-0.0370;0.0004
0000397228;5.6264;2.4421;-4.3000;-0.0216;-0.0445;0.0017
0000397237;5.4923;2.2889;-4.2952;-0.0298;-0.0452;0.0020
0000397250;5.5785;2.3152;-4.3359;-0.0313;-0.0462;0.0048
0000397257;5.3726;2.3128;-4.2928;-0.0316;-0.0526;-0.0004
0000397265;5.5498;2.4373;-4.4436;-0.0309;-0.0545;0.0016
0000397278;5.6527;2.6384;-4.2449;-0.0337;-0.0493;0.0035
0000397286;5.4708;2.4780;-4.2737;-0.0312;-0.0542;0.0056
0000397354;5.6000;2.4014;-4.2497;-0.0276;-0.0521;0.0093
0000397362;5.7317;2.6073;-4.2186;-0.0301;-0.0540;0.0077
0000397373;5.6096;2.5043;-4.2497;-0.0277;-0.0470;0.0045
0000397381;5.6455;2.4373;-4.2449;-0.0232;-0.0534;-0.0061
0000397393;5.6479;2.4493;-4.2425;-0.0229;-0.0472;-0.0085
0000397401;5.5809;2.3320;-4.2066;-0.0218;-0.0413;-0.0071
