time;acc_x;acc_y;acc_z;gyro_x;gyro_y;gyro_z
0000801786;6.3470;3.1220;0.3998;-0.0197;-0.1343;-0.0065
0000801794;6.4476;3.2753;0.3304;-0.0211;-0.1368;-0.0108
0000801801;6.4811;3.1771;0.3496;-0.0184;-0.1376;-0.0147
0000801809;6.4715;3.2106;0.4238;-0.0204;-0.1290;-0.0037
0000801817;6.4356;3.1939;0.3807;-0.0270;-0.1244;-0.0045
0000801825;6.4284;3.0933;0.4812;-0.0226;-0.1258;-0.0072
0000801833;6.5721;3.3064;0.3496;-0.0248;-0.1131;-0.0051
0000801841;6.3758;3.1460;0.3352;-0.0242;-0.1198;-0.0109
0000801849;6.3614;3.1149;0.2634;-0.0249;-0.1062;-0.0135
0000801857;6.4141;3.2537;0.3472;-0.0220;-0.1092;-0.0108
0000801865;6.4907;3.4285;0.2921;-0.0234;-0.1069;-0.0139
0000801873;6.4452;3.2370;0.2969;-0.0226;-0.1104;-0.0091
0000801881;6.5314;3.2920;0.2729;-0.0273;-0.1067;-0.0109
0000801889;6.2752;3.1316;0.4190;-0.0258;-0.1107;-0.0160
0000801897;6.2177;3.0143;0.2705;-0.0285;-0.1023;-0.0099
0000801905;6.4620;3.2058;0.3639;-0.0341;-0.1088;-0.0115
0000801913;6.4572;3.2370;0.3639;-0.0326;-0.1027;-0.0099
0000801921;6.3231;3.0981;0.3519;-0.0416;-0.1006;-0.0137
0000801929;6.3782;3.2777;0.3232;-0.0328;-0.1078;-0.0155
0000801937;6.5697;3.2370;0.3879;-0.0314;-0.1058;-0.0149
0000801945;6.4284;3.2010;0.4046;-0.0360;-0.0950;-0.0109
0000801953;6.4452;3.2130;0.4046;-0.0300;-0.0965;-0.0165
0000801961;6.3782;3.0957;0.4022;-0.0277;-0.0923;-0.0135
0000801969;6.3351;3.1149;0.3591;-0.0334;-0.0851;-0.0089
0000801977;6.3422;3.0311;0.5148;-0.0274;-0.0865;-0.0120
0000801985;6.3758;3.2417;0.3328;-0.0204;-0.0865;-0.0123
0000801993;6.3997;3.1196;0.4597;-0.0248;-0.0847;-0.0096
0000802001;6.3183;3.2154;0.3160;-0.0232;-0.0817;-0.0111
0000802009;6.3686;3.2561;0.3663;-0.0172;-0.0871;-0.0127
0000802017;6.3614;3.2896;0.4525;-0.0222;-0.0834;-0.0099
0000802025;6.2728;3.0598;0.3304;-0.0270;-0.0810;-0.0101
0000802033;6.1316;3.1220;0.3208;-0.0211;-0.0873;-0.0161
0000802041;6.4643;3.2992;0.2969;-0.0249;-0.0869;-0.0112
0000802049;6.2417;3.0406;0.4022;-0.0242;-0.0853;-0.0125
0000802057;6.3135;3.1005;0.4022;-0.0233;-0.0874;-0.0151
0000802065;6.3638;3.1699;0.3184;-0.0276;-0.0827;-0.0127
0000802073;6.4380;3.2178;0.3017;-0.0233;-0.0873;-0.0091
0000802081;6.3375;3.1268;0.3208;-0.0208;-0.0825;-0.0095
0000802089;6.3279;3.1484;0.3400;-0.0238;-0.0790;-0.0101
0000802097;6.4979;3.2250;0.3807;-0.0164;-0.0839;-0.0136
0000802105;6.3183;3.0023;0.3112;-0.0156;-0.0774;-0.0128
0000802113;6.2560;2.9425;0.3759;-0.0123;-0.0779;-0.0120
0000802121;6.2321;3.0694;0.3998;-0.0081;-0.0767;-0.0109
0000802129;6.4596;3.1292;0.3735;-0.0156;-0.0733;-0.0077
0000802137;6.5194;3.3064;0.3926;-0.0143;-0.0707;-0.0085
0000802145;6.5386;3.2513;0.2993;-0.0085;-0.0721;-0.0145
0000802153;6.3782;3.1101;0.3496;-0.0048;-0.0701;-0.0136
0000802161;6.3997;3.1125;0.3783;-0.0048;-0.0600;-0.0147
0000802169;6.5960;3.3208;0.4453;-0.0109;-0.0564;-0.0140
0000802177;6.5242;3.1316;0.3591;-0.0059;-0.0525;-0.0147
0000802185;6.6176;3.2968;0.4046;-0.0057;-0.0489;-0.0075
0000802193;6.4883;3.1939;0.3567;-0.0029;-0.0468;-0.0127
0000802201;6.2393;2.8730;0.3160;0.0013;-0.0492;-0.0152
0000802209;6.6152;3.2441;0.3639;-0.0027;-0.0405;-0.0077
0000802217;6.4691;3.1149;0.5100;0.0008;-0.0400;-0.0111
0000802225;6.5242;3.2274;0.3472;-0.0028;-0.0297;-0.0064
0000802233;6.5960;3.1149;0.4046;-0.0024;-0.0246;-0.0040
0000802241;6.3327;3.1987;0.3711;-0.0004;-0.0290;-0.0119
0000802249;6.3782;3.1173;0.4262;-0.0024;-0.0195;-0.0048
0000802257;6.4141;3.1508;0.3831;-0.0032;-0.0149;-0.0052
0000802265;6.3327;3.0430;0.3591;-0.0031;-0.0201;-0.0131
0000802273;6.5098;3.1915;0.3280;-0.0059;-0.0148;-0.0027
0000802281;6.4141;3.0765;0.3184;-0.0099;-0.0125;-0.0045
0000802289;6.4548;3.2058;0.2969;-0.0028;-0.0160;-0.0080
0000802297;6.5218;3.1987;0.2993;-0.0021;-0.0161;-0.0096
0000802305;6.2680;3.0718;0.3352;-0.0099;-0.0092;-0.0056
0000802313;6.3686;3.1556;0.2538;-0.0053;-0.0101;-0.0124
0000802321;6.3734;3.1053;0.3974;-0.0031;-0.0136;-0.0097
0000802329;6.4045;3.0430;0.3831;-0.0077;-0.0027;-0.0063
0000802337;6.3542;3.1771;0.3807;-0.0069;-0.0092;-0.0100
0000802345;6.6128;3.3447;0.3424;-0.0029;-0.0089;-0.0123
0000802353;6.2608;3.1029;0.3232;-0.0088;-0.0045;-0.0092
0000802380;6.2297;3.0382;0.3232;-0.0088;-0.0023;-0.0049
0000802388;6.4620;3.2417;0.3424;-0.0104;-0.0024;-0.0079
0000802396;6.4643;3.2250;0.3065;-0.0081;-0.0013;-0.0087
0000802404;6.7325;3.3279;0.2705;-0.0063;-0.0013;-0.0103
0000802412;6.3949;3.1316;0.2298;-0.0132;-0.0041;-0.0119
0000802420;6.4763;3.2058;0.3232;-0.0080;-0.0039;-0.0111
0000802428;6.4620;3.1987;0.3926;-0.0116;-0.0049;-0.0143
0000802436;6.4332;3.1508;0.2059;-0.0132;-0.0109;-0.0175
0000802444;6.4332;3.2394;0.3160;-0.0165;-0.0095;-0.0120
0000802452;6.2824;3.1580;0.3903;-0.0188;-0.0116;-0.0115
0000802460;6.5050;3.3447;0.2562;-0.0156;-0.0218;-0.0197
0000802468;6.2991;3.1436;0.3448;-0.0237;-0.0171;-0.0116
0000802476;6.2106;3.1268;0.2993;-0.0195;-0.0163;-0.0123
0000802484;6.2082;3.0167;0.3424;-0.0175;-0.0242;-0.0169
0000802492;6.4189;3.2202;0.3328;-0.0240;-0.0204;-0.0088
0000802500;6.3853;3.1196;0.4286;-0.0183;-0.0264;-0.0152
0000802508;6.3973;3.2058;0.4046;-0.0189;-0.0226;-0.0107
0000802516;6.4596;3.1244;0.3711;-0.0169;-0.0308;-0.0159
0000802524;6.4069;3.1532;0.3519;-0.0201;-0.0197;-0.0083
0000802532;6.3231;3.1053;0.4310;-0.0257;-0.0245;-0.0104
0000802540;6.4931;3.2777;0.3711;-0.0250;-0.0238;-0.0151
0000802548;6.4548;3.2848;0.2849;-0.0192;-0.0282;-0.0113
0000802556;6.3375;3.1244;0.3519;-0.0220;-0.0225;-0.0131
0000802564;6.4907;3.2082;0.3400;-0.0200;-0.0300;-0.0197
0000802572;6.3279;3.1627;0.3879;-0.0244;-0.0226;-0.0120
0000802580;6.3015;3.1580;0.3089;-0.0289;-0.0248;-0.0097
0000802588;6.3734;3.1556;0.3017;-0.0253;-0.0301;-0.0141
0000802596;6.3327;3.0789;0.4238;-0.0245;-0.0297;-0.0133
0000802604;6.4428;3.1005;0.3735;-0.0302;-0.0237;-0.0101
0000802612;6.2944;3.0694;0.3639;-0.0246;-0.0304;-0.0164
0000802620;6.3829;3.1460;0.4070;-0.0316;-0.0245;-0.0071
0000802628;6.4356;3.1292;0.4501;-0.0248;-0.0320;-0.0135
0000802636;6.5194;3.2322;0.4573;-0.0241;-0.0322;-0.0099
0000802644;6.4236;3.0981;0.3807;-0.0276;-0.0289;-0.0091
0000802652;6.4284;3.2394;0.4405;-0.0264;-0.0318;-0.0131
0000802660;6.5003;3.0861;0.4645;-0.0189;-0.0388;-0.0155
0000802669;6.4979;3.2585;0.4477;-0.0191;-0.0321;-0.0100
0000802676;6.4404;3.2513;0.4501;-0.0207;-0.0362;-0.0159
0000802684;6.5888;3.1580;0.3376;-0.0260;-0.0328;-0.0119
0000802692;6.5601;3.2801;0.3112;-0.0241;-0.0314;-0.0097
0000802700;6.4500;3.1867;0.3950;-0.0192;-0.0369;-0.0173
0000802708;6.3470;3.1819;0.4764;-0.0132;-0.0361;-0.0189
0000802716;6.5003;3.1915;0.4908;-0.0203;-0.0294;-0.0173
0000802724;6.6128;3.3375;0.3855;-0.0101;-0.0301;-0.0153
0000802732;6.3997;3.0981;0.3208;-0.0192;-0.0238;-0.0064
0000802740;6.4835;3.1915;0.4238;-0.0139;-0.0309;-0.0161
0000802748;6.3877;3.2178;0.4405;-0.0144;-0.0242;-0.0096
0000802756;6.4811;3.1292;0.4453;-0.0195;-0.0217;-0.0117
0000802764;6.5314;3.1196;0.3735;-0.0175;-0.0296;-0.0112
0000802772;6.4596;3.1101;0.4764;-0.0077;-0.0336;-0.0197
0000802780;6.3782;3.0981;0.3855;-0.0115;-0.0270;-0.0129
0000802788;6.5386;3.2705;0.4453;-0.0165;-0.0246;-0.0113
0000802796;6.4620;3.0957;0.4573;-0.0135;-0.0281;-0.0145
0000802804;6.4835;3.2705;0.3567;-0.0123;-0.0373;-0.0163
0000802812;6.3518;3.2202;0.4381;-0.0107;-0.0302;-0.0143
0000802820;6.5050;3.2322;0.4286;-0.0101;-0.0300;-0.0133
0000802828;6.4141;3.1580;0.4334;-0.0116;-0.0322;-0.0116
0000802836;6.4476;3.1268;0.4429;-0.0161;-0.0318;-0.0113
0000802844;6.3734;3.1244;0.3567;-0.0080;-0.0381;-0.0230
0000802852;6.5266;3.1843;0.4597;-0.0056;-0.0414;-0.0171
0000802860;6.4715;3.1675;0.3879;-0.0128;-0.0350;-0.0139
0000802868;6.4715;3.1987;0.5004;-0.0093;-0.0410;-0.0209
0000802876;6.4212;3.1029;0.4405;-0.0120;-0.0297;-0.0120
0000802884;6.4380;3.0454;0.4549;-0.0144;-0.0329;-0.0127
0000802892;6.3494;3.2130;0.3208;-0.0116;-0.0378;-0.0169
0000802900;6.3494;3.0143;0.5100;-0.0041;-0.0373;-0.0192
0000802908;6.5362;3.1364;0.4190;-0.0079;-0.0344;-0.0124
0000802916;6.4021;3.2513;0.4645;-0.0091;-0.0326;-0.0136
0000802924;6.3614;3.1388;0.4142;-0.0064;-0.0412;-0.0172
0000802932;6.2944;2.9951;0.4501;-0.0061;-0.0362;-0.0167
0000802940;6.4835;3.2489;0.4166;-0.0081;-0.0373;-0.0157
0000803026;6.3303;3.2082;0.4956;-0.0060;-0.0441;-0.0180
0000803034;6.4356;3.2130;0.3735;-0.0052;-0.0429;-0.0192
0000803042;6.4428;3.2585;0.4262;-0.0093;-0.0412;-0.0169
0000803050;6.4141;3.1196;0.4334;-0.0039;-0.0432;-0.0189
0000803058;6.4332;3.1651;0.4597;-0.0117;-0.0392;-0.0144
0000803066;6.3542;3.0742;0.3472;-0.0092;-0.0424;-0.0128
0000803074;6.4524;3.1460;0.3304;-0.0081;-0.0357;-0.0156
0000803082;6.4620;3.3471;0.3831;-0.0091;-0.0397;-0.0191
0000803090;6.3590;3.1723;0.4621;-0.0051;-0.0396;-0.0172
0000803098;6.4476;3.0239;0.3903;-0.0109;-0.0398;-0.0147
0000803106;6.4620;3.0837;0.3998;-0.0064;-0.0390;-0.0192
0000803114;6.4165;3.0813;0.2897;-0.0063;-0.0334;-0.0085
0000803122;6.4260;3.1436;0.3639;-0.0044;-0.0362;-0.0128
0000803130;6.4069;3.2154;0.4118;-0.0079;-0.0341;-0.0143
0000803138;6.4524;3.2130;0.4214;-0.0045;-0.0392;-0.0225
0000803146;6.5122;3.3471;0.3639;-0.0109;-0.0414;-0.0215
0000803154;6.3255;3.2274;0.3472;-0.0164;-0.0338;-0.0137
0000803162;6.3877;3.2154;0.2586;-0.0203;-0.0354;-0.0179
0000803170;6.5601;3.3160;0.2562;-0.0237;-0.0396;-0.0171
0000803178;6.3111;3.1651;0.3041;-0.0199;-0.0449;-0.0212
0000803186;6.3518;3.3160;0.3567;-0.0183;-0.0484;-0.0221
0000803194;6.4835;3.3064;0.2993;-0.0298;-0.0412;-0.0159
0000803202;6.4548;3.3112;0.3903;-0.0341;-0.0509;-0.0204
0000803210;6.3087;3.3040;0.3328;-0.0328;-0.0504;-0.0220
0000803218;6.2560;3.0406;0.3160;-0.0382;-0.0441;-0.0192
0000803226;6.4452;3.2729;0.2897;-0.0382;-0.0542;-0.0238
0000803234;6.4260;3.2010;0.3591;-0.0322;-0.0554;-0.0241
0000803242;6.3087;3.1196;0.3352;-0.0317;-0.0533;-0.0179
0000803250;6.1675;2.9712;0.3926;-0.0344;-0.0602;-0.0229
0000803258;6.4596;3.2202;0.3974;-0.0281;-0.0601;-0.0222
0000803266;6.3327;3.1196;0.3831;-0.0261;-0.0644;-0.0244
0000803274;6.3997;3.1220;0.3831;-0.0218;-0.0580;-0.0224
0000803282;6.5314;3.1268;0.4214;-0.0244;-0.0597;-0.0233
0000803290;6.3925;3.1316;0.3759;-0.0244;-0.0590;-0.0181
0000803298;6.4117;3.1173;0.3735;-0.0281;-0.0532;-0.0171
0000803306;6.4620;3.2274;0.4142;-0.0208;-0.0610;-0.0226
0000803314;6.3997;3.1412;0.4501;-0.0183;-0.0550;-0.0167
0000803322;6.3734;3.2106;0.3759;-0.0201;-0.0553;-0.0193
0000803330;6.2896;3.2178;0.3472;-0.0157;-0.0634;-0.0201
0000803338;6.4667;3.2250;0.4238;-0.0207;-0.0589;-0.0188
0000803346;6.3662;3.1220;0.3424;-0.0179;-0.0650;-0.0240
0000803354;6.5003;3.2801;0.2753;-0.0092;-0.0671;-0.0218
0000803362;6.5649;3.2178;0.3256;-0.0081;-0.0690;-0.0230
0000803370;6.1938;3.1005;0.4166;-0.0081;-0.0646;-0.0209
0000803378;6.4380;3.1220;0.4429;-0.0077;-0.0648;-0.0212
0000803386;6.4787;3.1196;0.2777;-0.0073;-0.0641;-0.0205
0000803394;6.3207;3.1316;0.3759;-0.0027;-0.0665;-0.0217
0000803402;6.3470;2.9712;0.3567;-0.0107;-0.0609;-0.0187
0000803410;6.3279;3.1771;0.3352;-0.0099;-0.0629;-0.0221
0000803418;6.3470;3.1508;0.4908;-0.0056;-0.0610;-0.0196
0000803426;6.3518;3.1532;0.3855;-0.0097;-0.0629;-0.0233
0000803434;6.2273;3.1388;0.3112;-0.0080;-0.0600;-0.0245
0000803442;6.3590;3.2346;0.4118;-0.0176;-0.0544;-0.0172
0000803450;6.3087;3.1819;0.3304;-0.0163;-0.0532;-0.0256
0000803458;6.5146;3.2705;0.2682;-0.0095;-0.0513;-0.0306
0000803466;6.4093;3.2346;0.2873;-0.0132;-0.0444;-0.0265
0000803474;6.4476;3.2944;0.2849;-0.0185;-0.0422;-0.0245
0000803482;6.3710;3.2322;0.3304;-0.0141;-0.0392;-0.0274
0000803490;6.4620;3.2657;0.3519;-0.0135;-0.0321;-0.0282
0000803498;6.3351;3.0622;0.4238;-0.0211;-0.0278;-0.0216
0000803506;6.3686;3.1005;0.3519;-0.0167;-0.0324;-0.0302
0000803514;6.2824;3.1627;0.4118;-0.0175;-0.0296;-0.0212
0000803522;6.3805;3.2154;0.3855;-0.0237;-0.0181;-0.0193
0000803530;6.3255;3.2130;0.4118;-0.0222;-0.0217;-0.0245
0000803538;6.2800;3.0933;0.3567;-0.0224;-0.0191;-0.0236
0000803546;6.3542;3.2154;0.3879;-0.0288;-0.0147;-0.0173
0000803554;6.4787;3.2034;0.4788;-0.0224;-0.0181;-0.0225
0000803562;6.3853;3.2154;0.3759;-0.0213;-0.0205;-0.0224
0000803570;6.2704;3.0574;0.4501;-0.0261;-0.0131;-0.0179
0000803578;6.3159;3.1580;0.3807;-0.0280;-0.0117;-0.0211
0000803586;6.1842;2.9568;0.3472;-0.0221;-0.0184;-0.0248
0000803594;6.5242;3.2178;0.4621;-0.0232;-0.0132;-0.0207
0000803680;6.3566;3.1699;0.4094;-0.0053;-0.0123;-0.0234
0000803688;6.3614;3.1891;0.4070;-0.0123;-0.0087;-0.0200
0000803696;6.3710;3.1891;0.4334;-0.0056;-0.0101;-0.0203
0000803704;6.2513;3.1388;0.4214;-0.0108;-0.0064;-0.0172
0000803712;6.4835;3.2394;0.4142;-0.0127;-0.0117;-0.0153
0000803720;6.3710;3.2298;0.3903;-0.0183;-0.0047;-0.0177
0000803728;6.4715;3.2825;0.3831;-0.0139;-0.0145;-0.0169
0000803736;6.3470;3.2394;0.3783;-0.0141;-0.0084;-0.0129
0000803744;6.3949;3.1987;0.3903;-0.0133;-0.0179;-0.0161
0000803752;6.2393;3.1292;0.3974;-0.0173;-0.0149;-0.0139
0000803760;6.2417;3.3112;0.2993;-0.0153;-0.0177;-0.0164
0000803768;6.3111;3.0885;0.3567;-0.0121;-0.0167;-0.0161
0000803776;6.3327;3.1963;0.3112;-0.0153;-0.0172;-0.0181
0000803784;6.4069;3.3399;0.3759;-0.0120;-0.0199;-0.0188
0000803792;6.2321;3.2082;0.4334;-0.0152;-0.0201;-0.0221
0000803800;6.3015;3.1388;0.4334;-0.0099;-0.0229;-0.0187
0000803808;6.3063;3.0478;0.3687;-0.0165;-0.0179;-0.0167
0000803816;6.3877;3.2010;0.4070;-0.0152;-0.0195;-0.0191
0000803824;6.2776;3.0311;0.4405;-0.0079;-0.0245;-0.0237
0000803832;6.2058;3.0287;0.4645;-0.0059;-0.0257;-0.0212
0000803840;6.4045;3.2968;0.3735;-0.0116;-0.0199;-0.0180
0000803848;6.3853;3.1173;0.3855;-0.0093;-0.0277;-0.0253
0000803856;6.2489;3.0789;0.4262;-0.0081;-0.0253;-0.0204
0000803864;6.2944;3.1891;0.4118;-0.0107;-0.0306;-0.0187
0000803872;6.1603;3.1340;0.3160;-0.0125;-0.0266;-0.0156
0000803880;6.2297;3.2010;0.3160;-0.0151;-0.0313;-0.0161
0000803888;6.2896;3.2226;0.4238;-0.0169;-0.0332;-0.0123
0000803896;6.3087;3.1580;0.3112;-0.0161;-0.0380;-0.0179
0000803904;6.3853;3.2561;0.3663;-0.0133;-0.0472;-0.0177
0000803912;6.3829;3.3279;0.3424;-0.0139;-0.0441;-0.0145
0000803920;6.5218;3.3543;0.3903;-0.0172;-0.0413;-0.0119
0000803928;6.3758;3.1627;0.3519;-0.0148;-0.0517;-0.0188
0000803936;6.3614;3.1771;0.3807;-0.0108;-0.0493;-0.0215
0000803944;6.1483;3.0598;0.4070;-0.0195;-0.0489;-0.0165
0000803952;6.2608;3.1532;0.4501;-0.0205;-0.0430;-0.0179
0000803960;6.4308;3.3064;0.3855;-0.0155;-0.0504;-0.0191
0000803968;6.3590;3.1005;0.4214;-0.0132;-0.0529;-0.0201
0000803976;6.3710;3.0574;0.4310;-0.0185;-0.0474;-0.0163
0000803984;6.2800;3.1627;0.3807;-0.0160;-0.0544;-0.0164
0000803992;6.2537;3.1077;0.3926;-0.0203;-0.0497;-0.0143
0000804000;6.4021;3.1651;0.3400;-0.0131;-0.0618;-0.0168
0000804008;6.3135;3.1412;0.3472;-0.0185;-0.0537;-0.0127
0000804016;6.2106;3.0478;0.3711;-0.0176;-0.0565;-0.0125
0000804024;6.4308;3.2298;0.3879;-0.0137;-0.0604;-0.0180
0000804032;6.2944;3.2082;0.3974;-0.0149;-0.0540;-0.0151
0000804040;6.6224;3.2585;0.3615;-0.0116;-0.0590;-0.0160
0000804048;6.5338;3.3016;0.3232;-0.0112;-0.0618;-0.0193
0000804056;6.6032;3.2753;0.3687;-0.0115;-0.0633;-0.0149
0000804064;6.3590;3.2034;0.2849;-0.0133;-0.0557;-0.0111
0000804072;6.3494;3.1484;0.4094;-0.0143;-0.0550;-0.0100
0000804080;6.3949;3.1627;0.3496;-0.0120;-0.0596;-0.0161
0000804088;6.3638;3.2178;0.2921;-0.0115;-0.0592;-0.0147
0000804096;6.2752;3.1460;0.3184;-0.0168;-0.0604;-0.0131
0000804104;6.2225;3.1029;0.2897;-0.0125;-0.0588;-0.0169
0000804112;6.3686;3.2034;0.3543;-0.0149;-0.0522;-0.0092
0000804120;6.4141;3.2729;0.4094;-0.0105;-0.0548;-0.0075
0000804128;6.2465;3.1077;0.3304;-0.0160;-0.0505;-0.0100
0000804136;6.3255;3.2226;0.3376;-0.0167;-0.0492;-0.0125
0000804144;6.3087;3.2633;0.3615;-0.0135;-0.0548;-0.0108
0000804152;6.2824;3.1077;0.2921;-0.0136;-0.0552;-0.0143
0000804160;6.3135;3.1173;0.3232;-0.0112;-0.0578;-0.0124
0000804168;6.3375;3.2106;0.3903;-0.0179;-0.0513;-0.0115
0000804176;6.3398;3.1556;0.3400;-0.0171;-0.0552;-0.0136
0000804184;6.5553;3.3303;0.2897;-0.0152;-0.0504;-0.0111
0000804192;6.4093;2.9568;0.3759;-0.0108;-0.0614;-0.0153
0000804200;6.3398;3.1316;0.3735;-0.0097;-0.0572;-0.0124
0000804208;6.2824;3.1364;0.3735;-0.0103;-0.0498;-0.0108
0000804216;6.3782;3.1484;0.3112;-0.0115;-0.0532;-0.0147
0000804224;6.4308;3.1388;0.3376;-0.0091;-0.0512;-0.0109
0000804232;6.3853;3.1149;0.4094;-0.0083;-0.0513;-0.0072
0000804240;6.4045;3.1843;0.4094;-0.0072;-0.0548;-0.0128
0000804248;6.3470;3.1268;0.2777;-0.0060;-0.0497;-0.0060
0000804335;6.4308;3.1340;0.2921;-0.0100;-0.0529;-0.0115
0000804343;6.4715;3.0861;0.3448;-0.0125;-0.0468;-0.0060
0000804351;6.3758;3.1292;0.3735;-0.0111;-0.0453;-0.0041
0000804359;6.4715;3.2394;0.4118;-0.0124;-0.0513;-0.0101
0000804367;6.3949;3.0957;0.3376;-0.0081;-0.0517;-0.0136
0000804375;6.2273;2.9401;0.4022;-0.0063;-0.0518;-0.0108
0000804383;6.3686;3.1580;0.3232;-0.0044;-0.0524;-0.0140
0000804391;6.3446;3.0454;0.3974;-0.0059;-0.0452;-0.0113
0000804399;6.4620;3.0622;0.3160;0.0003;-0.0454;-0.0148
0000804407;6.4907;3.1915;0.3591;-0.0035;-0.0402;-0.0155
0000804415;6.2776;3.1867;0.3112;-0.0039;-0.0365;-0.0169
0000804423;6.4045;3.1556;0.3735;-0.0035;-0.0342;-0.0164
0000804431;6.4787;3.0957;0.3974;-0.0061;-0.0332;-0.0181
0000804439;6.4596;3.2585;0.2729;-0.0028;-0.0288;-0.0164
0000804447;6.4883;3.2657;0.3735;-0.0083;-0.0270;-0.0137
0000804455;6.5170;3.2082;0.2897;-0.0113;-0.0236;-0.0123
0000804463;6.3327;3.1627;0.2969;-0.0077;-0.0277;-0.0179
0000804471;6.3542;3.2394;0.2993;-0.0119;-0.0312;-0.0147
0000804479;6.4284;3.1532;0.2849;-0.0163;-0.0205;-0.0107
0000804487;6.5098;3.1747;0.2179;-0.0155;-0.0168;-0.0087
0000804495;6.4787;3.1340;0.3496;-0.0129;-0.0273;-0.0144
0000804503;6.5050;3.2394;0.3735;-0.0168;-0.0175;-0.0079
0000804511;6.4452;3.1460;0.4022;-0.0196;-0.0133;-0.0111
0000804519;6.3829;3.1101;0.4214;-0.0152;-0.0224;-0.0163
0000804527;6.3542;3.2106;0.3112;-0.0205;-0.0137;-0.0133
0000804535;6.3351;3.0191;0.4094;-0.0173;-0.0184;-0.0129
0000804543;6.3710;3.0742;0.3711;-0.0159;-0.0129;-0.0121
0000804551;6.3494;3.2010;0.3567;-0.0234;-0.0119;-0.0083
0000804559;6.4308;3.2154;0.3328;-0.0215;-0.0143;-0.0119
0000804567;6.4476;3.1556;0.3615;-0.0217;-0.0100;-0.0105
0000804575;6.2800;3.1364;0.4022;-0.0199;-0.0149;-0.0119
0000804583;6.2848;3.1292;0.2873;-0.0265;-0.0163;-0.0121
0000804591;6.4332;3.2777;0.3280;-0.0301;-0.0120;-0.0121
0000804599;6.2656;3.1436;0.3759;-0.0238;-0.0189;-0.0160
0000804607;6.3351;3.2226;0.3663;-0.0204;-0.0204;-0.0175
0000804615;6.3566;3.1244;0.3998;-0.0268;-0.0192;-0.0136
0000804623;6.3159;3.0742;0.4693;-0.0274;-0.0163;-0.0133
0000804631;6.3901;3.1891;0.3855;-0.0261;-0.0262;-0.0183
0000804639;6.2584;3.1053;0.4262;-0.0252;-0.0281;-0.0199
0000804647;6.4452;3.2513;0.3926;-0.0290;-0.0249;-0.0068
0000804655;6.3351;3.1005;0.3280;-0.0310;-0.0216;-0.0048
0000804663;6.3805;3.0358;0.4022;-0.0280;-0.0288;-0.0139
0000804671;6.1770;3.0406;0.3615;-0.0270;-0.0330;-0.0157
0000804679;6.3805;3.1436;0.3591;-0.0277;-0.0309;-0.0113
0000804687;6.5122;3.2896;0.4477;-0.0310;-0.0302;-0.0091
0000804695;6.4620;3.2561;0.3855;-0.0310;-0.0337;-0.0111
0000804703;6.3207;3.2274;0.4214;-0.0282;-0.0370;-0.0136
0000804711;6.4404;3.1795;0.3807;-0.0324;-0.0386;-0.0159
0000804719;6.4069;3.1316;0.4405;-0.0318;-0.0406;-0.0153
0000804727;6.2058;3.0957;0.3974;-0.0329;-0.0432;-0.0149
0000804735;6.3494;3.1795;0.4645;-0.0300;-0.0490;-0.0171
0000804743;6.3087;3.1987;0.4142;-0.0296;-0.0485;-0.0099
0000804751;6.3734;3.2968;0.3759;-0.0300;-0.0538;-0.0153
0000804759;6.2872;3.0813;0.4908;-0.0333;-0.0552;-0.0128
0000804767;6.3566;3.0957;0.3855;-0.0281;-0.0617;-0.0179
0000804775;6.4141;3.2034;0.3926;-0.0305;-0.0644;-0.0133
0000804783;6.4955;3.2274;0.4046;-0.0332;-0.0585;-0.0099
0000804791;6.3973;3.0981;0.4573;-0.0313;-0.0590;-0.0136
0000804799;6.2920;3.0335;0.3735;-0.0340;-0.0638;-0.0129
0000804807;6.5649;3.2465;0.4741;-0.0288;-0.0642;-0.0159
0000804815;6.2489;3.1556;0.4477;-0.0289;-0.0675;-0.0181
0000804823;6.3758;3.1292;0.4166;-0.0350;-0.0653;-0.0153
0000804831;6.3087;3.1436;0.4238;-0.0373;-0.0661;-0.0155
0000804839;6.1770;3.1891;0.4094;-0.0334;-0.0699;-0.0173
0000804847;6.2608;3.1460;0.4717;-0.0377;-0.0637;-0.0093
0000804855;6.4236;3.3255;0.3735;-0.0336;-0.0711;-0.0144
0000804863;6.4883;3.1819;0.5267;-0.0382;-0.0677;-0.0129
0000804871;6.3734;3.1388;0.5435;-0.0392;-0.0735;-0.0149
0000804879;6.4452;3.2082;0.4932;-0.0434;-0.0734;-0.0151
0000804887;6.2632;3.0861;0.4741;-0.0384;-0.0770;-0.0207
0000804895;6.2848;3.0095;0.5076;-0.0426;-0.0721;-0.0151
0000804903;6.2201;3.0526;0.4908;-0.0468;-0.0759;-0.0108
0000804989;6.6295;3.3279;0.5746;-0.0798;-0.0653;-0.0107
0000804997;6.3207;3.0239;0.6153;-0.0801;-0.0626;-0.0075
0000805005;6.2920;3.2034;0.6273;-0.0866;-0.0658;-0.0060
0000805013;6.3207;3.1580;0.6800;-0.0883;-0.0663;-0.0161
0000805021;6.3710;3.1915;0.5914;-0.0898;-0.0606;-0.0059
0000805029;6.2608;3.1388;0.5411;-0.0994;-0.0570;-0.0027
0000805037;6.4380;3.3160;0.6464;-0.1039;-0.0558;-0.0081
0000805045;6.4428;3.2226;0.6249;-0.1096;-0.0518;-0.0028
0000805053;6.2513;3.2944;0.7015;-0.1104;-0.0525;-0.0099
0000805061;6.3135;3.2801;0.6225;-0.1171;-0.0466;-0.0068
0000805069;6.5003;3.3232;0.6632;-0.1270;-0.0446;-0.0073
0000805077;6.2560;3.2106;0.6823;-0.1407;-0.0397;-0.0045
0000805085;6.3686;3.2034;0.6895;-0.1415;-0.0454;-0.0095
0000805093;6.3829;3.2274;0.6991;-0.1503;-0.0408;-0.0045
0000805101;6.3494;3.2777;0.6608;-0.1595;-0.0314;-0.0043
0000805109;6.4380;3.1627;0.7685;-0.1623;-0.0381;-0.0111
0000805117;6.3949;3.1819;0.8068;-0.1740;-0.0324;-0.0079
0000805125;6.4260;3.2010;0.7518;-0.1769;-0.0382;-0.0155
0000805133;6.4380;3.1675;0.7326;-0.1836;-0.0302;-0.0167
0000805141;6.4284;3.3136;0.6895;-0.1937;-0.0289;-0.0179
0000805149;6.4500;3.2801;0.6704;-0.1976;-0.0349;-0.0201
0000805157;6.4093;3.1963;0.8068;-0.2020;-0.0320;-0.0209
0000805165;6.2752;3.1699;0.7757;-0.2117;-0.0266;-0.0221
0000805173;6.2824;3.2034;0.8691;-0.2125;-0.0341;-0.0314
0000805181;6.2297;3.2370;0.9170;-0.2162;-0.0341;-0.0274
0000805189;6.2417;3.1484;0.8068;-0.2297;-0.0321;-0.0201
0000805197;6.3279;3.2489;0.9792;-0.2325;-0.0378;-0.0333
0000805205;6.1196;3.1436;0.9864;-0.2429;-0.0352;-0.0264
0000805213;6.3566;3.2274;1.0199;-0.2535;-0.0328;-0.0280
0000805221;6.4404;3.3112;1.0558;-0.2571;-0.0376;-0.0326
0000805229;6.3231;3.1556;1.0487;-0.2643;-0.0388;-0.0297
0000805237;6.3925;3.1556;1.0367;-0.2710;-0.0386;-0.0265
0000805245;6.3853;3.3088;1.0367;-0.2903;-0.0445;-0.0353
0000805253;6.3159;3.3734;1.0750;-0.2992;-0.0462;-0.0348
0000805261;6.3398;3.3710;1.0056;-0.3182;-0.0434;-0.0274
0000805269;6.3231;3.4189;1.0750;-0.3356;-0.0448;-0.0317
0000805277;6.3255;3.5027;1.0822;-0.3523;-0.0536;-0.0356
0000805285;6.3135;3.5099;1.2258;-0.3688;-0.0560;-0.0352
0000805293;6.3087;3.4596;1.2354;-0.3877;-0.0675;-0.0372
0000805301;6.1746;3.4524;1.3503;-0.4058;-0.0626;-0.0318
0000805309;6.2106;3.4596;1.3743;-0.4255;-0.0629;-0.0336
0000805317;6.2441;3.4309;1.4413;-0.4417;-0.0751;-0.0362
0000805325;6.2489;3.2944;1.5347;-0.4554;-0.0849;-0.0378
0000805333;6.2584;3.2537;1.4293;-0.4788;-0.0809;-0.0320
0000805341;6.2082;3.2417;1.4317;-0.4988;-0.0826;-0.0261
0000805349;6.4643;3.5171;1.4940;-0.5219;-0.0874;-0.0280
0000805357;6.2920;3.4046;1.4653;-0.5461;-0.0961;-0.0309
0000805365;6.3590;3.5051;1.5012;-0.5712;-0.1027;-0.0348
0000805373;6.1579;3.4237;1.6041;-0.6017;-0.1007;-0.0330
0000805381;6.3063;3.5865;1.6041;-0.6356;-0.0957;-0.0325
0000805389;6.3662;3.6105;1.7071;-0.6651;-0.1065;-0.0333
0000805397;6.4500;3.5362;1.7621;-0.7000;-0.1045;-0.0317
0000805405;6.4596;3.4453;1.8052;-0.7384;-0.0987;-0.0313
0000805413;6.4332;3.4237;1.8842;-0.7667;-0.0971;-0.0386
0000805421;6.2944;3.0550;1.8866;-0.7973;-0.0950;-0.0342
0000805429;6.4691;3.0215;1.9201;-0.8175;-0.0917;-0.0382
0000805437;6.3470;2.8419;1.8507;-0.8391;-0.0710;-0.0316
0000805445;6.3375;2.7461;1.9082;-0.8640;-0.0791;-0.0345
0000805453;6.2704;2.6097;1.9752;-0.8856;-0.0773;-0.0277
0000805461;6.3255;2.3655;1.9800;-0.8948;-0.0818;-0.0321
0000805469;6.3710;2.3104;2.0087;-0.8893;-0.0923;-0.0268
0000805477;6.3135;2.2242;2.1332;-0.8915;-0.1069;-0.0269
0000805485;6.1770;2.0327;2.1548;-0.8795;-0.1212;-0.0226
0000805493;6.2728;1.9632;2.2721;-0.8656;-0.1506;-0.0220
0000805501;6.1531;1.7980;2.1763;-0.8411;-0.1804;-0.0260
0000805509;6.2537;1.9441;2.1739;-0.8212;-0.2052;-0.0245
0000805517;6.1124;1.8866;2.1045;-0.7955;-0.2378;-0.0330
0000805525;6.1387;1.9585;2.2194;-0.7682;-0.2639;-0.0465
0000805533;6.2417;2.1237;2.2936;-0.7497;-0.2734;-0.0534
0000805541;6.2680;2.3679;2.2673;-0.7372;-0.2817;-0.0612
0000805549;6.2513;2.5762;2.3439;-0.7225;-0.2975;-0.0783
0000805557;6.3662;2.8706;2.4684;-0.7225;-0.2883;-0.0857
0000805644;6.7636;2.0542;2.9473;-0.8551;-0.1564;0.0608
0000805651;6.4141;1.8627;3.0718;-0.8472;-0.1649;0.0642
0000805659;6.3734;1.6424;3.1532;-0.8392;-0.1643;0.0642
0000805667;6.4763;1.7526;3.3686;-0.8184;-0.1741;0.0560
0000805675;6.6822;1.7741;3.4788;-0.8063;-0.1740;0.0508
0000805683;6.6343;1.8172;3.4285;-0.7935;-0.1829;0.0384
0000805691;6.4715;1.8196;3.5482;-0.7871;-0.1791;0.0386
0000805699;6.7804;1.9992;3.5243;-0.7895;-0.1760;0.0273
0000805707;6.7852;2.0614;3.5937;-0.7829;-0.1581;0.0278
0000805715;6.7588;1.9010;3.6176;-0.7843;-0.1452;0.0226
0000805723;6.8354;2.1261;3.6966;-0.7789;-0.1354;0.0188
0000805731;6.6631;1.8411;3.6895;-0.7773;-0.1110;0.0217
0000805739;6.6248;1.5874;3.5386;-0.7757;-0.0847;0.0254
0000805747;6.8474;1.6783;3.7517;-0.7666;-0.0703;0.0240
0000805755;6.9073;1.6999;3.7062;-0.7574;-0.0517;0.0218
0000805763;6.8546;1.7621;3.6583;-0.7533;-0.0329;0.0392
0000805771;6.7062;1.6065;3.8595;-0.7544;-0.0135;0.0508
0000805779;6.5960;1.5203;3.8164;-0.7549;0.0021;0.0598
0000805787;6.8019;1.5443;3.9576;-0.7508;0.0156;0.0641
0000805795;6.7421;1.3910;3.8523;-0.7586;0.0314;0.0669
0000805803;6.6200;1.3001;3.8978;-0.7649;0.0400;0.0735
0000805811;6.5601;0.9098;3.8954;-0.7610;0.0542;0.0701
0000805819;6.6535;0.7398;3.9648;-0.7655;0.0715;0.0649
0000805827;6.5745;0.5578;4.0175;-0.7554;0.0750;0.0637
0000805835;6.4979;0.3160;4.1084;-0.7561;0.0922;0.0625
0000805843;6.5027;0.0718;4.0941;-0.7550;0.1003;0.0458
0000805851;6.4620;-0.1796;4.2234;-0.7488;0.1240;0.0422
0000805859;6.4739;-0.0431;4.1468;-0.7462;0.1398;0.0228
0000805867;6.6128;0.2346;4.2114;-0.7429;0.1540;0.0079
0000805875;6.6295;0.3567;4.2449;-0.7500;0.1689;0.0007
0000805883;6.7253;0.3352;4.2521;-0.7621;0.1911;-0.0185
0000805891;6.6702;0.2322;4.2353;-0.7729;0.2066;-0.0386
0000805899;6.7301;0.2658;4.2497;-0.7694;0.2213;-0.0410
0000805907;6.5194;0.1532;4.2090;-0.7666;0.2265;-0.0321
0000805915;6.4284;-0.0982;4.3766;-0.7730;0.2369;-0.0144
0000805923;6.5769;-0.0982;4.5633;-0.7634;0.2439;-0.0029
0000805931;6.5864;-0.0479;4.6448;-0.7398;0.2429;0.0033
0000805939;6.2680;-0.3472;4.6711;-0.7168;0.2511;0.0141
0000805947;6.2944;-0.3256;4.6615;-0.7141;0.2639;0.0103
0000805955;6.1339;-0.4262;4.4293;-0.7065;0.2681;-0.0019
0000805963;6.2393;-0.2729;4.2952;-0.6887;0.2693;-0.0224
0000805971;6.3303;-0.1532;4.2641;-0.6835;0.2774;-0.0292
0000805979;6.4021;-0.3448;4.3455;-0.7072;0.2887;-0.0372
0000805987;6.3829;-0.4166;4.4796;-0.7008;0.2927;-0.0521
0000805995;6.4739;-0.4717;4.6639;-0.6755;0.2968;-0.0420
0000806003;6.4524;-0.3926;4.8195;-0.6618;0.2950;-0.0437
0000806011;6.3901;-0.7853;4.9943;-0.6635;0.2972;-0.0232
0000806019;6.4165;-0.4597;5.0589;-0.6352;0.2934;-0.0100
0000806027;6.4117;-0.4094;4.9536;-0.6322;0.2787;-0.0135
0000806035;6.1028;-0.8715;4.8195;-0.6394;0.2694;-0.0246
0000806043;6.2752;-0.7015;4.6017;-0.6331;0.2710;-0.0453
0000806051;6.2704;-0.9050;4.5274;-0.6269;0.2807;-0.0814
0000806059;6.3135;-0.9720;4.6495;-0.6237;0.2790;-0.1132
0000806067;6.1004;-1.1013;4.8004;-0.5947;0.2705;-0.1514
0000806075;6.1818;-0.7973;4.8626;-0.5548;0.2722;-0.1593
0000806083;6.0358;-0.2466;4.8770;-0.5204;0.2703;-0.1494
0000806091;5.9735;-0.1197;4.8435;-0.5308;0.2622;-0.1316
0000806099;5.5569;-0.3017;4.8794;-0.5550;0.2386;-0.0874
0000806107;5.5186;-0.0862;4.9392;-0.5480;0.2072;-0.0377
0000806115;5.4636;-0.6201;4.9608;-0.5585;0.1744;0.0025
0000806123;5.5785;-0.6393;5.0757;-0.5444;0.1406;0.0274
0000806131;5.7964;-1.0630;5.1236;-0.5032;0.1188;0.0396
0000806139;5.7317;-1.1732;5.1356;-0.4572;0.1003;0.0328
0000806147;5.8227;-1.1947;5.3008;-0.4044;0.0857;0.0272
0000806155;5.8993;-1.2139;5.3798;-0.3667;0.0518;0.0212
0000806163;5.8155;-1.2785;5.3391;-0.3283;0.0258;0.0177
0000806171;5.7293;-0.9074;5.2984;-0.2793;-0.0121;-0.0007
0000806179;5.5689;-0.9098;5.3965;-0.2465;-0.0493;0.0197
0000806187;5.4971;-0.5602;5.4899;-0.2036;-0.0934;0.0278
0000806195;5.4348;-0.3950;5.3702;-0.1815;-0.1274;0.0384
0000806203;5.4803;-0.2610;5.4971;-0.1936;-0.1652;0.0496
0000806211;5.2505;-0.3304;5.6168;-0.1708;-0.1916;0.0558
0000806219;5.2912;-0.5363;5.6431;-0.1386;-0.2157;0.0549
0000806310;6.2704;0.2203;5.9472;0.1543;-0.4439;0.0959
0000806318;6.2752;0.3879;6.0501;0.1895;-0.4490;0.0610
0000806326;6.2058;0.2634;5.7676;0.1889;-0.4517;0.0306
0000806334;6.0430;0.3519;6.2273;0.2173;-0.4663;0.0061
0000806342;6.0166;0.5004;6.3494;0.2603;-0.4879;-0.0081
0000806350;5.9855;0.5267;6.4093;0.3172;-0.4930;-0.0036
0000806358;6.1244;0.6393;6.0071;0.3401;-0.4988;0.0232
0000806366;6.1244;0.7254;5.6551;0.3681;-0.5144;0.0353
0000806374;6.6535;0.9385;5.6934;0.3477;-0.5303;0.0569
0000806382;6.9073;1.1253;5.4875;0.3383;-0.5525;0.0509
0000806390;7.2065;0.9888;5.5593;0.3291;-0.5453;0.0325
0000806398;7.5202;1.0104;5.6743;0.3251;-0.5424;0.0053
0000806406;7.6830;0.9912;5.9328;0.3439;-0.5303;-0.0396
0000806414;7.4627;0.7638;6.0238;0.3722;-0.5016;-0.0762
0000806422;7.4364;1.2210;5.9640;0.4060;-0.4752;-0.1254
0000806430;7.1778;0.9936;6.1220;0.4114;-0.4574;-0.1424
0000806438;7.0318;0.9744;6.5098;0.4381;-0.4351;-0.1564
0000806446;6.6487;0.7590;6.7253;0.4878;-0.4246;-0.1559
0000806454;6.8091;0.5674;6.9599;0.5405;-0.4199;-0.1471
0000806462;6.8881;0.2370;6.8522;0.6041;-0.4277;-0.1358
0000806470;7.1946;-0.0646;7.0126;0.6658;-0.4277;-0.1282
0000806478;7.5489;-0.2179;6.2920;0.7890;-0.4073;-0.1406
0000806486;7.6734;-0.6536;5.4253;0.9132;-0.3657;-0.1931
0000806494;7.3167;-0.2634;4.8937;1.0059;-0.3230;-0.2593
0000806502;6.6702;0.1604;4.5729;1.0890;-0.3268;-0.2718
0000806510;5.9592;0.5650;4.6567;1.1612;-0.3616;-0.2471
0000806518;5.1547;1.0511;4.5059;1.1964;-0.3852;-0.1962
0000806526;5.0925;2.4181;4.8578;1.2369;-0.4139;-0.1178
0000806534;5.4947;3.1675;4.6304;1.1576;-0.4558;-0.0426
0000806542;6.1555;3.1819;4.6208;1.0341;-0.4679;0.0035
0000806550;7.2065;3.3854;4.9728;0.9603;-0.4631;0.0141
0000806558;7.8889;3.4453;5.5498;0.9225;-0.4218;-0.0136
0000806566;8.6048;3.0765;5.7724;0.8958;-0.3700;-0.0690
0000806574;9.0309;2.7054;6.1507;0.9104;-0.2984;-0.1515
0000806582;8.8681;2.1763;6.1770;0.9701;-0.2164;-0.2138
0000806590;8.8585;1.4629;5.4396;1.0496;-0.1351;-0.2610
0000806598;8.5569;0.7542;4.5203;1.1519;-0.0719;-0.2992
0000806606;8.1116;0.7590;3.8762;1.2169;-0.0229;-0.3361
0000806614;7.7452;0.8643;3.4572;1.2640;0.0073;-0.3529
0000806622;7.2592;0.8571;3.7757;1.3194;0.0123;-0.3718
0000806630;6.6367;1.7789;4.4604;1.4534;0.0200;-0.4319
0000806638;6.2560;3.2226;4.3838;1.5697;0.0189;-0.4221
0000806646;6.0980;4.1132;4.3886;1.5188;0.0029;-0.4048
0000806654;6.3087;4.3072;4.5801;1.4294;-0.0119;-0.3936
0000806662;6.5529;3.8092;4.7860;1.3863;-0.0081;-0.3776
0000806670;6.9097;3.3806;4.8387;1.4005;0.0029;-0.3714
0000806678;7.2377;3.2130;4.8100;1.4357;0.0155;-0.3698
0000806686;7.1922;3.3806;4.7429;1.4957;0.0277;-0.3702
0000806694;7.2927;2.9784;4.2569;1.5290;0.0320;-0.3898
0000806702;7.4053;2.8204;3.9002;1.5483;0.0397;-0.4121
0000806710;7.3646;2.6959;3.7757;1.5885;0.0452;-0.4410
0000806718;7.5513;2.8419;3.6272;1.6525;0.0750;-0.4632
0000806726;7.4077;3.3112;3.6368;1.7078;0.0981;-0.4932
0000806734;7.4699;3.8235;3.4381;1.6964;0.1300;-0.5093
0000806742;7.5585;4.4580;3.4979;1.6975;0.1659;-0.5177
0000806750;7.5178;4.9440;3.2561;1.7197;0.1962;-0.5201
0000806758;7.8410;5.4684;3.1627;1.6679;0.2336;-0.5115
0000806766;7.9679;5.9304;3.0550;1.6149;0.2753;-0.5057
0000806774;8.4108;6.6511;3.3040;1.5489;0.3227;-0.5184
0000806782;8.2935;6.8642;3.3615;1.4633;0.3770;-0.5189
0000806790;8.1547;7.0102;3.3591;1.3908;0.4185;-0.5285
0000806799;7.9200;7.0916;3.3854;1.3187;0.4642;-0.5145
0000806807;7.4915;7.0868;3.3279;1.2830;0.4900;-0.4904
0000806816;7.6758;7.1706;3.0837;1.2244;0.5135;-0.4747
0000806825;7.7285;7.5178;2.8252;1.1682;0.5464;-0.4656
0000806834;7.6184;8.3414;2.7054;1.0692;0.5907;-0.4541
0000806843;7.3646;8.7724;2.8204;0.9309;0.6308;-0.4447
0000806852;6.5242;9.1746;2.8467;0.7849;0.6640;-0.4021
0000806861;5.9640;8.8370;2.7725;0.6286;0.6662;-0.3504
0000806870;5.3056;8.4659;2.5809;0.5228;0.6289;-0.2919
0000806879;4.8937;7.6136;2.2673;0.4090;0.5866;-0.2385
0000806888;4.9321;6.8546;2.0758;0.3099;0.5169;-0.2142
0000806897;5.0949;6.1220;1.8004;0.2164;0.4599;-0.2009
0000806906;5.3199;5.1547;1.6161;0.1290;0.4189;-0.2021
0000806992;5.4133;1.7885;0.7805;0.0723;0.2823;-0.1775
0000807001;5.5522;2.1548;0.7063;0.1112;0.2854;-0.1789
0000807010;5.4947;2.0207;0.6201;0.1086;0.2830;-0.1881
0000807019;5.3367;2.0375;0.5483;0.1278;0.2850;-0.1915
0000807028;5.2026;1.7430;0.6608;0.1463;0.2758;-0.1896
0000807037;4.9153;1.6520;0.6153;0.1851;0.2649;-0.1904
0000807046;4.5442;1.8411;0.5028;0.2086;0.2563;-0.1761
0000807055;4.5657;1.7502;0.5674;0.2353;0.2301;-0.1720
0000807064;4.5155;1.9776;0.6081;0.2582;0.2100;-0.1528
0000807073;4.8291;2.5426;-0.2897;0.3007;0.1860;-0.1303
0000807082;4.4053;2.2936;0.7733;0.3242;0.1486;-0.1207
0000807091;4.5203;2.3128;0.4621;0.3539;0.1392;-0.1211
0000807100;4.1899;2.7701;0.2131;0.3768;0.1063;-0.0899
0000807109;3.9576;3.0358;0.3136;0.3705;0.0725;-0.0565
0000807118;3.7828;3.1029;0.2825;0.3786;0.0238;-0.0123
0000807127;3.6847;3.0837;0.4669;0.3897;-0.0353;0.0244
0000807136;3.4572;3.1101;0.6728;0.4306;-0.1019;0.0761
0000807145;3.3088;2.8850;0.5962;0.4523;-0.1591;0.1355
0000807154;3.2417;2.5474;0.9601;0.4802;-0.2261;0.1579
0000807163;3.5051;2.3559;0.9816;0.5155;-0.2797;0.1723
0000807172;3.9792;2.7318;0.5842;0.5657;-0.3010;0.1520
0000807181;4.1084;2.8539;0.4741;0.5656;-0.2964;0.1183
0000807190;4.1252;2.9784;0.2011;0.5798;-0.3034;0.0754
0000807199;4.1013;3.1029;0.2394;0.5596;-0.3111;0.0272
0000807208;4.2162;3.2130;0.2155;0.5530;-0.3375;-0.0111
0000807217;4.0270;3.0837;0.2610;0.5482;-0.3621;-0.0484
0000807226;3.6129;2.9042;0.4429;0.5256;-0.3712;-0.0797
0000807235;3.6583;2.9401;0.2466;0.5241;-0.3849;-0.1186
0000807244;3.8092;3.0622;0.3136;0.5081;-0.3905;-0.1482
0000807253;3.8690;3.0861;0.1891;0.4968;-0.3993;-0.1876
0000807262;3.9504;2.9951;0.2442;0.4975;-0.4076;-0.2144
0000807271;4.2665;3.0502;0.1891;0.4986;-0.4302;-0.2369
0000807280;4.6017;3.1532;0.3304;0.4911;-0.4297;-0.2410
0000807289;4.5633;2.9784;0.1987;0.5104;-0.4322;-0.2513
0000807298;4.5179;2.9473;0.2394;0.5168;-0.4246;-0.2372
0000807307;4.3574;2.9401;0.2155;0.5243;-0.4211;-0.2201
0000807316;4.3359;3.0909;0.2993;0.5313;-0.4199;-0.1885
0000807325;4.1587;3.1675;0.1867;0.5585;-0.4334;-0.1577
0000807334;4.1875;3.3447;0.2849;0.5598;-0.4283;-0.1183
0000807343;4.1563;3.5985;0.2107;0.5829;-0.4453;-0.1053
0000807352;4.5370;4.0462;0.2227;0.5918;-0.4467;-0.0929
0000807361;4.4987;4.0654;0.0958;0.5776;-0.4345;-0.0745
0000807370;4.5777;4.0845;0.0311;0.5682;-0.4302;-0.0809
0000807379;5.2098;4.2449;-0.2729;0.5377;-0.3972;-0.0697
0000807388;5.3223;3.9145;-0.4501;0.5145;-0.3596;-0.0636
0000807397;5.3343;3.5674;-0.6105;0.4975;-0.3164;-0.0546
0000807406;5.5545;3.4285;-0.7518;0.4747;-0.2641;-0.0376
0000807415;5.5785;3.1029;-0.8595;0.4655;-0.2301;-0.0406
0000807424;5.9831;3.3639;-0.8571;0.4576;-0.1908;-0.0293
0000807433;5.8466;3.0933;-0.9242;0.4671;-0.1499;-0.0313
0000807442;6.1004;3.2896;-1.0726;0.4566;-0.1074;-0.0322
0000807451;6.0837;3.0765;-1.0654;0.4302;-0.0534;-0.0245
0000807460;6.1770;2.8611;-1.0463;0.4108;0.0077;-0.0257
0000807469;6.3087;2.7438;-1.1013;0.4013;0.0710;-0.0296
0000807478;6.1938;2.4660;-1.1037;0.4120;0.1271;-0.0353
0000807487;6.1387;2.3535;-1.0965;0.4138;0.1982;-0.0218
0000807496;5.9113;2.2314;-1.2330;0.4358;0.2669;-0.0147
0000807505;6.0932;2.3200;-1.2402;0.4537;0.3365;0.0053
0000807514;5.9041;2.2960;-1.4102;0.4863;0.4068;0.0155
0000807523;6.2201;2.6121;-1.4174;0.4970;0.4762;0.0207
0000807532;6.0645;2.8084;-1.6328;0.5051;0.5461;-0.0008
0000807541;6.1699;3.0718;-1.7334;0.5029;0.6011;-0.0065
0000807550;5.9927;3.1292;-1.7741;0.4974;0.6354;-0.0177
0000807559;5.9903;3.4069;-1.8292;0.4986;0.6535;-0.0342
0000807568;5.7844;3.5147;-1.9154;0.4900;0.6691;-0.0332
0000807577;5.7461;3.5889;-2.1428;0.4958;0.6792;-0.0336
0000807586;5.7557;3.8355;-1.9321;0.4856;0.6805;-0.0215
0000807595;5.4875;3.5817;-1.9920;0.4963;0.6598;-0.0208
0000807604;5.4205;3.5147;-2.0662;0.4980;0.6463;-0.0085
0000807613;5.5115;3.6176;-2.1787;0.5172;0.6211;-0.0032
0000807622;5.2744;3.5458;-2.0590;0.5247;0.6094;0.0043
0000807631;5.2433;3.6536;-2.3032;0.5185;0.5921;0.0107
0000807640;5.0973;3.5530;-2.3176;0.4718;0.5887;0.0240
0000807783;3.6488;3.6368;-3.1651;0.3525;0.1196;0.0838
0000807792;3.8451;3.4764;-3.1460;0.3267;0.0458;0.1059
0000807801;4.2306;3.5075;-3.1101;0.3086;-0.0116;0.1303
0000807810;4.4460;3.2585;-3.0861;0.2912;-0.0494;0.1426
0000807819;4.6376;2.7581;-2.5139;0.2813;-0.0923;0.1537
0000807828;4.8937;2.9401;-2.9473;0.2805;-0.1070;0.1560
0000807837;5.1451;2.7725;-2.8539;0.2940;-0.1210;0.1484
0000807846;5.4157;3.1029;-2.8659;0.3016;-0.1147;0.1627
0000807855;5.2720;2.8347;-2.8635;0.3066;-0.1180;0.1705
0000807864;5.2098;3.0574;-2.8898;0.3204;-0.1227;0.1821
0000807873;5.4013;3.3878;-2.8012;0.3040;-0.1190;0.2156
0000807882;5.3199;3.2609;-2.8347;0.2809;-0.1272;0.2269
0000807891;5.1475;3.3040;-2.7246;0.2799;-0.1460;0.2368
0000807900;5.2696;3.3495;-2.9113;0.2549;-0.1661;0.2473
0000807909;5.0996;3.1795;-2.7701;0.2357;-0.1852;0.2525
0000807918;5.1930;3.1292;-2.7342;0.2173;-0.2201;0.2475
0000807927;5.2816;3.1316;-2.8730;0.1997;-0.2395;0.2463
0000807936;5.2098;2.8922;-2.8946;0.1928;-0.2591;0.2390
0000807945;5.6264;2.9137;-3.0071;0.1865;-0.2747;0.2314
0000807954;5.6240;2.8778;-2.9712;0.1899;-0.2872;0.2198
0000807963;5.9209;2.7198;-2.9951;0.1851;-0.2842;0.2094
0000807972;6.0908;2.6935;-3.0670;0.1832;-0.2727;0.2036
0000807981;6.2201;2.7414;-3.0526;0.1867;-0.2574;0.2004
0000807990;6.4236;2.8204;-3.2609;0.1925;-0.2451;0.1895
0000807999;6.3207;2.6169;-3.2777;0.1855;-0.2290;0.1889
0000808008;6.2944;2.5474;-3.3351;0.1801;-0.2269;0.1876
0000808017;6.0789;2.7078;-3.3519;0.1881;-0.2156;0.1884
0000808026;5.9951;2.7821;-3.4740;0.1793;-0.2049;0.1876
0000808035;5.7940;2.8323;-3.4046;0.1805;-0.2044;0.1808
0000808044;5.8586;2.9712;-3.3902;0.1595;-0.1932;0.1741
0000808053;6.0358;3.0239;-3.3950;0.1487;-0.1956;0.1605
0000808062;6.0837;3.0095;-3.3208;0.1423;-0.1796;0.1507
0000808071;6.1794;2.9377;-3.2848;0.1372;-0.1713;0.1375
0000808080;6.0190;2.7725;-3.2992;0.1262;-0.1624;0.1336
0000808089;6.2297;2.5618;-3.3255;0.1183;-0.1520;0.1195
0000808098;6.1914;2.9257;-3.4237;0.1216;-0.1318;0.1190
0000808107;6.2680;2.8683;-3.3734;0.1112;-0.1191;0.1102
0000808116;6.3422;3.0119;-3.4524;0.0997;-0.0879;0.1030
0000808125;6.2560;2.8946;-3.4812;0.0917;-0.0658;0.0962
0000808134;6.3901;3.1532;-3.4261;0.0918;-0.0442;0.0843
0000808143;6.3183;2.9305;-3.2848;0.0923;-0.0274;0.0762
0000808152;6.0837;2.8754;-3.2250;0.0789;-0.0157;0.0699
0000808161;6.3135;3.0861;-3.3926;0.0685;-0.0157;0.0653
0000808170;6.1579;3.0071;-3.5219;0.0594;-0.0152;0.0572
0000808179;6.2201;2.8946;-3.4548;0.0450;-0.0072;0.0536
0000808188;6.1986;3.0382;-3.4907;0.0444;-0.0195;0.0524
0000808197;5.7485;2.8826;-3.4907;0.0337;-0.0230;0.0582
0000808206;5.6360;2.7892;-3.3758;0.0298;-0.0292;0.0629
0000808215;5.5043;2.7150;-3.1963;0.0361;-0.0486;0.0690
0000808224;5.4636;2.6217;-3.1627;0.0357;-0.0694;0.0751
0000808233;5.7557;2.5570;-3.1627;0.0286;-0.0847;0.0862
0000808242;5.5905;2.3631;-3.3064;0.0400;-0.1047;0.0865
0000808251;5.5162;2.4924;-3.5338;0.0405;-0.1098;0.0842
0000808260;5.6838;2.6217;-3.5434;0.0365;-0.1230;0.0914
0000808269;5.7245;2.6456;-3.4740;0.0425;-0.1319;0.0894
0000808278;5.7485;2.6624;-3.4931;0.0345;-0.1286;0.1003
0000808287;5.7221;2.8467;-3.4788;0.0312;-0.1326;0.0966
0000808296;5.8059;2.7940;-3.5386;0.0352;-0.1319;0.0971
0000808305;5.8012;2.7940;-3.5578;0.0345;-0.1240;0.0931
0000808314;5.6719;2.8180;-3.7661;0.0364;-0.1223;0.0942
0000808323;5.6216;2.9999;-3.8475;0.0125;-0.1123;0.0933
0000808332;5.4827;2.8706;-3.9792;-0.0027;-0.1188;0.0882
0000808341;5.6168;3.0646;-4.0654;-0.0384;-0.1222;0.0958
0000808350;5.5043;3.0047;-3.6631;-0.0366;-0.1300;0.0993
0000808359;5.6192;2.9999;-4.0773;-0.0628;-0.1539;0.0931
0000808368;5.4899;3.0718;-4.0342;-0.0797;-0.1669;0.1022
0000808377;5.3822;3.1436;-3.8954;-0.0978;-0.1980;0.1099
0000808386;5.5881;2.8204;-3.9816;-0.1268;-0.2294;0.1037
0000808395;5.7628;2.7581;-4.1108;-0.1467;-0.2449;0.1074
0000808404;5.7964;2.7509;-4.0031;-0.1479;-0.2650;0.1042
0000808413;5.8466;3.0095;-3.9792;-0.1732;-0.2757;0.1061
0000808422;6.0501;2.8491;-3.7733;-0.2038;-0.2872;0.1170
0000808431;6.2776;2.8539;-3.7517;-0.2050;-0.2996;0.1238
0000808519;6.4452;2.9161;-3.3519;-0.3436;0.1282;0.0345
0000808528;5.9879;2.9257;-3.1723;-0.3553;0.1204;0.0376
0000808537;5.5258;2.8706;-3.2082;-0.3603;0.0831;0.0412
0000808546;5.3415;2.9832;-3.3854;-0.3788;0.0488;0.0548
0000808555;5.2218;2.8060;-3.2777;-0.3973;-0.0012;0.0598
0000808564;5.1427;2.9401;-3.1340;-0.4018;-0.0424;0.0789
0000808573;5.4348;3.1388;-3.1627;-0.4086;-0.0814;0.0814
0000808582;5.6767;3.2753;-3.2322;-0.4211;-0.1178;0.0921
0000808591;6.0190;3.1699;-2.9736;-0.4249;-0.1388;0.0911
0000808600;6.0358;3.0789;-2.7725;-0.4278;-0.1374;0.0899
0000808609;6.2321;3.2226;-3.0358;-0.4353;-0.1248;0.0870
0000808618;6.3614;3.0502;-3.0239;-0.4487;-0.1151;0.0813
0000808627;6.6104;3.1843;-3.1173;-0.4603;-0.0986;0.0739
0000808636;6.4476;2.6911;-2.9281;-0.4926;-0.0633;0.0734
0000808645;6.7133;3.0694;-2.9975;-0.4823;-0.0528;0.0560
0000808654;6.6200;2.9209;-2.9736;-0.4975;-0.0111;0.0564
0000808663;6.5841;2.7988;-2.7509;-0.4795;0.0100;0.0396
0000808672;6.3542;2.7845;-2.5762;-0.4707;0.0389;0.0358
0000808681;6.5242;2.8276;-2.6695;-0.4668;0.0493;0.0175
0000808690;6.4787;2.9137;-2.7821;-0.4612;0.0730;0.0264
0000808699;6.6104;3.1340;-2.5762;-0.4628;0.0819;0.0143
0000808708;6.4931;3.1364;-2.5714;-0.4814;0.0834;0.0091
0000808717;6.6990;3.2346;-2.5211;-0.4996;0.0958;0.0151
0000808726;6.6942;3.1747;-2.4636;-0.5043;0.1031;0.0156
0000808735;6.8331;3.4668;-2.3343;-0.5080;0.1042;0.0334
0000808744;6.7995;3.3710;-2.1715;-0.5211;0.1026;0.0314
0000808753;6.5841;3.3255;-2.0135;-0.5241;0.0994;0.0333
0000808762;6.6750;3.3495;-1.9417;-0.5348;0.1103;0.0348
0000808771;6.7229;3.5314;-1.8842;-0.5411;0.1106;0.0203
0000808780;6.6918;3.3543;-1.7549;-0.5497;0.1140;0.0168
0000808789;6.5314;3.2585;-1.7262;-0.5528;0.1135;0.0045
0000808798;6.6846;3.3639;-1.7095;-0.5706;0.1218;0.0037
0000808807;6.4404;3.2106;-1.5634;-0.5745;0.1126;-0.0063
0000808816;6.5003;2.9544;-1.5227;-0.5848;0.1099;-0.0095
0000808825;6.2130;2.9736;-1.5443;-0.5624;0.1025;-0.0036
0000808834;6.2920;3.1508;-1.4198;-0.5720;0.0774;-0.0139
0000808843;6.2704;3.0789;-1.3982;-0.5721;0.0646;-0.0029
0000808852;6.0023;3.1173;-1.3982;-0.5644;0.0408;-0.0056
0000808861;5.7940;2.8874;-1.3144;-0.5538;0.0234;0.0012
0000808870;5.9568;2.9736;-1.2546;-0.5441;-0.0085;-0.0112
0000808879;5.8993;2.8994;-1.1468;-0.5352;-0.0226;-0.0136
0000808888;6.1028;2.9688;-1.0846;-0.5233;-0.0348;-0.0240
0000808897;6.0645;2.9305;-1.1444;-0.5252;-0.0533;-0.0348
0000808906;6.2058;3.1029;-0.9290;-0.5253;-0.0602;-0.0462
0000808915;6.1794;2.7821;-0.9074;-0.5199;-0.0548;-0.0505
0000808924;6.3662;2.8898;-0.8236;-0.5123;-0.0525;-0.0502
0000808933;6.5027;2.8228;-1.0487;-0.4971;-0.0497;-0.0574
0000808942;6.3351;2.8730;-0.9673;-0.4904;-0.0354;-0.0412
0000808951;6.4811;2.9760;-1.0056;-0.4738;-0.0334;-0.0481
0000808960;6.2393;2.9257;-1.0439;-0.4598;-0.0197;-0.0353
0000808969;6.3015;3.2154;-1.0271;-0.4526;-0.0172;-0.0318
0000808978;6.2321;3.3998;-1.0750;-0.4511;-0.0101;-0.0168
0000808987;6.0908;3.3064;-1.0008;-0.4578;-0.0149;-0.0135
0000808996;6.0166;3.3351;-1.0080;-0.4578;-0.0195;-0.0091
0000809005;5.9209;3.4117;-0.8667;-0.4748;-0.0169;-0.0001
0000809014;5.9807;3.4740;-0.9912;-0.4760;-0.0317;-0.0059
0000809023;6.1004;3.3208;-0.8547;-0.4887;-0.0326;0.0036
0000809032;6.0813;3.3327;-0.7422;-0.4976;-0.0389;0.0077
0000809041;6.1531;3.3064;-0.8356;-0.4991;-0.0400;0.0125
0000809050;6.1794;3.1603;-0.8715;-0.5025;-0.0385;0.0199
0000809059;6.0741;3.0837;-0.7590;-0.5029;-0.0428;0.0204
0000809068;6.3063;3.2346;-0.6153;-0.5059;-0.0376;0.0300
0000809077;6.3039;3.0646;-0.4214;-0.4978;-0.0397;0.0264
0000809086;6.1459;3.0622;-0.3807;-0.5019;-0.0302;0.0293
0000809095;6.3877;3.1651;-0.3136;-0.5002;-0.0225;0.0297
0000809104;6.3901;3.0789;-0.3280;-0.4926;-0.0222;0.0296
0000809113;6.4045;3.0143;-0.2179;-0.4870;-0.0193;0.0244
0000809122;6.3901;2.9928;-0.1724;-0.4828;-0.0021;0.0341
0000809131;6.5505;3.0502;-0.1269;-0.4722;0.0032;0.0349
0000809140;6.4308;3.0335;-0.1317;-0.4630;-0.0005;0.0282
0000809149;6.5266;2.9449;-0.1987;-0.4611;0.0101;0.0348
0000809158;6.3997;2.9928;-0.0670;-0.4541;0.0065;0.0332
0000809246;6.1699;2.8635;0.4980;-0.3388;-0.1069;-0.0176
0000809255;6.2848;2.8299;0.6800;-0.3234;-0.1179;-0.0278
0000809264;6.4667;2.8347;0.5986;-0.3110;-0.1134;-0.0297
0000809273;6.4715;2.9329;0.5962;-0.3026;-0.1100;-0.0350
0000809282;6.5027;2.9401;0.6033;-0.2946;-0.1096;-0.0361
0000809291;6.5673;2.8659;0.7254;-0.2899;-0.0989;-0.0333
0000809300;6.5457;2.9305;0.7470;-0.2850;-0.0870;-0.0310
0000809309;6.5553;2.9999;0.7446;-0.2673;-0.0822;-0.0325
0000809318;6.5553;2.7581;0.7709;-0.2582;-0.0685;-0.0266
0000809327;6.5170;2.7988;0.8763;-0.2413;-0.0681;-0.0281
0000809336;6.5960;2.7821;0.8715;-0.2220;-0.0548;-0.0317
0000809345;6.4955;2.8252;0.8619;-0.2056;-0.0412;-0.0232
0000809354;6.4236;2.7366;0.9505;-0.1831;-0.0473;-0.0362
0000809363;6.3351;2.7366;0.9529;-0.1671;-0.0377;-0.0294
0000809372;6.4404;2.8395;0.9409;-0.1474;-0.0393;-0.0393
0000809381;6.3686;2.6839;1.0080;-0.1310;-0.0324;-0.0362
0000809390;6.4284;2.7581;1.0151;-0.1099;-0.0369;-0.0426
0000809399;6.3734;2.7509;0.9290;-0.0863;-0.0374;-0.0380
0000809408;6.4907;2.8515;0.9266;-0.0787;-0.0276;-0.0377
0000809417;6.5888;2.9066;0.9505;-0.0545;-0.0297;-0.0373
0000809426;6.6487;2.9760;0.7709;-0.0548;-0.0233;-0.0312
0000809435;6.3614;2.9042;0.8404;-0.0413;-0.0237;-0.0341
0000809444;6.6032;3.1077;0.7494;-0.0384;-0.0196;-0.0388
0000809453;6.3710;3.1891;0.7614;-0.0374;-0.0153;-0.0297
0000809462;6.2632;3.0574;0.8116;-0.0358;-0.0140;-0.0316
0000809471;6.3614;3.2417;0.7494;-0.0349;-0.0161;-0.0350
0000809480;6.2345;3.2944;0.7494;-0.0414;-0.0141;-0.0288
0000809489;6.3614;3.1484;0.6656;-0.0325;-0.0258;-0.0366
0000809498;6.3542;3.2106;0.6632;-0.0293;-0.0225;-0.0289
0000809507;6.2632;3.1077;0.6416;-0.0280;-0.0264;-0.0302
0000809516;6.4284;3.1699;0.5842;-0.0180;-0.0336;-0.0313
0000809525;6.1723;3.0263;0.5986;-0.0177;-0.0272;-0.0277
0000809534;6.2369;3.0478;0.5483;-0.0080;-0.0286;-0.0306
0000809543;6.4524;3.2346;0.4788;-0.0103;-0.0257;-0.0181
0000809552;6.2920;3.0550;0.5243;-0.0085;-0.0242;-0.0224
0000809561;6.3997;3.2609;0.4884;-0.0096;-0.0222;-0.0084
0000809570;6.2297;3.1891;0.5794;-0.0057;-0.0262;-0.0137
0000809579;6.1579;3.0861;0.5555;-0.0049;-0.0236;-0.0079
0000809588;6.4524;3.2034;0.6393;-0.0065;-0.0228;-0.0080
0000809597;6.3782;3.1651;0.6871;0.0048;-0.0328;-0.0093
0000809606;6.3398;3.0694;0.6249;0.0028;-0.0256;-0.0045
0000809615;6.2608;3.1244;0.6249;0.0143;-0.0349;-0.0128
0000809624;6.3303;3.0861;0.6632;0.0137;-0.0302;-0.0023
0000809633;6.3590;3.1244;0.6321;0.0143;-0.0344;-0.0113
0000809642;6.2800;3.1173;0.6464;0.0145;-0.0354;-0.0077
0000809651;6.2153;3.0119;0.6249;0.0147;-0.0358;-0.0029
0000809660;6.5960;3.4524;0.5722;0.0093;-0.0412;-0.0019
0000809669;6.3614;3.1603;0.5938;0.0051;-0.0370;-0.0049
0000809678;6.3446;3.2705;0.6512;-0.0005;-0.0390;-0.0013
0000809687;6.3255;3.2226;0.7015;0.0056;-0.0402;-0.0055
0000809696;6.3566;3.1460;0.6488;0.0044;-0.0408;-0.0060
0000809705;6.4979;3.3375;0.5866;0.0033;-0.0409;-0.0071
0000809714;6.4524;3.1268;0.5171;0.0100;-0.0490;-0.0139
0000809723;6.4069;3.2154;0.6057;0.0140;-0.0474;-0.0100
0000809732;6.3351;3.1005;0.6273;0.0225;-0.0553;-0.0160
0000809741;6.3303;3.2106;0.5267;0.0184;-0.0449;-0.0119
0000809750;6.4093;3.2465;0.5483;0.0119;-0.0506;-0.0123
0000809759;6.3662;3.2034;0.4621;0.0107;-0.0513;-0.0128
0000809768;6.3782;3.1843;0.5483;0.0116;-0.0592;-0.0195
0000809777;6.4428;3.2417;0.5100;0.0025;-0.0513;-0.0128
0000809786;6.3949;3.1436;0.5411;0.0105;-0.0542;-0.0156
0000809795;6.4524;3.1101;0.4310;0.0140;-0.0458;-0.0159
0000809804;6.4500;3.0239;0.4717;0.0120;-0.0417;-0.0197
0000809813;6.3279;3.1125;0.5100;0.0179;-0.0370;-0.0189
0000809822;6.5218;3.1436;0.5531;0.0197;-0.0285;-0.0156
0000809831;6.5649;3.1915;0.4884;0.0248;-0.0320;-0.0173
0000809840;6.4715;3.1771;0.5243;0.0209;-0.0179;-0.0120
0000809849;6.5098;3.1867;0.5459;0.0244;-0.0155;-0.0188
0000809858;6.5673;3.3734;0.4956;0.0225;-0.0111;-0.0163
0000809867;6.4572;3.2992;0.5339;0.0212;-0.0108;-0.0177
0000809876;6.2680;3.1029;0.5267;0.0141;-0.0075;-0.0139
0000809885;6.4380;3.2561;0.4262;0.0100;-0.0107;-0.0200
0000809972;6.2130;3.2250;0.5555;0.0032;-0.0362;-0.0084
0000809981;6.2058;3.1220;0.5507;0.0071;-0.0464;-0.0133
0000809990;6.2441;3.0742;0.4980;0.0069;-0.0497;-0.0184
0000809999;6.1579;2.9975;0.5986;0.0048;-0.0445;-0.0148
0000810008;6.1196;3.1580;0.5962;0.0081;-0.0608;-0.0164
0000810017;6.1507;3.0670;0.5722;0.0044;-0.0492;-0.0112
0000810026;6.2177;3.0191;0.5602;0.0039;-0.0553;-0.0088
0000810035;6.2130;2.9760;0.5124;0.0148;-0.0621;-0.0147
0000810044;6.2584;3.0742;0.5866;0.0080;-0.0524;-0.0065
0000810053;6.3949;3.0933;0.5818;0.0168;-0.0570;-0.0125
0000810062;6.3183;3.1053;0.4932;0.0116;-0.0484;-0.0064
0000810071;6.4572;3.1723;0.5267;0.0152;-0.0554;-0.0129
0000810080;6.3662;3.1412;0.4669;0.0104;-0.0496;-0.0165
0000810089;6.3327;3.1412;0.4812;0.0099;-0.0408;-0.0092
0000810098;6.4500;3.2202;0.4334;0.0027;-0.0365;-0.0096
0000810107;6.4332;3.1987;0.4717;0.0092;-0.0381;-0.0156
0000810116;6.3638;3.1436;0.4262;0.0045;-0.0282;-0.0104
0000810125;6.4596;3.2058;0.5578;0.0080;-0.0280;-0.0116
0000810134;6.5242;3.2034;0.4477;0.0048;-0.0246;-0.0156
0000810143;6.3303;3.1699;0.4549;0.0056;-0.0229;-0.0148
0000810152;6.3997;3.1436;0.3831;-0.0011;-0.0175;-0.0139
0000810161;6.2824;3.0454;0.4525;-0.0009;-0.0203;-0.0124
0000810170;6.3063;3.1532;0.4741;0.0009;-0.0280;-0.0171
0000810179;6.3375;3.1077;0.4262;-0.0009;-0.0252;-0.0183
0000810188;6.1962;3.0909;0.4812;-0.0039;-0.0260;-0.0148
0000810197;6.4332;3.1603;0.4764;-0.0068;-0.0288;-0.0207
0000810206;6.3805;3.2729;0.4118;-0.0117;-0.0242;-0.0165
0000810215;6.3279;3.2729;0.4357;-0.0120;-0.0254;-0.0175
0000810224;6.2776;3.1388;0.4190;-0.0133;-0.0258;-0.0191
0000810233;6.4739;3.2609;0.4166;-0.0151;-0.0301;-0.0156
0000810242;6.4572;3.1436;0.4884;-0.0084;-0.0328;-0.0184
0000810251;6.5122;3.2082;0.4669;-0.0159;-0.0296;-0.0151
0000810260;6.5481;3.2394;0.5100;-0.0109;-0.0381;-0.0163
0000810269;6.2584;2.9137;0.5435;-0.0152;-0.0301;-0.0120
0000810278;6.2608;3.2058;0.4812;-0.0128;-0.0368;-0.0181
0000810287;6.3422;3.2010;0.4214;-0.0117;-0.0345;-0.0116
0000810296;6.3853;3.2465;0.5076;-0.0156;-0.0329;-0.0149
0000810305;6.3231;3.2154;0.5052;-0.0152;-0.0377;-0.0156
0000810314;6.4236;3.3016;0.4741;-0.0175;-0.0336;-0.0112
0000810323;6.4476;3.2274;0.4669;-0.0169;-0.0349;-0.0092
0000810332;6.4021;3.3016;0.4645;-0.0155;-0.0373;-0.0157
0000810341;6.1770;3.1244;0.4477;-0.0136;-0.0372;-0.0124
0000810350;6.3997;3.0885;0.4334;-0.0171;-0.0353;-0.0080
0000810359;6.3710;3.1244;0.4741;-0.0131;-0.0358;-0.0097
0000810368;6.3231;3.1939;0.5650;-0.0160;-0.0328;-0.0072
0000810377;6.4212;3.0550;0.4070;-0.0139;-0.0373;-0.0140
0000810386;6.3877;3.1771;0.4525;-0.0156;-0.0349;-0.0089
0000810395;6.2273;3.0981;0.4022;-0.0164;-0.0326;-0.0067
0000810404;6.3925;3.2154;0.5578;-0.0149;-0.0356;-0.0120
0000810413;6.4069;3.1005;0.5124;-0.0148;-0.0368;-0.0131
0000810422;6.3375;3.1388;0.4836;-0.0199;-0.0345;-0.0112
0000810431;6.3135;3.0287;0.5100;-0.0171;-0.0322;-0.0071
0000810440;6.4452;3.1196;0.5195;-0.0156;-0.0356;-0.0124
0000810449;6.3039;3.2058;0.4214;-0.0173;-0.0310;-0.0063
0000810458;6.3015;3.0550;0.4621;-0.0176;-0.0288;-0.0081
0000810467;6.4045;3.1556;0.4597;-0.0103;-0.0426;-0.0121
0000810476;6.3039;3.1149;0.4741;-0.0067;-0.0412;-0.0141
0000810485;6.3805;3.2106;0.6033;-0.0091;-0.0326;-0.0113
0000810494;6.3231;3.1340;0.4836;-0.0063;-0.0313;-0.0151
0000810503;6.3590;3.0311;0.5650;-0.0028;-0.0321;-0.0160
0000810512;6.4189;3.1939;0.4094;-0.0040;-0.0322;-0.0120
0000810521;6.5505;3.2513;0.3783;0.0033;-0.0384;-0.0151
0000810530;6.2177;3.2010;0.5195;-0.0087;-0.0284;-0.0116
0000810539;6.6008;3.3327;0.4334;-0.0061;-0.0360;-0.0167
0000810548;6.4189;3.2465;0.4884;-0.0099;-0.0317;-0.0161
0000810557;6.3949;3.2705;0.4573;-0.0119;-0.0282;-0.0133
0000810566;6.4739;3.2657;0.4214;-0.0085;-0.0342;-0.0169
0000810575;6.4524;3.2681;0.4405;-0.0153;-0.0262;-0.0109
0000810584;6.5242;3.3112;0.5339;-0.0075;-0.0369;-0.0172
0000810593;6.4380;3.0550;0.4788;-0.0172;-0.0274;-0.0095
0000810602;6.4069;3.2370;0.4908;-0.0141;-0.0261;-0.0125
0000810611;6.3686;3.0789;0.4788;-0.0064;-0.0322;-0.0116
0000810620;6.4979;3.1723;0.4334;-0.0185;-0.0265;-0.0093
0000810708;6.4069;3.2585;0.4741;-0.0104;-0.0434;-0.0165
0000810717;6.3973;3.1963;0.4693;-0.0196;-0.0345;-0.0117
0000810726;6.5003;3.1819;0.4908;-0.0185;-0.0408;-0.0129
0000810735;6.3183;3.1173;0.5602;-0.0203;-0.0370;-0.0104
0000810744;6.4380;3.2394;0.4764;-0.0173;-0.0400;-0.0121
0000810753;6.3829;3.2465;0.4190;-0.0120;-0.0382;-0.0109
0000810762;6.1459;2.9712;0.4166;-0.0144;-0.0398;-0.0163
0000810771;6.3231;3.1292;0.4142;-0.0153;-0.0326;-0.0092
0000810780;6.4045;3.2010;0.3950;-0.0152;-0.0386;-0.0183
0000810789;6.4380;3.2896;0.4070;-0.0179;-0.0417;-0.0185
0000810798;6.3039;3.2968;0.4429;-0.0181;-0.0421;-0.0191
0000810807;6.3614;3.3016;0.4429;-0.0224;-0.0366;-0.0141
0000810816;6.4021;3.2441;0.4788;-0.0253;-0.0405;-0.0151
0000810825;6.2465;3.1699;0.4022;-0.0207;-0.0425;-0.0163
0000810834;6.2944;3.0215;0.4381;-0.0245;-0.0353;-0.0064
0000810843;6.3351;3.0598;0.4238;-0.0203;-0.0381;-0.0140
0000810852;6.3518;3.1364;0.4717;-0.0141;-0.0372;-0.0164
0000810861;6.4763;3.1125;0.5124;-0.0192;-0.0302;-0.0104
0000810870;6.3734;3.1125;0.5602;-0.0105;-0.0332;-0.0185
0000810879;6.4955;3.2058;0.4836;-0.0183;-0.0233;-0.0109
0000810888;6.3710;3.0789;0.5435;-0.0125;-0.0253;-0.0191
0000810897;6.4667;3.2657;0.4621;-0.0120;-0.0228;-0.0165
0000810906;6.5434;3.2274;0.4764;-0.0080;-0.0233;-0.0191
0000810915;6.4260;3.2226;0.5531;-0.0147;-0.0187;-0.0137
0000810924;6.4308;3.1388;0.4477;-0.0081;-0.0211;-0.0135
0000810933;6.4308;3.1843;0.4286;0.0040;-0.0249;-0.0144
0000810942;6.4596;3.2513;0.4597;-0.0051;-0.0207;-0.0101
0000810951;6.6176;3.3615;0.4070;-0.0011;-0.0301;-0.0136
0000810960;6.1483;3.0335;0.4836;-0.0029;-0.0248;-0.0153
0000810969;6.3853;3.1915;0.4094;-0.0061;-0.0305;-0.0137
0000810978;6.3398;3.2633;0.4334;-0.0033;-0.0324;-0.0127
0000810987;6.2513;3.1891;0.3807;-0.0040;-0.0353;-0.0191
0000810996;6.3590;3.3112;0.4214;-0.0079;-0.0386;-0.0179
0000811005;6.3925;3.1364;0.4262;-0.0013;-0.0400;-0.0168
0000811014;6.4500;3.1723;0.4262;0.0028;-0.0432;-0.0171
0000811023;6.4404;3.2394;0.3950;-0.0037;-0.0398;-0.0159
0000811032;6.1914;3.2154;0.4118;-0.0019;-0.0410;-0.0197
0000811041;6.3518;3.2274;0.4262;-0.0048;-0.0444;-0.0164
0000811050;6.3039;3.1891;0.4046;-0.0133;-0.0424;-0.0108
0000811059;6.3470;3.2537;0.3903;-0.0136;-0.0494;-0.0165
0000811068;6.2584;3.0239;0.4214;-0.0218;-0.0450;-0.0124
0000811077;6.3566;2.9975;0.4310;-0.0179;-0.0513;-0.0175
0000811086;6.3470;3.2034;0.4381;-0.0173;-0.0469;-0.0123
0000811095;6.2632;3.1077;0.3400;-0.0151;-0.0505;-0.0160
0000811104;6.4165;3.1340;0.3831;-0.0229;-0.0426;-0.0104
0000811113;6.2465;3.2250;0.4573;-0.0237;-0.0461;-0.0188
0000811122;6.5649;3.3279;0.4453;-0.0274;-0.0405;-0.0149
0000811131;6.5362;3.3232;0.5291;-0.0252;-0.0386;-0.0161
0000811140;6.3614;3.2753;0.4525;-0.0310;-0.0357;-0.0201
0000811149;6.3566;3.1364;0.5076;-0.0352;-0.0304;-0.0116
0000811158;6.5338;3.2729;0.5171;-0.0362;-0.0241;-0.0076
0000811167;6.3255;3.1101;0.4764;-0.0334;-0.0341;-0.0167
0000811176;6.3470;3.2441;0.4693;-0.0330;-0.0260;-0.0079
0000811185;6.6176;3.3662;0.3807;-0.0338;-0.0237;-0.0085
0000811194;6.3375;3.1196;0.4477;-0.0277;-0.0306;-0.0163
0000811203;6.3351;2.9880;0.4812;-0.0246;-0.0260;-0.0115
0000811212;6.2991;3.1005;0.4477;-0.0143;-0.0365;-0.0161
0000811221;6.3422;3.1771;0.4190;-0.0181;-0.0236;-0.0096
0000811230;6.3710;3.1340;0.4334;-0.0168;-0.0314;-0.0147
0000811239;6.2082;3.0622;0.5243;-0.0180;-0.0308;-0.0147
0000811248;6.4883;3.1987;0.4812;-0.0157;-0.0296;-0.0096
0000811257;6.1962;3.1436;0.5315;-0.0193;-0.0336;-0.0136
0000811266;6.3494;3.1029;0.4166;-0.0143;-0.0326;-0.0144
0000811275;6.3949;3.1675;0.5746;-0.0180;-0.0290;-0.0100
0000811284;6.3159;3.1364;0.5004;-0.0096;-0.0348;-0.0125
0000811293;6.3446;3.1340;0.4429;-0.0116;-0.0329;-0.0117
0000811302;6.3566;3.0909;0.5890;-0.0161;-0.0274;-0.0069
0000811311;6.4332;3.1149;0.4501;-0.0060;-0.0349;-0.0131
0000811320;6.3063;3.1364;0.5411;-0.0084;-0.0324;-0.0120
0000811329;6.3805;3.1412;0.5267;-0.0059;-0.0276;-0.0087
0000811338;6.4284;3.1196;0.5459;-0.0083;-0.0320;-0.0109
0000811347;6.4691;3.0885;0.5267;-0.0051;-0.0309;-0.0192
0000811439;6.3614;3.1340;0.4669;-0.0156;-0.0496;-0.0205
0000811448;6.5027;3.1484;0.4836;-0.0257;-0.0360;-0.0123
0000811457;6.3734;3.1508;0.4405;-0.0232;-0.0400;-0.0196
0000811466;6.3949;3.2034;0.4717;-0.0189;-0.0340;-0.0173
0000811475;6.4596;3.0933;0.5124;-0.0191;-0.0410;-0.0179
0000811484;6.4380;3.2872;0.4932;-0.0191;-0.0333;-0.0127
0000811493;6.3590;3.1843;0.4836;-0.0180;-0.0316;-0.0172
0000811502;6.2177;3.1077;0.4405;-0.0159;-0.0364;-0.0160
0000811511;6.3614;3.1484;0.5794;-0.0245;-0.0297;-0.0123
0000811520;6.3135;3.1268;0.4884;-0.0160;-0.0348;-0.0196
0000811529;6.2752;2.9760;0.4334;-0.0213;-0.0277;-0.0123
0000811538;6.4955;3.2896;0.5004;-0.0221;-0.0296;-0.0125
0000811547;6.4356;3.2130;0.4334;-0.0234;-0.0290;-0.0152
0000811556;6.4835;3.2801;0.4669;-0.0193;-0.0328;-0.0147
0000811565;6.4356;3.2082;0.4597;-0.0290;-0.0261;-0.0164
0000811574;6.2656;3.2010;0.4717;-0.0217;-0.0329;-0.0136
0000811583;6.3446;3.2585;0.5004;-0.0250;-0.0264;-0.0116
0000811592;6.2848;3.1556;0.3663;-0.0203;-0.0346;-0.0151
0000811601;6.2896;3.1196;0.4142;-0.0253;-0.0252;-0.0103
0000811610;6.4332;3.2226;0.4980;-0.0200;-0.0328;-0.0156
0000811619;6.3662;3.2130;0.4860;-0.0216;-0.0333;-0.0153
0000811628;6.4404;3.1484;0.5219;-0.0250;-0.0294;-0.0096
0000811637;6.3159;3.1891;0.4501;-0.0257;-0.0297;-0.0129
0000811646;6.4021;3.1053;0.4405;-0.0265;-0.0348;-0.0093
0000811655;6.2752;3.1388;0.3926;-0.0228;-0.0342;-0.0121
0000811664;6.3829;3.0430;0.4788;-0.0257;-0.0322;-0.0060
0000811673;6.4284;3.2992;0.4669;-0.0204;-0.0417;-0.0155
0000811682;6.3734;3.2370;0.4717;-0.0220;-0.0417;-0.0149
0000811691;6.3590;3.2585;0.5195;-0.0316;-0.0312;-0.0105
0000811700;6.3638;3.1627;0.5052;-0.0280;-0.0337;-0.0089
0000811709;6.2560;2.9784;0.4022;-0.0280;-0.0357;-0.0081
0000811718;6.4189;3.2058;0.4980;-0.0225;-0.0384;-0.0153
0000811727;6.5314;3.3423;0.5291;-0.0281;-0.0366;-0.0108
0000811736;6.1914;3.1077;0.5052;-0.0260;-0.0404;-0.0109
0000811745;6.3398;3.0287;0.4405;-0.0286;-0.0344;-0.0065
0000811754;6.3183;3.1316;0.5890;-0.0268;-0.0333;-0.0081
0000811763;6.3638;3.0646;0.5243;-0.0241;-0.0392;-0.0143
0000811772;6.3255;3.1460;0.5291;-0.0265;-0.0298;-0.0087
0000811781;6.3183;3.1675;0.5219;-0.0244;-0.0369;-0.0149
0000811790;6.5625;3.2441;0.5411;-0.0272;-0.0326;-0.0125
0000811799;6.4045;3.0311;0.4597;-0.0145;-0.0400;-0.0152
0000811808;6.4572;3.1125;0.4932;-0.0234;-0.0338;-0.0081
0000811817;6.4236;3.2657;0.4645;-0.0171;-0.0352;-0.0075
0000811826;6.3686;3.0598;0.5243;-0.0160;-0.0372;-0.0156
0000811835;6.4572;3.2705;0.4429;-0.0124;-0.0380;-0.0137
0000811844;6.4787;3.0909;0.5698;-0.0092;-0.0341;-0.0125
0000811853;6.2920;3.0143;0.5124;-0.0141;-0.0302;-0.0132
0000811862;6.3829;3.1101;0.5770;-0.0043;-0.0369;-0.0211
0000811871;6.3614;3.1484;0.4836;-0.0100;-0.0262;-0.0147
0000811880;6.3638;3.1244;0.4764;-0.0092;-0.0312;-0.0160
0000811889;6.4260;3.1005;0.5243;-0.0188;-0.0245;-0.0141
0000811898;6.4236;3.1747;0.5267;-0.0143;-0.0301;-0.0137
0000811905;6.5745;3.2705;0.4836;-0.0123;-0.0241;-0.0117
0000811913;6.4093;3.0239;0.5411;-0.0049;-0.0326;-0.0151
0000811921;6.4165;3.1508;0.5004;-0.0085;-0.0312;-0.0135
0000811929;6.3183;3.2154;0.5052;-0.0127;-0.0250;-0.0136
0000811937;6.2537;3.1556;0.4741;-0.0091;-0.0270;-0.0148
0000811945;6.1411;3.0718;0.5004;-0.0077;-0.0354;-0.0183
0000811953;6.3829;3.1580;0.5267;-0.0155;-0.0246;-0.0084
0000811961;6.3255;3.1077;0.5746;-0.0115;-0.0333;-0.0119
0000811969;6.3446;3.0335;0.5076;-0.0092;-0.0268;-0.0083
0000811977;6.4979;3.1747;0.5698;-0.0055;-0.0329;-0.0121
0000811985;6.4045;3.1915;0.4812;0.0008;-0.0330;-0.0163
0000811993;6.4284;3.1196;0.5531;-0.0028;-0.0314;-0.0099
