time;acc_x;acc_y;acc_z;gyro_x;gyro_y;gyro_z
0000917591;6.3805;2.8108;2.0327;0.1332;-0.0260;-0.1170
0000917599;6.4476;2.9880;2.0327;0.1324;-0.0250;-0.1119
0000917606;6.3614;2.9544;2.1596;0.1354;-0.0329;-0.1070
0000917614;6.4524;3.0215;2.0877;0.1416;-0.0498;-0.1094
0000917623;6.3710;3.1029;2.1117;0.1499;-0.0596;-0.1006
0000917631;6.1675;3.0478;2.0949;0.1612;-0.0697;-0.0965
0000917639;6.2513;3.0885;2.0159;0.1797;-0.0869;-0.0947
0000917652;6.1172;2.8419;2.0494;0.1992;-0.1010;-0.0826
0000917659;6.0501;2.8156;1.9130;0.2052;-0.1074;-0.0751
0000917670;6.2704;2.7102;1.7861;0.2117;-0.1138;-0.0614
0000917678;6.3207;2.7557;1.8483;0.2114;-0.1199;-0.0518
0000917690;6.5362;2.8156;1.8316;0.2044;-0.1243;-0.0370
0000917698;6.4691;2.8012;1.8435;0.1939;-0.1223;-0.0330
0000917709;6.6056;2.8084;1.8723;0.1620;-0.1088;-0.0262
0000917717;6.8019;2.6312;2.0063;0.1364;-0.0935;-0.0313
0000917725;6.9384;2.7461;1.9920;0.1190;-0.0829;-0.0334
0000917793;6.4739;2.9760;1.9752;-0.0137;0.0031;0.0957
0000917801;6.4596;3.1484;2.0303;-0.0147;0.0089;0.0975
0000917812;6.6918;3.5195;1.9513;-0.0195;0.0398;0.0977
0000917820;6.5984;3.5889;1.8268;0.0032;0.0592;0.0775
0000917832;6.5864;3.8882;1.7095;0.0430;0.0830;0.0458
0000917840;6.5410;3.8523;1.6209;0.0678;0.1128;0.0305
0000917848;6.5218;3.7781;1.5371;0.0805;0.1283;0.0140
0000917859;5.9448;3.2010;1.2737;0.1268;0.1255;-0.0061
0000917867;5.7796;3.1220;1.1301;0.1484;0.1100;-0.0181
0000917879;5.5569;2.9688;1.0032;0.1796;0.0753;-0.0364
0000917887;5.1715;2.9090;1.0750;0.1896;0.0346;-0.0655
0000917898;4.9632;3.0550;1.0415;0.1907;-0.0305;-0.0815
0000917906;4.7573;3.2441;1.1013;0.1849;-0.0977;-0.0945
0000917914;4.7166;3.3208;1.1325;0.1700;-0.1535;-0.1014
0000917926;4.7453;3.2058;1.2594;0.1569;-0.2511;-0.1074
0000917934;4.7932;3.2944;1.3384;0.1510;-0.3115;-0.1218
0000917945;5.2792;3.4069;1.3886;0.1454;-0.3744;-0.1366
0000917953;5.4708;3.4357;1.5634;0.1464;-0.4209;-0.1470
0000917965;5.8897;3.1220;1.6592;0.1488;-0.4550;-0.1504
0000917973;5.9951;2.9137;1.7693;0.1585;-0.4680;-0.1535
0000917981;6.4643;2.9664;1.7214;0.1581;-0.4598;-0.1380
0000917993;6.7636;2.8084;1.9609;0.1533;-0.4277;-0.1322
0000918001;6.8546;2.8443;2.0686;0.1387;-0.3844;-0.1236
0000918069;7.0653;2.4852;1.9632;0.0915;0.1587;-0.0882
0000918077;7.0030;2.7869;1.9561;0.0831;0.1917;-0.0782
0000918088;6.4667;2.5259;1.8435;0.0735;0.2180;-0.0801
0000918096;6.1292;2.5211;1.8555;0.0653;0.2298;-0.0699
0000918108;5.8514;2.6743;1.7573;0.0553;0.2148;-0.0634
0000918116;5.3965;2.4708;1.8004;0.0528;0.1964;-0.0454
0000918124;5.3271;2.5833;1.7741;0.0489;0.1687;-0.0305
0000918135;5.3175;2.7725;1.7933;0.0501;0.1258;-0.0003
0000918143;5.4875;2.8204;1.7693;0.0596;0.0810;0.0089
0000918155;5.9831;2.9425;1.6400;0.0709;0.0352;0.0208
0000918163;6.0310;2.9113;1.6376;0.0606;0.0107;0.0277
0000918174;6.4141;2.9664;1.6281;0.0594;-0.0241;0.0269
0000918182;6.6535;3.1436;1.5083;0.0425;-0.0276;0.0305
0000918190;6.7301;3.1244;1.5490;0.0325;-0.0341;0.0189
0000918202;7.0557;3.2681;1.5107;0.0211;-0.0284;0.0125
0000918210;7.1635;3.3423;1.5347;0.0222;-0.0109;0.0003
0000918221;7.0725;3.2513;1.4413;0.0184;0.0107;-0.0209
0000918229;6.8881;3.2489;1.4581;0.0113;0.0345;-0.0284
0000918241;6.6559;3.1196;1.4485;0.0053;0.0613;-0.0317
0000918249;6.5338;3.1460;1.2929;0.0017;0.0733;-0.0337
0000918257;6.3159;3.1005;1.4605;0.0075;0.0666;-0.0320
0000918269;6.2848;3.0957;1.3815;-0.0017;0.0650;-0.0234
0000918277;6.2082;3.1101;1.3838;-0.0077;0.0532;-0.0127
0000918346;6.4787;3.1987;1.3910;-0.0324;0.0055;-0.0132
0000918354;6.6367;3.2322;1.4078;-0.0370;0.0172;-0.0175
0000918366;6.6439;2.9975;1.4006;-0.0298;0.0193;-0.0244
0000918373;6.6319;3.0263;1.3408;-0.0284;0.0286;-0.0249
0000918381;6.5266;2.9616;1.3862;-0.0240;0.0248;-0.0304
0000918393;6.3518;2.8587;1.2905;-0.0180;0.0160;-0.0258
0000918401;6.2513;2.8850;1.3479;-0.0168;0.0151;-0.0172
0000918412;6.3063;2.9449;1.3695;-0.0160;-0.0100;-0.0164
0000918420;6.1627;2.9305;1.3264;-0.0137;-0.0306;-0.0133
0000918432;6.1555;3.0478;1.3001;-0.0124;-0.0629;-0.0221
0000918440;5.9855;2.9856;1.3958;-0.0161;-0.0841;-0.0183
0000918451;6.0214;3.1867;1.3479;-0.0268;-0.1154;-0.0260
0000918459;5.9975;3.0742;1.3575;-0.0195;-0.1454;-0.0282
0000918467;5.9041;3.0789;1.3336;-0.0266;-0.1676;-0.0237
0000918479;6.2153;3.2489;1.3934;-0.0242;-0.1939;-0.0245
0000918487;6.2537;3.1675;1.2689;-0.0218;-0.2081;-0.0171
0000918498;6.2393;3.1891;1.2474;-0.0171;-0.2264;-0.0172
0000918506;6.4332;3.0550;1.3096;-0.0169;-0.2337;-0.0109
0000918518;6.5505;2.9784;1.1923;-0.0133;-0.2318;-0.0060
0000918526;6.6200;2.8491;1.1636;-0.0133;-0.2318;-0.0041
0000918538;6.6942;2.9736;1.1109;-0.0149;-0.2040;0.0053
0000918546;6.7780;2.9401;1.2306;-0.0152;-0.1978;0.0000
0000918554;6.7421;3.0430;1.2570;-0.0120;-0.1721;0.0011
0000918621;6.5386;3.0311;1.4078;0.0012;-0.0044;0.0033
0000918629;6.6152;3.0215;1.4748;0.0029;0.0044;0.0077
0000918640;6.3853;2.9305;1.4006;0.0120;-0.0069;0.0087
0000918648;6.1794;2.8515;1.3192;0.0213;-0.0233;0.0089
0000918660;6.0190;2.9233;1.3791;0.0340;-0.0532;0.0131
0000918668;5.9161;2.6911;1.4413;0.0410;-0.0738;0.0156
0000918676;6.0047;2.8323;1.4485;0.0509;-0.1086;0.0040
0000918687;5.8778;2.8659;1.4389;0.0629;-0.1422;0.0036
0000918695;5.9376;2.9736;1.4102;0.0718;-0.1723;-0.0088
0000918707;5.9544;2.8563;1.4150;0.0801;-0.2030;-0.0129
0000918715;6.2369;2.9904;1.3264;0.0833;-0.2185;-0.0201
0000918726;6.4691;3.0622;1.1492;0.0921;-0.2218;-0.0265
0000918734;6.5194;2.9760;1.2210;0.0897;-0.2236;-0.0261
0000918742;6.6559;2.9951;1.2522;0.0959;-0.2220;-0.0336
0000918754;6.7397;3.1532;1.0439;0.0923;-0.2037;-0.0301
0000918762;6.5386;3.1005;1.2546;0.0951;-0.1977;-0.0338
0000918773;6.8426;3.2729;1.0989;0.0925;-0.1800;-0.0324
0000918781;6.8019;3.2465;1.1181;0.0862;-0.1603;-0.0240
0000918793;6.4452;3.1101;1.1851;0.0854;-0.1549;-0.0183
0000918801;6.6032;3.0813;1.1851;0.0910;-0.1479;-0.0155
0000918813;6.4284;2.8635;1.2186;0.0927;-0.1452;-0.0124
0000918821;6.5242;3.1484;1.2953;0.0937;-0.1490;-0.0192
0000918829;6.3853;2.9568;1.1684;0.0963;-0.1451;-0.0144
0000918898;6.5410;3.2681;1.0726;0.0699;-0.1426;-0.0203
0000918906;6.2800;3.1268;1.0870;0.0602;-0.1390;-0.0152
0000918917;6.4739;3.2585;1.1588;0.0529;-0.1423;-0.0085
0000918925;6.3470;3.1388;1.0750;0.0348;-0.1391;-0.0017
0000918937;6.4883;3.2729;1.0678;0.0324;-0.1450;-0.0009
0000918945;6.3015;2.9904;1.0678;0.0250;-0.1431;0.0051
0000918953;6.3422;3.1149;1.0558;0.0280;-0.1523;-0.0020
0000918964;6.4763;3.2226;1.0439;0.0262;-0.1514;-0.0037
0000918972;6.5098;3.0191;1.1899;0.0254;-0.1564;-0.0075
0000918984;6.3494;3.0430;1.1085;0.0241;-0.1543;-0.0123
0000918992;6.4643;3.1101;1.0822;0.0216;-0.1482;-0.0104
0000919004;6.3422;2.9880;1.0534;0.0195;-0.1525;-0.0200
0000919012;6.4979;3.1867;1.0606;0.0139;-0.1455;-0.0196
0000919023;6.5673;3.0933;1.0606;0.0171;-0.1511;-0.0248
0000919031;6.5003;3.1939;1.0104;0.0093;-0.1531;-0.0232
0000919039;6.3758;3.2801;0.9673;0.0028;-0.1596;-0.0290
0000919051;6.2417;3.0670;0.9697;-0.0015;-0.1660;-0.0241
0000919059;6.3542;3.1196;1.0008;-0.0032;-0.1764;-0.0264
0000919070;6.3231;3.1029;0.9936;-0.0105;-0.1777;-0.0233
0000919078;6.3183;3.0550;0.9720;-0.0055;-0.1836;-0.0229
0000919090;6.4189;3.2441;0.9936;-0.0088;-0.1888;-0.0176
0000919098;6.4596;3.1292;0.9026;-0.0147;-0.1879;-0.0201
0000919106;6.3542;3.0909;0.9433;-0.0139;-0.1897;-0.0250
0000919174;6.6272;3.1580;0.9457;-0.0306;-0.1655;-0.0152
0000919182;6.5266;3.0263;1.0942;-0.0321;-0.1599;-0.0167
0000919194;6.6008;3.1699;0.9864;-0.0273;-0.1529;-0.0169
0000919202;6.4787;3.1292;0.8978;-0.0300;-0.1514;-0.0203
0000919213;6.3446;3.1029;0.8571;-0.0304;-0.1507;-0.0151
0000919221;6.2704;3.0670;0.8859;-0.0282;-0.1522;-0.0201
0000919233;6.2584;2.9664;0.9337;-0.0252;-0.1539;-0.0216
0000919241;6.3925;3.1053;0.9792;-0.0185;-0.1527;-0.0199
0000919253;6.4955;3.1651;0.8691;-0.0117;-0.1563;-0.0212
0000919260;6.4691;3.0478;0.9313;-0.0195;-0.1491;-0.0168
0000919268;6.6152;3.1603;0.8787;-0.0217;-0.1480;-0.0184
0000919280;6.4955;3.0430;0.9170;-0.0169;-0.1464;-0.0216
0000919288;6.5577;3.0406;0.9337;-0.0183;-0.1403;-0.0213
0000919299;6.6679;3.0933;0.9505;-0.0104;-0.1396;-0.0244
0000919307;6.4452;2.9473;0.8882;-0.0109;-0.1247;-0.0242
0000919319;6.6487;3.0502;0.8930;-0.0063;-0.1172;-0.0260
0000919327;6.6942;3.1651;0.8930;-0.0093;-0.1100;-0.0257
0000919338;6.5410;3.0837;0.9720;0.0011;-0.1047;-0.0257
0000919346;6.6487;3.1244;0.8595;-0.0009;-0.0939;-0.0189
0000919354;6.6176;3.1771;0.9577;0.0015;-0.0966;-0.0216
0000919366;6.5362;3.0191;0.8619;0.0025;-0.0814;-0.0145
0000919374;6.4835;3.0095;0.8763;0.0092;-0.0794;-0.0205
0000919442;6.5050;3.2274;0.9960;-0.0035;-0.0841;-0.0217
0000919450;6.4141;3.0215;0.8978;-0.0025;-0.0813;-0.0195
0000919462;6.4620;3.0167;0.8811;0.0028;-0.0846;-0.0245
0000919470;6.4260;3.0574;1.0223;0.0005;-0.0801;-0.0221
0000919478;6.4380;2.9042;0.9266;-0.0021;-0.0757;-0.0209
0000919489;6.6152;3.1268;0.9601;0.0051;-0.0747;-0.0226
0000919497;6.6104;3.0765;0.9409;0.0027;-0.0630;-0.0201
0000919509;6.5960;2.9185;1.0199;0.0081;-0.0573;-0.0192
0000919517;6.7205;2.9928;1.0439;0.0104;-0.0497;-0.0220
0000919528;6.5362;3.0502;1.0127;0.0152;-0.0426;-0.0128
0000919536;6.6032;3.0335;0.9768;0.0218;-0.0372;-0.0176
0000919548;6.5074;3.0478;1.0750;0.0236;-0.0272;-0.0127
0000919556;6.6870;3.1867;0.9912;0.0249;-0.0240;-0.0115
0000919564;6.5960;3.1699;0.9840;0.0161;-0.0137;-0.0045
0000919575;6.5864;3.1987;0.9529;0.0192;-0.0049;-0.0045
0000919583;6.7756;3.3686;1.0127;0.0108;-0.0020;-0.0004
0000919595;6.5410;3.1867;0.9864;0.0104;0.0000;-0.0021
0000919603;6.4524;3.2394;0.9984;0.0056;0.0004;0.0008
0000919614;6.5864;3.0981;0.9912;0.0073;0.0029;-0.0055
0000919622;6.4883;3.0765;0.9673;-0.0027;0.0085;-0.0024
0000919630;6.5098;3.0047;0.9529;-0.0064;0.0064;0.0016
0000919642;6.5697;3.0981;0.9744;-0.0089;0.0111;-0.0039
0000919650;6.5553;3.1388;1.0056;-0.0107;0.0108;-0.0077
0000919718;6.5146;3.1220;1.0606;-0.0127;0.0108;-0.0113
0000919726;6.4667;3.0957;1.0702;-0.0132;0.0068;-0.0161
0000919738;6.5338;3.1747;1.0391;-0.0156;0.0028;-0.0173
0000919746;6.5912;3.2058;0.9457;-0.0135;-0.0020;-0.0155
0000919757;6.5434;3.1867;1.0343;-0.0181;-0.0059;-0.0189
0000919765;6.4572;3.0239;0.9936;-0.0262;-0.0043;-0.0149
0000919773;6.4787;3.0358;1.0487;-0.0282;-0.0093;-0.0205
0000919785;6.3973;3.0694;1.1277;-0.0324;-0.0099;-0.0147
0000919793;6.3303;3.0023;1.0080;-0.0288;-0.0176;-0.0215
0000919804;6.4524;3.0957;1.0463;-0.0384;-0.0133;-0.0168
0000919812;6.5745;3.3208;1.0511;-0.0352;-0.0180;-0.0172
0000919824;6.4045;3.1125;1.0319;-0.0433;-0.0221;-0.0157
0000919832;6.4620;3.0957;1.0774;-0.0362;-0.0273;-0.0201
0000919843;6.3782;3.0526;1.1253;-0.0493;-0.0240;-0.0159
0000919851;6.4931;2.9999;0.9409;-0.0432;-0.0274;-0.0184
0000919859;6.2584;2.7845;1.0151;-0.0422;-0.0284;-0.0145
0000919871;6.3279;2.9042;0.9936;-0.0422;-0.0320;-0.0143
0000919879;6.5242;3.1196;0.9792;-0.0468;-0.0266;-0.0127
0000919890;6.3470;3.0023;0.9505;-0.0433;-0.0354;-0.0141
0000919898;6.5146;2.9329;1.0798;-0.0481;-0.0345;-0.0152
0000919910;6.3758;3.0574;1.0271;-0.0442;-0.0421;-0.0145
0000919918;6.4212;3.0430;1.0104;-0.0454;-0.0408;-0.0152
0000919986;6.6631;3.1723;1.0582;-0.0508;-0.0498;-0.0157
0000919994;6.5457;3.0861;1.1349;-0.0466;-0.0525;-0.0244
0000920002;6.4620;3.0694;1.1085;-0.0518;-0.0510;-0.0167
0000920014;6.6822;3.2202;1.0127;-0.0496;-0.0552;-0.0238
0000920022;6.4979;3.1867;1.0343;-0.0566;-0.0481;-0.0140
0000920033;6.5553;3.1651;1.0487;-0.0564;-0.0544;-0.0224
0000920041;6.3782;3.0885;1.1157;-0.0566;-0.0516;-0.0196
0000920053;6.5745;3.1795;1.0439;-0.0565;-0.0458;-0.0216
0000920061;6.5553;3.1412;1.0439;-0.0617;-0.0384;-0.0187
0000920072;6.4907;3.0765;1.1732;-0.0589;-0.0392;-0.0188
0000920080;6.3758;2.9808;1.1277;-0.0625;-0.0330;-0.0131
0000920088;6.5673;3.0861;1.0965;-0.0584;-0.0366;-0.0191
0000920100;6.5338;3.1220;1.1564;-0.0629;-0.0322;-0.0180
0000920108;6.4069;2.9928;1.0511;-0.0620;-0.0282;-0.0129
0000920119;6.4284;3.1292;1.0199;-0.0648;-0.0301;-0.0199
0000920127;6.5721;3.2058;1.0846;-0.0742;-0.0248;-0.0141
0000920139;6.4093;3.1268;1.0630;-0.0765;-0.0304;-0.0176
0000920147;6.3255;3.0502;1.0846;-0.0813;-0.0328;-0.0105
0000920158;6.5194;3.0933;1.0654;-0.0743;-0.0398;-0.0163
0000920166;6.3494;2.9951;1.0534;-0.0790;-0.0396;-0.0124
0000920174;6.5386;3.1149;1.1181;-0.0793;-0.0445;-0.0172
0000920186;6.2991;3.0598;1.0870;-0.0790;-0.0449;-0.0113
0000920194;6.3997;3.1149;1.1708;-0.0749;-0.0532;-0.0171
0000920262;6.6942;3.2106;1.1085;-0.0577;-0.0542;-0.0193
0000920270;6.3135;3.0550;1.2210;-0.0585;-0.0513;-0.0163
0000920282;6.3997;3.0358;1.0822;-0.0558;-0.0528;-0.0237
0000920290;6.3805;3.0191;1.1540;-0.0550;-0.0484;-0.0203
0000920301;6.4308;3.0167;1.1540;-0.0542;-0.0498;-0.0217
0000920309;6.5457;3.1292;1.2737;-0.0597;-0.0432;-0.0145
0000920317;6.6104;3.1508;1.1109;-0.0630;-0.0406;-0.0211
0000920329;6.5793;3.0215;1.2330;-0.0694;-0.0352;-0.0169
0000920337;6.4260;3.0718;1.2546;-0.0655;-0.0381;-0.0221
0000920348;6.3566;3.0909;1.2091;-0.0787;-0.0284;-0.0123
0000920356;6.6391;3.1819;1.2929;-0.0787;-0.0292;-0.0151
0000920368;6.5529;3.0622;1.2665;-0.0906;-0.0260;-0.0124
0000920376;6.2201;3.0095;1.4676;-0.0899;-0.0316;-0.0124
0000920389;6.3710;3.0143;1.3527;-0.0955;-0.0282;-0.0091
0000920396;6.4691;3.1819;1.3767;-0.1086;-0.0309;-0.0049
0000920404;6.3925;3.0957;1.4030;-0.1132;-0.0342;-0.0036
0000920415;6.5601;3.3040;1.4629;-0.1266;-0.0408;-0.0041
0000920423;6.4715;3.2346;1.3048;-0.1370;-0.0478;-0.0057
0000920435;6.4428;3.3064;1.4222;-0.1484;-0.0570;-0.0056
0000920443;6.2010;3.1196;1.4269;-0.1529;-0.0733;-0.0163
0000920511;6.2058;3.1388;1.6017;-0.2398;-0.1724;-0.0305
0000920519;6.3422;3.1388;1.6735;-0.2461;-0.1811;-0.0368
0000920531;6.4141;3.1603;1.7334;-0.2569;-0.1896;-0.0374
0000920539;6.2968;3.1412;1.6161;-0.2713;-0.1832;-0.0318
0000920547;6.3351;3.2058;1.6185;-0.2810;-0.1815;-0.0289
0000920558;6.3063;2.8683;1.6712;-0.2871;-0.1879;-0.0288
0000920566;6.4045;3.2585;1.7980;-0.2971;-0.1831;-0.0329
0000920578;6.5314;3.2441;1.8507;-0.3108;-0.1800;-0.0308
0000920586;6.4739;3.1125;1.8603;-0.3192;-0.1744;-0.0301
0000920597;6.5888;3.1268;1.9273;-0.3348;-0.1805;-0.0294
0000920605;6.5745;3.0861;1.8866;-0.3576;-0.1697;-0.0213
0000920617;6.3710;2.9185;1.9920;-0.3753;-0.1592;-0.0055
0000920625;6.4835;3.0167;2.0638;-0.3921;-0.1592;-0.0005
0000920633;6.5314;3.1771;2.1428;-0.4022;-0.1577;0.0103
0000920644;6.5098;3.0789;2.0901;-0.4238;-0.1507;0.0139
0000920652;6.3111;2.9832;2.1045;-0.4337;-0.1456;0.0217
0000920664;6.3758;3.1532;2.3248;-0.4603;-0.1581;0.0205
0000920672;6.3590;3.1364;2.2673;-0.4884;-0.1631;0.0237
0000920683;6.3422;2.9784;2.1931;-0.5104;-0.1856;0.0187
0000920691;6.2991;3.0263;2.2769;-0.5301;-0.1998;0.0171
0000920703;6.1483;2.9281;2.2913;-0.5597;-0.2264;0.0105
0000920711;6.1531;2.9018;2.4038;-0.5796;-0.2539;0.0080
0000920719;5.9951;2.8228;2.4541;-0.5930;-0.2726;0.0067
0000920787;6.1124;2.4421;2.8874;-0.6406;-0.4362;0.0312
0000920795;6.3997;2.6432;2.8850;-0.6466;-0.4541;0.0300
0000920807;6.4931;2.4876;2.9113;-0.6494;-0.4651;0.0450
0000920815;6.5098;2.2793;2.7725;-0.6603;-0.4630;0.0509
0000920827;6.7876;2.3894;2.7318;-0.6627;-0.4654;0.0452
0000920834;6.7947;2.3942;2.6767;-0.6776;-0.4515;0.0420
0000920842;7.0533;2.6240;2.6193;-0.6831;-0.4453;0.0358
0000920854;6.6607;2.7342;2.7414;-0.7013;-0.4454;0.0129
0000920862;6.7277;2.7797;2.8659;-0.7079;-0.4507;0.0020
0000920874;6.6822;2.8539;2.8395;-0.7313;-0.4539;-0.0221
0000920882;6.7564;2.9090;2.8874;-0.7393;-0.4591;-0.0274
0000920894;6.9264;2.7198;3.1436;-0.7520;-0.4674;-0.0337
0000920902;6.9671;2.6791;3.2298;-0.7554;-0.4658;-0.0266
0000920913;6.9504;2.3774;3.1963;-0.7418;-0.4671;-0.0398
0000920921;7.1419;2.2960;3.2753;-0.7308;-0.4627;-0.0372
0000920929;7.2042;2.1907;3.2394;-0.7265;-0.4539;-0.0525
0000920941;7.0629;1.7741;3.3902;-0.7031;-0.4417;-0.0675
0000920949;6.9336;1.6831;3.4429;-0.6817;-0.4363;-0.0765
0000920960;6.8857;1.6209;3.4213;-0.6423;-0.4134;-0.0778
0000920968;6.9025;1.7789;3.4022;-0.6202;-0.3936;-0.0935
0000920980;6.8594;1.7095;3.4812;-0.5955;-0.3557;-0.1130
0000920988;7.2544;2.0423;3.3423;-0.5812;-0.3222;-0.1086
0000921056;7.6327;1.9465;3.8858;-0.6190;-0.0698;-0.0757
0000921064;7.5513;1.6352;3.8547;-0.6163;-0.0671;-0.0823
0000921072;7.6614;1.3144;3.9648;-0.6141;-0.0565;-0.0990
0000921084;7.5369;1.2115;3.6296;-0.5946;-0.0408;-0.1336
0000921092;7.2664;1.1708;3.4357;-0.5906;-0.0290;-0.1438
0000921103;7.1539;1.3168;3.7421;-0.5982;-0.0365;-0.1619
0000921111;7.1156;1.2474;3.7254;-0.5973;-0.0420;-0.1539
0000921123;6.9791;1.1612;3.8068;-0.6005;-0.0593;-0.1486
0000921131;6.9719;1.1803;3.8571;-0.5966;-0.0699;-0.1359
0000921142;7.1491;1.2809;3.9720;-0.5849;-0.0885;-0.1127
0000921150;6.9647;1.3431;3.9337;-0.5772;-0.0939;-0.0765
0000921158;7.1611;1.1636;3.7326;-0.5983;-0.1042;-0.0620
0000921170;7.0461;1.4198;3.3423;-0.5833;-0.1053;-0.0422
0000921178;7.4340;0.4860;3.4477;-0.6123;-0.1139;-0.0216
0000921189;7.1251;0.0670;3.4069;-0.6183;-0.0974;0.0028
0000921197;7.1204;0.1341;3.4931;-0.5993;-0.0749;0.0065
0000921209;7.1156;-0.5028;3.5075;-0.6230;-0.0497;0.0297
0000921217;7.0150;-0.5794;3.3854;-0.6336;-0.0306;0.0421
0000921229;6.7636;-0.7374;3.5314;-0.6343;-0.0386;0.0802
0000921237;6.7229;-0.4070;3.2992;-0.6053;-0.0484;0.1078
0000921245;6.5793;-0.4884;2.9904;-0.6462;-0.0862;0.1416
0000921257;6.4045;-1.4605;3.3255;-0.7637;-0.1955;0.2282
0000921265;6.1914;-1.5658;4.1013;-0.7915;-0.2887;0.2634
0000921334;5.5354;-2.5881;4.4508;-0.5260;-0.8347;-0.2562
0000921341;6.5912;-1.6712;4.9105;-0.4530;-0.8005;-0.2092
0000921353;8.1235;-0.2682;4.6783;-0.3625;-0.6999;-0.1047
0000921361;9.2488;0.3543;4.4676;-0.3700;-0.5766;-0.0039
0000921373;10.4914;1.3455;4.1970;-0.4289;-0.3401;0.1017
0000921381;10.5177;1.6544;4.2689;-0.4671;-0.1537;0.1270
0000921389;10.0533;1.9561;4.5394;-0.4988;0.0389;0.0934
0000921401;9.3948;1.8531;4.6495;-0.5770;0.2557;0.0156
0000921409;8.7556;1.5730;4.8746;-0.6281;0.3509;-0.0348
0000921421;7.8769;0.9553;4.9560;-0.6591;0.4189;-0.0795
0000921429;7.2472;0.4956;4.9512;-0.6961;0.4269;-0.0999
0000921441;5.8897;-0.0910;5.3893;-0.7256;0.3701;-0.1232
0000921449;5.1739;-0.2610;5.3654;-0.6885;0.3179;-0.1386
0000921461;4.4412;-1.0534;5.2744;-0.6439;0.2028;-0.1688
0000921469;4.3910;-1.6975;5.0757;-0.6055;0.1198;-0.1700
0000921477;4.2713;-2.0806;5.1930;-0.5445;0.0346;-0.1623
0000921489;4.5801;-2.5666;5.2481;-0.4243;-0.0891;-0.1196
0000921497;5.0709;-2.4301;5.3534;-0.3492;-0.1676;-0.0918
0000921508;5.8634;-1.9441;5.8826;-0.2308;-0.2653;-0.0155
0000921516;6.1292;-1.8076;5.7197;-0.1492;-0.3537;0.0378
0000921528;6.6726;-0.7638;5.4061;-0.0658;-0.4636;0.0853
0000921536;6.7229;-0.3807;5.2289;-0.0091;-0.5197;0.0747
0000921604;8.1666;1.0367;5.7245;0.1408;-0.5365;-0.0891
0000921612;8.4779;1.1181;5.9161;0.1585;-0.5236;-0.0771
0000921620;8.4755;0.9002;5.9783;0.1871;-0.5080;-0.0746
0000921632;8.0445;0.6393;5.3606;0.2673;-0.5284;-0.0837
0000921640;7.5944;0.1700;5.4588;0.2801;-0.5494;-0.0870
0000921651;7.2856;0.1149;5.6671;0.3279;-0.6029;-0.0981
0000921659;7.1395;-0.1844;5.7197;0.3732;-0.6456;-0.0805
0000921671;7.3909;-0.1389;5.8682;0.4584;-0.6951;-0.0839
0000921679;7.7859;-0.0287;5.8586;0.5283;-0.7093;-0.0949
0000921691;8.3462;-0.0718;6.2608;0.6519;-0.7340;-0.1649
0000921699;8.8705;0.3711;6.4883;0.7325;-0.7274;-0.1969
0000921707;9.4212;0.7590;6.7373;0.8426;-0.7064;-0.2591
0000921719;9.5241;1.0487;4.7094;1.0361;-0.6141;-0.3523
0000921727;9.1219;1.4964;4.2066;1.0838;-0.5352;-0.4231
0000921739;8.0517;1.4174;4.1156;1.0651;-0.5100;-0.4690
0000921747;7.1012;1.7310;4.2760;1.1092;-0.5276;-0.4072
0000921759;6.6918;2.5714;4.7046;1.0829;-0.6061;-0.2501
0000921767;6.8115;3.0071;5.0781;1.0936;-0.6535;-0.1807
0000921775;7.7979;4.0366;5.2648;1.1357;-0.7101;-0.1203
0000921787;8.9136;4.1108;5.8203;1.1255;-0.7011;-0.1539
0000921795;9.5026;3.7685;5.9999;1.1141;-0.6486;-0.2667
0000921807;10.2544;2.2769;6.7301;1.2023;-0.5125;-0.4682
0000921815;10.0628;0.8308;6.9480;1.3371;-0.4202;-0.6383
0000921883;4.3934;6.5457;3.5961;1.6114;-0.4315;-0.3972
0000921891;5.2768;6.4260;4.1515;1.5363;-0.5473;-0.2094
0000921903;7.4915;5.6000;4.4053;1.4778;-0.6630;-0.0794
0000921911;8.9376;4.5681;4.8123;1.4862;-0.6881;-0.0628
0000921919;9.7636;3.8858;4.6926;1.5585;-0.6756;-0.1035
0000921931;10.4124;3.6344;4.3574;1.7156;-0.5955;-0.2128
0000921939;10.1945;3.8906;3.6847;1.7694;-0.5171;-0.2589
0000921951;9.4523;5.4037;2.9856;1.8555;-0.4135;-0.2955
0000921959;8.8753;6.1723;2.5594;1.7728;-0.3866;-0.2827
0000921971;8.8729;7.0413;2.8994;1.6487;-0.3679;-0.2124
0000921979;8.8753;7.0557;3.1125;1.5584;-0.3774;-0.1757
0000921991;9.2680;7.1156;2.9999;1.4044;-0.3716;-0.1514
0000921999;9.5505;6.8163;3.0813;1.3363;-0.3692;-0.1572
0000922007;9.9695;6.5170;2.9353;1.2677;-0.3424;-0.1621
0000922019;10.3525;6.4524;2.6911;1.1916;-0.3006;-0.1785
0000922027;10.3166;6.3470;2.4038;1.1215;-0.2693;-0.1853
0000922039;10.0413;6.5122;2.2314;1.0529;-0.2418;-0.1091
0000922047;9.7492;6.5338;2.0039;0.9878;-0.2565;-0.0369
0000922059;8.9783;6.0238;1.8483;0.8684;-0.2919;0.0839
0000922067;8.7556;5.4253;1.4054;0.8186;-0.3361;0.1535
0000922075;8.8609;4.9823;1.4246;0.7661;-0.3633;0.2145
0000922087;9.3613;4.8794;1.2282;0.7059;-0.3623;0.2313
0000922095;9.0214;4.3144;0.9960;0.6626;-0.3335;0.2332
0000922164;8.1211;2.6552;0.1987;0.3652;0.1236;-0.1454
0000922172;7.8386;1.9249;0.4501;0.3423;0.1569;-0.2368
0000922184;7.3478;1.4198;0.3567;0.4096;0.1981;-0.3644
0000922192;7.0413;1.2546;0.3591;0.4415;0.2132;-0.4489
0000922200;6.7445;1.1923;0.1293;0.4750;0.2132;-0.5336
0000922212;6.6224;1.4198;-0.2346;0.5183;0.1980;-0.6301
0000922220;6.4260;1.2785;-0.1700;0.5215;0.1867;-0.6793
0000922233;6.3877;1.0750;-0.3615;0.5634;0.1556;-0.7344
0000922240;6.5218;0.9744;-0.2179;0.5869;0.1472;-0.7509
0000922252;6.4572;0.5171;-0.1820;0.6690;0.1340;-0.7959
0000922260;6.6319;0.6297;-0.2274;0.7357;0.1276;-0.8187
0000922272;6.6200;1.5610;0.0814;0.8226;0.1255;-0.8310
0000922280;6.1076;2.4014;0.2251;0.8474;0.1276;-0.8388
0000922288;5.8371;3.2082;0.5435;0.8488;0.1100;-0.8664
0000922300;5.5713;3.8140;1.4676;0.8029;0.1192;-0.9168
0000922308;5.5617;4.5849;3.0861;0.8556;0.1613;-0.9511
0000922320;4.6711;9.1243;6.8857;1.2040;0.3175;-0.9162
0000922328;2.7414;12.3230;1.7597;1.5103;0.3451;-0.7115
0000922341;3.0358;11.1690;-3.0789;0.9036;0.1957;-0.2487
0000922348;4.0773;8.7101;-1.4269;0.6033;0.1192;-0.1013
0000922356;5.9520;6.8953;-1.4820;0.5821;0.1307;-0.0953
0000922368;9.4284;5.2409;-2.0494;0.4545;0.3199;-0.2310
0000922376;11.0445;4.0103;-2.1883;0.2786;0.4966;-0.3869
0000922445;4.6136;2.6743;-2.0183;0.4982;1.2604;-0.3616
0000922453;5.0589;2.7150;-2.2027;0.5196;1.2309;-0.3154
0000922465;5.8466;2.5809;-1.9369;0.5092;1.2091;-0.2898
0000922473;6.3375;2.5043;-2.0159;0.5013;1.2153;-0.2982
0000922485;6.6655;2.1620;-2.2003;0.4964;1.2331;-0.3329
0000922493;6.5434;2.0590;-2.3774;0.5173;1.2512;-0.3569
0000922501;6.4931;2.3535;-2.4229;0.5532;1.2630;-0.3798
0000922513;5.9831;2.7078;-2.5307;0.6142;1.2666;-0.3878
0000922521;5.9424;3.3423;-2.8036;0.6303;1.2601;-0.3692
0000922533;5.3151;3.5650;-2.7821;0.6149;1.2308;-0.3255
0000922541;5.0566;3.7445;-2.7988;0.6022;1.1989;-0.2988
0000922553;4.6902;3.8571;-3.1053;0.5814;1.1382;-0.2787
0000922561;4.3790;3.8618;-3.0909;0.5529;1.0774;-0.2645
0000922569;3.8834;3.5171;-3.1436;0.5259;0.9914;-0.2658
0000922581;3.8068;3.5171;-3.1340;0.4967;0.8432;-0.2678
0000922589;3.4548;3.3255;-3.3543;0.4780;0.7617;-0.2511
0000922602;3.2896;3.1508;-3.1723;0.4608;0.6320;-0.1920
0000922611;3.5434;3.1460;-3.2417;0.4479;0.5562;-0.1348
0000922624;3.9696;3.0430;-2.9305;0.4454;0.4710;-0.0681
0000922633;4.0821;3.1484;-2.9880;0.4338;0.4098;-0.0349
0000922646;4.3024;3.2154;-2.9497;0.4258;0.3283;-0.0043
0000922655;4.5083;3.2681;-3.0143;0.4050;0.2907;0.0193
0000922664;4.7501;3.5554;-2.9928;0.3754;0.2541;0.0277
0000922734;5.0422;3.0574;-2.3056;0.2286;-0.0545;0.1414
0000922743;5.0949;3.0239;-2.2458;0.2218;-0.0782;0.1599
0000922756;4.9991;2.7653;-2.4995;0.2277;-0.1298;0.1744
0000922765;5.3127;3.0670;-2.8156;0.2274;-0.1514;0.1759
0000922778;5.6886;3.0622;-2.8539;0.2237;-0.1695;0.1797
0000922787;5.7485;3.1292;-3.0670;0.2274;-0.1728;0.1748
0000922796;6.0717;3.1460;-3.2202;0.2102;-0.1671;0.1776
0000922809;6.2153;3.0933;-3.4931;0.1879;-0.1460;0.1743
0000922818;6.2824;2.8012;-3.5674;0.1757;-0.1446;0.1697
0000922831;6.1244;2.6983;-3.5985;0.1693;-0.1298;0.1519
0000922840;6.2441;2.7342;-3.5721;0.1625;-0.1282;0.1580
0000922853;6.1507;2.7629;-3.4500;0.1563;-0.1402;0.1593
0000922862;6.1004;2.6504;-3.3160;0.1484;-0.1575;0.1427
0000922871;6.2800;2.9113;-3.3495;0.1471;-0.1640;0.1458
0000922884;6.3662;3.0287;-3.2250;0.1555;-0.1756;0.1506
0000922893;6.5218;3.0789;-2.9401;0.1599;-0.1928;0.1516
0000922906;6.7421;3.4836;-2.9305;0.1408;-0.2090;0.1719
0000922915;6.6607;3.6583;-2.8754;0.1092;-0.2076;0.1829
0000922928;6.6415;3.4979;-2.7677;0.0666;-0.2108;0.2026
0000922937;6.7109;3.3279;-2.7533;0.0302;-0.2090;0.2005
0000922950;6.3925;3.0382;-2.8012;-0.0157;-0.2062;0.1852
0000922959;6.3829;2.9808;-2.9018;-0.0389;-0.2118;0.1681
0000922968;6.0094;2.8754;-2.8467;-0.0446;-0.2181;0.1573
0000923038;6.4452;3.1173;-3.9816;-0.1246;-0.3653;0.1496
0000923047;6.4093;2.7653;-4.0749;-0.1323;-0.3520;0.1286
0000923060;6.6080;2.8515;-4.1731;-0.1346;-0.3349;0.1191
0000923069;6.4069;2.8778;-3.9911;-0.1424;-0.3112;0.1211
0000923082;6.2201;2.9736;-3.5817;-0.1486;-0.2991;0.1342
0000923091;6.3327;3.0933;-3.3232;-0.1563;-0.3006;0.1408
0000923104;6.0932;2.6432;-3.4764;-0.1860;-0.2875;0.1620
0000923113;6.2944;2.7557;-3.5530;-0.1940;-0.2694;0.1673
0000923122;6.8546;2.8850;-3.4884;-0.2205;-0.2695;0.1765
0000923135;6.9647;2.7414;-3.4931;-0.2621;-0.2398;0.1887
0000923144;6.9911;2.7342;-3.3710;-0.2563;-0.1955;0.1980
0000923157;7.1036;3.0813;-3.0885;-0.2388;-0.1676;0.1935
0000923166;6.9983;3.2034;-3.1460;-0.2458;-0.1430;0.1935
0000923179;7.1108;3.6512;-2.7605;-0.2599;-0.0945;0.2074
0000923188;6.9791;3.7206;-2.5570;-0.2991;-0.0629;0.2154
0000923204;6.5242;3.1244;-2.6576;-0.3830;-0.0191;0.1767
0000923213;6.7062;3.2154;-2.9257;-0.3784;0.0113;0.1884
0000923222;6.7445;3.2346;-2.9401;-0.4179;0.0269;0.1796
0000923290;6.2991;3.6416;-2.8276;-0.4806;-0.0899;0.2161
0000923299;6.2728;3.6033;-2.8132;-0.4960;-0.0898;0.2042
0000923311;6.6008;3.4548;-2.7677;-0.5561;-0.0666;0.1973
0000923320;7.0892;3.3830;-2.4876;-0.5729;-0.0352;0.1879
0000923333;7.3454;3.1364;-2.4325;-0.5985;0.0064;0.1673
0000923342;7.4077;3.0885;-2.5139;-0.6086;0.0302;0.1563
0000923354;7.3622;2.9305;-2.3152;-0.5931;0.0550;0.1288
0000923363;7.6303;2.9712;-2.2865;-0.6035;0.0682;0.1143
0000923372;7.3909;2.8802;-2.2098;-0.5899;0.0666;0.1029
0000923385;7.5178;3.1508;-2.0279;-0.5724;0.0699;0.0846
0000923394;7.3095;3.1340;-1.9824;-0.5930;0.0722;0.0853
0000923406;7.2927;2.8467;-1.7166;-0.6291;0.0701;0.0838
0000923415;7.5202;3.1364;-1.4916;-0.5909;0.0675;0.0537
0000923428;7.5681;3.2417;-1.4006;-0.6111;0.0905;0.0333
0000923437;7.9033;3.4357;-1.5443;-0.6328;0.1176;0.0218
0000923446;7.7021;2.7916;-1.3264;-0.6652;0.1522;-0.0112
0000923458;8.1570;3.6320;-1.2594;-0.6486;0.1932;-0.0184
0000923467;8.2839;3.8906;-1.2258;-0.6917;0.2216;-0.0405
0000923480;8.0565;3.8379;-1.0654;-0.7641;0.2574;-0.0524
0000923489;7.6926;3.7134;-1.0319;-0.7985;0.2774;-0.0517
0000923501;7.2233;3.5386;-0.8859;-0.8346;0.2774;-0.0533
0000923510;7.1467;3.3686;-0.7566;-0.8603;0.2786;-0.0604
0000923580;6.6439;2.8395;-0.5938;-0.8118;0.2109;-0.1872
0000923589;6.7660;2.9497;-0.6416;-0.8080;0.2161;-0.1919
0000923598;6.6918;2.8563;-0.5483;-0.8134;0.2306;-0.1744
0000923610;7.0701;3.0550;-0.3448;-0.8187;0.2454;-0.1599
0000923619;6.8594;2.8491;-0.2322;-0.8042;0.2583;-0.1458
0000923632;6.5745;2.8730;-0.1556;-0.7973;0.2743;-0.1206
0000923641;6.4236;2.9137;0.0096;-0.7929;0.2814;-0.0957
0000923653;6.2058;2.8826;0.0287;-0.7802;0.2730;-0.0734
0000923662;6.1172;2.9449;0.2945;-0.7673;0.2531;-0.0641
0000923675;6.2106;3.0837;0.5674;-0.7472;0.2250;-0.0568
0000923684;6.1124;2.9640;0.7494;-0.7348;0.2062;-0.0510
0000923693;6.0908;2.9568;0.9553;-0.7177;0.1719;-0.0621
0000923705;6.1651;3.1867;1.0822;-0.7040;0.1351;-0.0693
0000923714;5.6910;2.6815;1.3599;-0.6967;0.1111;-0.0678
0000923727;5.9233;2.6624;1.2809;-0.6690;0.0745;-0.0633
0000923736;5.7772;2.3248;1.3886;-0.6440;0.0364;-0.0638
0000923748;5.6407;2.2505;1.5227;-0.6145;0.0067;-0.0524
0000923757;5.9280;2.2841;1.5826;-0.5810;-0.0101;-0.0337
0000923770;6.1004;2.2553;1.6783;-0.5337;-0.0317;-0.0236
0000923779;6.5027;2.5666;1.6688;-0.5143;-0.0377;-0.0224
0000923788;6.3351;2.4253;1.6975;-0.4855;-0.0565;-0.0278
0000923800;6.5146;2.3583;1.7142;-0.4549;-0.0518;-0.0329
0000923809;6.6008;2.5139;1.6735;-0.4311;-0.0588;-0.0428
0000923879;6.4883;2.5594;1.6975;-0.2542;-0.1170;-0.0329
0000923888;6.8163;2.7150;1.6448;-0.2318;-0.1284;-0.0370
0000923900;6.8067;2.8611;1.6209;-0.2142;-0.1280;-0.0257
0000923909;6.8378;2.8491;1.5921;-0.1974;-0.1243;-0.0232
0000923922;6.9360;2.9832;1.5538;-0.1835;-0.1164;-0.0233
0000923931;6.7229;2.7533;1.5036;-0.1819;-0.1087;-0.0195
0000923940;6.9360;3.0215;1.6089;-0.1637;-0.0979;-0.0212
0000923952;6.9073;2.7869;1.6879;-0.1400;-0.0859;-0.0218
0000923961;6.9145;2.7773;1.6831;-0.1323;-0.0681;-0.0173
0000923974;6.7924;2.7390;1.6568;-0.1034;-0.0468;-0.0207
0000923983;7.0629;2.8084;1.7214;-0.0854;-0.0448;-0.0268
0000923995;6.6750;2.8084;1.8196;-0.0701;-0.0274;-0.0256
0000924004;6.7684;2.6791;1.7597;-0.0669;-0.0181;-0.0163
0000924017;6.8714;2.9497;1.7358;-0.0512;-0.0160;-0.0204
0000924026;6.8378;2.8419;1.7334;-0.0509;-0.0033;-0.0128
0000924035;6.7325;2.8180;1.7909;-0.0402;-0.0057;-0.0160
0000924047;6.5266;2.7485;1.7190;-0.0321;-0.0069;-0.0147
0000924056;6.7780;2.9377;1.7645;-0.0294;-0.0028;-0.0089
0000924069;6.6248;2.8467;1.8507;-0.0103;-0.0015;-0.0133
0000924078;6.4524;2.6791;1.7741;0.0011;0.0036;-0.0088
0000924090;6.5290;2.7773;1.7430;0.0187;-0.0005;-0.0047
0000924099;6.7109;2.9281;1.6903;0.0338;-0.0067;-0.0065
0000924169;6.6128;2.9832;1.4461;0.0861;-0.0320;-0.0044
0000924178;6.5912;2.9425;1.5395;0.0905;-0.0337;-0.0023
0000924187;6.5721;3.0287;1.5682;0.0941;-0.0333;0.0003
0000924199;6.5122;2.8683;1.5897;0.0999;-0.0418;0.0000
0000924208;6.6032;3.0406;1.4916;0.1063;-0.0433;0.0008
0000924221;6.6272;3.0263;1.4988;0.1108;-0.0441;0.0024
0000924230;6.6487;3.0119;1.5490;0.1065;-0.0454;0.0029
0000924242;6.5050;2.6983;1.4796;0.1132;-0.0497;-0.0013
0000924251;6.7540;2.7773;1.4581;0.1180;-0.0561;-0.0087
0000924260;6.6176;2.9473;1.4246;0.1220;-0.0585;-0.0028
0000924273;6.5553;2.9329;1.4413;0.1206;-0.0545;-0.0040
0000924282;6.6008;2.9784;1.4557;0.1268;-0.0648;-0.0096
0000924294;6.7421;3.0143;1.3934;0.1260;-0.0618;-0.0100
0000924303;6.6774;2.9928;1.4461;0.1383;-0.0613;-0.0107
0000924316;6.7253;3.0143;1.3910;0.1426;-0.0626;-0.0119
0000924325;6.7109;2.9640;1.3623;0.1386;-0.0592;-0.0064
0000924334;6.6295;3.0837;1.3336;0.1390;-0.0581;-0.0065
0000924346;6.5410;2.9449;1.2857;0.1400;-0.0620;-0.0096
0000924355;6.6774;3.0119;1.2234;0.1439;-0.0745;-0.0145
0000924368;6.5793;3.0526;1.2809;0.1402;-0.0767;-0.0199
0000924377;6.6607;3.0646;1.1612;0.1318;-0.0735;-0.0132
0000924389;6.6942;3.0742;1.1612;0.1296;-0.0721;-0.0131
0000924398;6.7469;3.1340;1.1612;0.1291;-0.0713;-0.0209
0000924468;6.6822;3.1987;1.0127;0.1057;-0.0457;-0.0165
0000924477;6.7109;3.1340;1.0534;0.1082;-0.0496;-0.0183
0000924486;6.5745;3.0694;1.0534;0.1026;-0.0488;-0.0140
0000924498;6.6774;3.1388;1.1037;0.1047;-0.0537;-0.0195
0000924507;6.5386;3.0646;1.0391;0.0919;-0.0469;-0.0145
0000924520;6.5434;3.0909;1.0391;0.0905;-0.0465;-0.0155
0000924529;6.7469;3.2417;1.0199;0.0941;-0.0533;-0.0261
0000924541;6.6200;3.0263;0.9864;0.0918;-0.0545;-0.0199
0000924550;6.6343;3.1196;1.0127;0.0867;-0.0488;-0.0131
0000924559;6.7804;3.1963;0.9433;0.0863;-0.0541;-0.0195
0000924572;6.6726;3.1651;0.9385;0.0831;-0.0577;-0.0188
0000924581;6.6966;3.0981;0.9601;0.0727;-0.0505;-0.0124
0000924593;6.6272;3.2082;0.8691;0.0701;-0.0546;-0.0171
0000924602;6.7109;3.1460;0.8763;0.0638;-0.0537;-0.0155
0000924615;6.6559;3.2801;0.9553;0.0586;-0.0576;-0.0195
0000924624;6.4955;2.9640;0.9936;0.0576;-0.0557;-0.0185
0000924636;6.6846;3.1316;0.9002;0.0608;-0.0657;-0.0224
0000924645;6.5817;3.1508;0.9290;0.0462;-0.0550;-0.0119
0000924654;6.6870;3.1747;0.9098;0.0589;-0.0640;-0.0157
0000924667;6.6511;3.1077;0.8595;0.0554;-0.0661;-0.0163
0000924676;6.7109;3.1292;0.8643;0.0481;-0.0624;-0.0080
0000924688;6.7014;3.2346;0.9457;0.0493;-0.0641;-0.0135
0000924697;6.5553;3.1364;0.9194;0.0368;-0.0666;-0.0164
0000924767;6.7971;3.1316;0.8859;0.0177;-0.0717;-0.0176
0000924776;6.6343;3.1316;0.8188;0.0136;-0.0793;-0.0250
0000924785;6.5817;3.1508;0.7638;0.0124;-0.0709;-0.0204
0000924798;6.6511;3.1316;0.7302;0.0061;-0.0674;-0.0197
0000924807;6.7756;3.1532;0.7446;0.0033;-0.0682;-0.0250
0000924819;6.7732;3.2226;0.7709;-0.0019;-0.0589;-0.0229
0000924828;6.7564;3.1316;0.7661;-0.0056;-0.0532;-0.0179
0000924841;6.7852;3.1029;0.9361;-0.0084;-0.0422;-0.0144
0000924850;6.6966;3.0191;0.9385;-0.0059;-0.0426;-0.0185
0000924862;6.6104;2.9616;0.9218;-0.0053;-0.0417;-0.0187
0000924871;6.5745;3.0071;0.9146;0.0065;-0.0544;-0.0221
0000924880;6.5410;2.9616;0.8763;0.0037;-0.0486;-0.0136
0000924893;6.5098;2.9999;0.8045;0.0052;-0.0456;-0.0113
0000924902;6.7876;3.1627;0.8068;0.0104;-0.0504;-0.0165
0000924914;6.7086;3.1196;0.7997;0.0035;-0.0392;-0.0133
0000924923;6.6583;3.1005;0.7805;0.0052;-0.0309;-0.0043
0000924936;6.8043;3.1603;0.9266;0.0040;-0.0184;-0.0067
0000924945;6.7325;3.2226;0.8739;0.0000;-0.0108;0.0003
0000924957;6.7445;3.2513;0.8380;0.0068;-0.0089;-0.0001
0000924966;6.5888;3.0287;0.8116;0.0071;-0.0069;0.0037
0000924975;6.4620;3.0215;0.8380;0.0157;-0.0212;-0.0007
0000924988;6.5003;3.0382;0.8308;0.0137;-0.0330;0.0009
0000924997;6.4524;3.0382;0.7494;0.0139;-0.0396;0.0024
0000925067;6.7253;3.0406;0.8715;0.0309;-0.1547;-0.0457
0000925076;6.6248;3.0287;0.9098;0.0384;-0.1623;-0.0558
0000925089;6.5362;2.8491;0.9218;0.0460;-0.1707;-0.0601
0000925098;6.6367;3.0023;0.8811;0.0490;-0.1648;-0.0541
0000925107;6.8091;3.1340;0.8643;0.0493;-0.1604;-0.0505
0000925119;6.8139;3.1484;0.7853;0.0461;-0.1494;-0.0440
0000925128;6.8163;3.1484;0.7925;0.0393;-0.1367;-0.0374
0000925141;6.9384;3.1867;0.6608;0.0209;-0.1070;-0.0264
0000925150;6.9312;3.2106;0.6464;0.0133;-0.0950;-0.0274
0000925162;6.8857;3.2322;0.6081;-0.0016;-0.0677;-0.0128
0000925171;6.8929;3.2322;0.5076;-0.0065;-0.0553;-0.0157
0000925184;6.6894;3.2298;0.5650;-0.0148;-0.0457;-0.0168
0000925193;6.6583;3.3064;0.4932;-0.0258;-0.0290;-0.0049
0000925202;6.4691;3.0287;0.6321;-0.0155;-0.0342;-0.0151
0000925214;6.7301;3.2705;0.5890;-0.0217;-0.0236;-0.0115
0000925223;6.6080;3.2609;0.6967;-0.0320;-0.0139;-0.0051
0000925236;6.6846;3.2537;0.6297;-0.0369;-0.0079;-0.0001
0000925245;6.7349;3.1364;0.7230;-0.0408;-0.0027;0.0007
0000925257;6.8139;3.0933;0.7446;-0.0405;0.0011;0.0056
0000925266;6.8115;3.0430;0.7661;-0.0348;0.0040;0.0055
0000925275;6.7469;3.0813;0.8930;-0.0354;0.0093;0.0069
0000925288;6.5553;2.9784;0.7997;-0.0334;0.0129;0.0035
0000925297;6.7445;3.0742;0.7757;-0.0320;0.0104;0.0003
0000925367;6.3542;2.9808;0.8954;-0.0382;-0.0151;-0.0028
0000925376;6.6200;2.9497;0.8859;-0.0341;-0.0300;-0.0076
0000925389;6.3925;2.7677;0.8739;-0.0207;-0.0450;-0.0063
0000925398;6.5984;2.9640;0.8356;-0.0184;-0.0446;-0.0041
0000925410;6.5601;2.9880;0.8739;-0.0057;-0.0570;-0.0013
0000925419;6.4093;2.9808;0.8787;0.0007;-0.0618;-0.0004
0000925428;6.5434;3.0622;0.9002;0.0024;-0.0624;0.0031
0000925441;6.5793;3.1627;0.9026;0.0060;-0.0673;0.0053
0000925450;6.6248;3.0598;0.8308;0.0085;-0.0735;0.0017
0000925462;6.6774;3.1388;0.8475;0.0123;-0.0715;0.0040
0000925471;6.5673;2.9209;0.8619;0.0112;-0.0735;0.0059
0000925484;6.7588;3.0646;0.8619;0.0173;-0.0774;0.0044
0000925493;6.6319;2.9185;0.8116;0.0167;-0.0735;0.0117
0000925502;6.6535;3.0646;0.7661;0.0234;-0.0814;0.0031
0000925514;6.6128;2.9329;0.7614;0.0200;-0.0707;0.0071
0000925523;6.6535;3.1196;0.7949;0.0293;-0.0773;0.0033
0000925536;6.8666;3.0957;0.7374;0.0322;-0.0718;-0.0013
0000925545;6.7852;3.1196;0.7781;0.0277;-0.0624;0.0005
0000925557;6.7708;3.1005;0.7087;0.0252;-0.0581;-0.0081
0000925566;6.8115;3.2489;0.8212;0.0221;-0.0546;-0.0013
0000925575;6.6894;3.0861;0.7398;0.0237;-0.0610;-0.0107
0000925588;6.7804;3.2178;0.6536;0.0183;-0.0492;-0.0065
0000925597;6.8785;3.1005;0.7326;0.0213;-0.0442;-0.0052
0000925667;6.6870;3.1340;0.7207;0.0149;-0.0246;-0.0100
0000925676;6.8139;3.2298;0.6895;0.0139;-0.0226;-0.0147
0000925689;6.6798;3.0813;0.7398;0.0117;-0.0256;-0.0144
0000925698;6.7373;3.2441;0.7302;0.0192;-0.0290;-0.0163
0000925710;6.6463;3.1029;0.7494;0.0125;-0.0297;-0.0167
0000925719;6.7349;3.1699;0.6943;0.0093;-0.0262;-0.0105
0000925728;6.5505;3.0358;0.7685;0.0124;-0.0285;-0.0083
0000925741;6.5912;2.9592;0.7063;0.0056;-0.0340;-0.0088
0000925750;6.5697;3.0885;0.7446;0.0127;-0.0397;-0.0101
0000925762;6.7181;3.1005;0.6536;0.0132;-0.0441;-0.0051
0000925771;6.7133;3.1412;0.7470;0.0137;-0.0385;-0.0047
0000925784;6.6990;3.2417;0.6895;0.0148;-0.0418;-0.0055
0000925793;6.5146;2.8563;0.6776;0.0109;-0.0441;-0.0035
0000925802;6.8378;3.1268;0.6919;0.0184;-0.0484;-0.0104
0000925814;6.8977;3.1388;0.6895;0.0193;-0.0477;-0.0124
0000925823;6.6535;2.9760;0.6488;0.0115;-0.0472;-0.0073
0000925836;6.6870;3.1268;0.6321;0.0093;-0.0450;-0.0088
0000925845;6.6367;3.1077;0.6943;0.0096;-0.0548;-0.0172
0000925857;6.6894;3.1603;0.6632;0.0039;-0.0497;-0.0103
0000925866;6.5745;3.0167;0.6584;0.0084;-0.0584;-0.0152
0000925879;6.7780;3.2992;0.6081;-0.0024;-0.0473;-0.0095
0000925888;6.8259;3.0670;0.6991;-0.0027;-0.0460;-0.0133
0000925897;6.8187;3.0957;0.7781;0.0021;-0.0438;-0.0164
0000925967;6.6942;3.2298;0.6440;-0.0220;-0.0317;-0.0204
0000925976;6.7588;3.2346;0.6871;-0.0256;-0.0278;-0.0189
0000925989;6.5481;3.0239;0.7278;-0.0249;-0.0313;-0.0177
0000925998;6.6750;3.0861;0.5650;-0.0226;-0.0366;-0.0229
0000926010;6.7947;3.0167;0.6297;-0.0272;-0.0326;-0.0233
0000926019;6.4524;2.9425;0.6680;-0.0302;-0.0308;-0.0208
0000926032;6.7109;3.1364;0.5435;-0.0296;-0.0306;-0.0203
0000926041;6.6511;3.0861;0.5746;-0.0334;-0.0261;-0.0203
0000926050;6.5050;3.1891;0.6416;-0.0310;-0.0357;-0.0285
0000926062;6.6319;3.0263;0.6488;-0.0354;-0.0340;-0.0191
0000926071;6.5817;3.1340;0.6560;-0.0298;-0.0417;-0.0208
0000926084;6.7086;3.0430;0.6991;-0.0308;-0.0450;-0.0188
0000926093;6.7588;3.1436;0.7135;-0.0348;-0.0426;-0.0108
0000926105;6.7564;3.2298;0.7326;-0.0377;-0.0490;-0.0131
0000926114;6.5577;3.1460;0.7159;-0.0309;-0.0577;-0.0176
0000926127;6.6008;3.1196;0.6800;-0.0268;-0.0608;-0.0211
0000926136;6.6870;3.1364;0.6800;-0.0310;-0.0534;-0.0107
0000926145;6.6511;2.9640;0.7135;-0.0296;-0.0622;-0.0161
0000926157;6.7253;3.1077;0.6656;-0.0294;-0.0644;-0.0238
0000926166;6.7325;3.0023;0.7470;-0.0266;-0.0597;-0.0145
0000926180;6.8881;3.2394;0.7063;-0.0254;-0.0625;-0.0165
0000926189;6.8738;3.2274;0.7135;-0.0196;-0.0675;-0.0257
0000926259;6.7109;3.0813;0.7039;-0.0165;-0.0450;-0.0216
0000926268;6.6559;3.1244;0.6800;-0.0216;-0.0397;-0.0224
0000926280;6.8666;3.1364;0.6823;-0.0212;-0.0345;-0.0233
0000926289;6.7229;3.1340;0.7207;-0.0236;-0.0374;-0.0205
0000926298;6.7780;3.1867;0.6321;-0.0188;-0.0418;-0.0258
0000926311;6.6559;3.1292;0.7350;-0.0213;-0.0361;-0.0232
0000926320;6.7971;3.2513;0.6345;-0.0233;-0.0352;-0.0242
0000926332;6.6798;3.1747;0.6680;-0.0278;-0.0305;-0.0222
0000926341;6.5434;3.0789;0.6680;-0.0258;-0.0364;-0.0253
0000926354;6.8546;3.3160;0.6800;-0.0250;-0.0366;-0.0254
0000926363;6.5505;2.9880;0.7661;-0.0276;-0.0354;-0.0171
0000926375;6.7516;3.1364;0.6704;-0.0237;-0.0342;-0.0173
0000926384;6.7900;3.2896;0.7183;-0.0248;-0.0417;-0.0172
0000926393;6.7540;3.2346;0.6800;-0.0207;-0.0438;-0.0160
0000926406;6.6080;3.1029;0.7063;-0.0222;-0.0425;-0.0121
0000926415;6.6990;3.2058;0.6728;-0.0236;-0.0476;-0.0195
0000926427;6.7708;3.1603;0.7374;-0.0288;-0.0433;-0.0127
0000926436;6.6415;3.1627;0.7997;-0.0160;-0.0497;-0.0201
0000926449;6.7684;3.1891;0.7470;-0.0220;-0.0580;-0.0224
0000926458;6.6439;3.0694;0.7230;-0.0257;-0.0548;-0.0127
0000926470;6.6702;3.1029;0.7518;-0.0201;-0.0610;-0.0188
0000926479;6.5434;2.9904;0.7087;-0.0211;-0.0598;-0.0175
0000926488;6.6918;3.1005;0.7015;-0.0148;-0.0657;-0.0169
0000926558;6.7133;3.0646;0.7590;-0.0147;-0.0753;-0.0226
0000926567;6.7253;2.9951;0.7326;-0.0157;-0.0706;-0.0164
0000926579;6.9432;3.0981;0.6704;-0.0043;-0.0706;-0.0209
0000926588;6.8091;3.0885;0.7278;-0.0095;-0.0637;-0.0183
0000926601;6.7014;3.0646;0.7111;-0.0116;-0.0573;-0.0199
0000926610;6.7325;3.1747;0.7614;-0.0007;-0.0617;-0.0211
0000926622;6.7564;3.1747;0.7087;0.0039;-0.0565;-0.0183
0000926631;6.8857;3.1364;0.7326;-0.0020;-0.0498;-0.0152
0000926640;6.6822;3.0406;0.6800;0.0020;-0.0546;-0.0189
0000926653;6.7947;3.1843;0.6943;-0.0024;-0.0456;-0.0176
0000926662;6.7971;3.0622;0.7063;-0.0076;-0.0425;-0.0173
0000926674;6.9121;3.1196;0.6512;-0.0032;-0.0308;-0.0119
0000926683;6.6990;3.1125;0.6823;0.0008;-0.0298;-0.0189
0000926696;6.8498;3.1220;0.6823;0.0011;-0.0280;-0.0165
0000926705;6.7325;3.1867;0.7494;0.0024;-0.0216;-0.0161
0000926717;6.6032;3.1532;0.6704;0.0081;-0.0284;-0.0201
0000926726;6.6224;3.0885;0.7207;-0.0043;-0.0274;-0.0149
0000926735;6.6822;3.1436;0.6943;0.0005;-0.0357;-0.0177
0000926748;6.7181;3.2154;0.6393;-0.0065;-0.0354;-0.0111
0000926757;6.5529;3.0263;0.6584;-0.0084;-0.0373;-0.0177
0000926769;6.6272;3.1316;0.5602;-0.0151;-0.0305;-0.0124
0000926778;6.4835;3.1556;0.5962;-0.0093;-0.0404;-0.0196
0000926848;6.6367;2.9401;0.6728;-0.0284;-0.0281;-0.0159
0000926857;6.7469;3.1101;0.7111;-0.0360;-0.0189;-0.0016
0000926869;6.7086;3.1101;0.7925;-0.0305;-0.0173;-0.0013
0000926878;6.7684;3.0119;0.7278;-0.0228;-0.0175;-0.0073
0000926887;6.7109;2.9305;0.7925;-0.0217;-0.0144;0.0023
0000926900;6.5625;2.9688;0.7733;-0.0173;-0.0125;0.0047
0000926909;6.7421;3.1556;0.7614;-0.0095;-0.0144;0.0055
0000926921;6.5146;2.9736;0.7973;-0.0004;-0.0195;0.0103
0000926930;6.5673;2.9497;0.8140;0.0059;-0.0326;0.0056
0000926943;6.5936;3.0526;0.7853;0.0024;-0.0338;0.0015
0000926952;6.8378;3.1963;0.7709;-0.0077;-0.0346;0.0056
0000926961;6.8833;3.1173;0.7446;-0.0057;-0.0425;-0.0067
0000926973;6.7900;3.2082;0.7183;-0.0128;-0.0397;-0.0147
0000926982;6.7684;3.2058;0.7207;-0.0089;-0.0462;-0.0237
0000926995;6.8929;3.2441;0.6776;-0.0097;-0.0408;-0.0301
0000927004;6.8283;3.1987;0.6536;-0.0128;-0.0416;-0.0253
0000927016;6.8211;3.1173;0.5555;-0.0039;-0.0457;-0.0253
0000927025;6.7253;3.0670;0.6847;-0.0088;-0.0461;-0.0159
0000927038;6.5553;3.0765;0.7326;-0.0012;-0.0497;-0.0144
0000927047;6.6152;3.1580;0.7230;0.0075;-0.0518;-0.0121
0000927056;6.7157;3.1651;0.6321;-0.0021;-0.0433;-0.0057
0000927068;6.5601;3.1603;0.6704;-0.0005;-0.0380;-0.0007
0000927077;6.6607;3.1101;0.6369;-0.0003;-0.0425;-0.0017
0000927147;6.7971;3.1819;0.7757;-0.0053;-0.0398;0.0091
0000927156;6.6415;2.9305;0.7685;-0.0079;-0.0433;0.0081
0000927168;6.8331;3.1316;0.7422;-0.0021;-0.0444;0.0071
0000927177;6.7660;3.0191;0.7470;0.0000;-0.0506;0.0039
0000927190;6.8881;3.1173;0.7374;-0.0005;-0.0514;-0.0051
0000927199;6.9216;3.1627;0.6369;0.0053;-0.0545;-0.0173
0000927208;6.8977;3.0550;0.6991;0.0016;-0.0449;-0.0151
0000927220;6.8738;3.2010;0.6656;0.0005;-0.0425;-0.0216
0000927229;6.8498;3.2753;0.7135;-0.0048;-0.0314;-0.0236
0000927242;6.8953;3.2561;0.5986;-0.0048;-0.0272;-0.0204
0000927251;6.9145;3.2322;0.5626;-0.0005;-0.0306;-0.0264
0000927263;6.7612;3.1125;0.6201;-0.0073;-0.0246;-0.0175
0000927272;6.7660;3.0382;0.6273;-0.0044;-0.0211;-0.0129
0000927285;6.6439;3.0622;0.5914;-0.0055;-0.0175;-0.0183
0000927294;6.6008;3.0742;0.5962;-0.0087;-0.0188;-0.0236
0000927303;6.7780;3.1915;0.6416;-0.0053;-0.0184;-0.0252
0000927315;6.8402;3.1939;0.6776;-0.0111;-0.0177;-0.0256
0000927324;6.5553;3.0406;0.6871;-0.0139;-0.0160;-0.0272
0000927337;6.7852;3.3184;0.6416;-0.0124;-0.0226;-0.0228
0000927346;6.7325;3.1292;0.7518;-0.0135;-0.0277;-0.0249
0000927358;6.5984;3.0885;0.7063;-0.0149;-0.0269;-0.0163
0000927367;6.5745;3.0550;0.7015;-0.0092;-0.0361;-0.0191
0000927437;6.7109;3.2154;0.6608;-0.0163;-0.0302;-0.0147
0000927446;6.7181;3.1699;0.6321;-0.0148;-0.0324;-0.0160
0000927455;6.5984;3.0358;0.6776;-0.0095;-0.0364;-0.0149
0000927467;6.7301;3.1603;0.5890;-0.0088;-0.0358;-0.0120
0000927476;6.6655;3.0933;0.6560;-0.0207;-0.0329;-0.0107
0000927489;6.7253;3.1436;0.6297;-0.0173;-0.0301;-0.0115
0000927498;6.7181;3.1316;0.6249;-0.0175;-0.0282;-0.0135
0000927510;6.6032;2.9880;0.6488;-0.0183;-0.0320;-0.0127
0000927519;6.7732;3.0861;0.7278;-0.0222;-0.0224;-0.0087
0000927532;6.5434;3.1244;0.7159;-0.0200;-0.0212;-0.0073
0000927541;6.6128;3.1699;0.7087;-0.0156;-0.0248;-0.0140
0000927550;6.6248;3.0502;0.6847;-0.0176;-0.0209;-0.0060
0000927562;6.7445;3.1316;0.6560;-0.0205;-0.0163;-0.0048
0000927571;6.7133;3.1029;0.7494;-0.0160;-0.0244;-0.0089
0000927584;6.7804;3.2058;0.6680;-0.0123;-0.0199;-0.0120
0000927593;6.7995;3.0478;0.7494;-0.0193;-0.0234;-0.0101
0000927605;6.6942;3.0694;0.7039;-0.0149;-0.0242;-0.0133
0000927614;6.7373;3.1316;0.7015;-0.0060;-0.0270;-0.0143
0000927627;6.6535;2.9473;0.7111;-0.0053;-0.0312;-0.0169
0000927636;6.6319;2.9784;0.7015;-0.0096;-0.0232;-0.0100
0000927645;6.6822;3.1101;0.7326;-0.0087;-0.0281;-0.0107
0000927657;6.7014;3.0813;0.6105;-0.0064;-0.0328;-0.0127
0000927666;6.7325;3.0837;0.6464;-0.0029;-0.0392;-0.0108
0000927736;6.7756;3.1077;0.6895;-0.0031;-0.0308;-0.0151
0000927745;6.7947;3.1939;0.6776;-0.0011;-0.0357;-0.0201
0000927758;6.7445;3.1603;0.6608;-0.0028;-0.0366;-0.0197
0000927767;6.6750;3.0526;0.6321;-0.0112;-0.0316;-0.0139
0000927779;6.7708;3.1316;0.5650;-0.0139;-0.0297;-0.0139
0000927788;6.6128;3.1556;0.7326;-0.0089;-0.0356;-0.0159
0000927797;6.6104;3.0406;0.6919;-0.0136;-0.0342;-0.0168
0000927810;6.7756;3.0215;0.7494;-0.0113;-0.0337;-0.0095
0000927819;6.9264;3.1508;0.7087;0.0005;-0.0438;-0.0238
0000927831;6.6439;2.9808;0.6536;0.0031;-0.0413;-0.0272
0000927840;6.8474;3.1771;0.6656;0.0029;-0.0384;-0.0221
0000927853;6.5410;3.0143;0.6345;0.0025;-0.0369;-0.0241
0000927862;6.7947;3.2394;0.6800;0.0037;-0.0418;-0.0215
0000927874;6.5769;3.0909;0.6416;0.0055;-0.0462;-0.0209
0000927883;6.5410;3.0095;0.6680;0.0137;-0.0589;-0.0272
0000927892;6.6559;3.1436;0.7278;0.0125;-0.0530;-0.0196
0000927905;6.7516;2.9592;0.5986;0.0183;-0.0613;-0.0164
0000927914;6.7038;2.9928;0.6632;0.0248;-0.0628;-0.0284
0000927926;6.9216;3.0837;0.6895;0.0262;-0.0508;-0.0197
0000927935;6.7732;2.9616;0.6416;0.0361;-0.0542;-0.0265
0000928004;6.8570;3.1819;0.4549;0.0144;-0.0093;-0.0112
0000928013;6.8259;3.1723;0.5052;0.0172;-0.0119;-0.0151
0000928022;6.7181;3.1556;0.4645;0.0083;-0.0008;-0.0119
0000928034;6.7205;3.3303;0.5028;0.0057;0.0025;-0.0141
0000928043;6.7014;3.2896;0.4908;-0.0024;-0.0017;-0.0232
0000928056;6.7421;3.2609;0.4573;-0.0104;0.0001;-0.0229
0000928065;6.8714;3.3878;0.4860;-0.0232;0.0077;-0.0159
0000928077;6.5984;3.0718;0.5626;-0.0333;0.0069;-0.0116
0000928086;6.6487;3.1771;0.5555;-0.0294;-0.0009;-0.0205
0000928099;6.7205;3.1843;0.5698;-0.0246;-0.0044;-0.0147
0000928108;6.7516;3.0526;0.5962;-0.0302;0.0000;-0.0125
0000928117;6.5481;2.9616;0.5411;-0.0252;-0.0164;-0.0184
0000928129;6.6798;3.0047;0.5866;-0.0321;-0.0152;-0.0157
0000928138;6.5601;3.1747;0.6129;-0.0261;-0.0196;-0.0220
0000928151;6.6128;3.1747;0.6153;-0.0288;-0.0250;-0.0200
0000928160;6.6511;3.2058;0.6464;-0.0405;-0.0209;-0.0160
0000928172;6.6008;3.1699;0.7111;-0.0380;-0.0244;-0.0165
0000928181;6.7301;3.1101;0.6464;-0.0408;-0.0286;-0.0188
0000928194;6.6942;3.2705;0.6440;-0.0381;-0.0293;-0.0196
0000928203;6.8618;3.1125;0.6728;-0.0309;-0.0294;-0.0141
0000928212;6.6535;2.9473;0.7207;-0.0344;-0.0290;-0.0135
0000928224;6.6679;3.1508;0.6632;-0.0249;-0.0349;-0.0092
0000928233;6.6319;3.0550;0.6871;-0.0177;-0.0440;-0.0144
0000928301;6.8354;3.1292;0.6536;-0.0305;-0.0659;-0.0157
0000928310;6.9312;2.9951;0.5746;-0.0241;-0.0613;-0.0192
0000928322;6.9863;3.0742;0.6297;-0.0257;-0.0453;-0.0224
0000928331;6.8474;2.9544;0.6393;-0.0265;-0.0217;-0.0147
0000928344;6.8594;3.0095;0.6752;-0.0220;-0.0037;-0.0157
0000928353;6.8283;3.1556;0.6201;-0.0216;-0.0081;-0.0225
0000928362;6.6343;3.1747;0.6393;-0.0269;0.0053;-0.0165
0000928374;6.7684;3.2250;0.5818;-0.0254;0.0005;-0.0175
0000928383;6.6583;3.2298;0.6608;-0.0330;-0.0011;-0.0222
0000928396;6.6224;3.1843;0.6081;-0.0338;-0.0091;-0.0269
0000928405;6.7181;3.2394;0.5962;-0.0385;-0.0056;-0.0179
0000928417;6.6559;3.2226;0.6057;-0.0372;-0.0135;-0.0192
0000928426;6.6152;2.9975;0.7015;-0.0332;-0.0180;-0.0252
0000928439;6.6798;3.0143;0.6800;-0.0352;-0.0167;-0.0222
0000928448;6.7062;3.1316;0.6249;-0.0332;-0.0080;-0.0199
0000928457;6.6343;3.0933;0.7518;-0.0346;-0.0075;-0.0233
0000928469;6.6319;3.0143;0.6416;-0.0276;-0.0037;-0.0183
0000928478;6.4500;3.0287;0.6464;-0.0246;-0.0084;-0.0241
0000928491;6.4859;3.0430;0.7398;-0.0218;-0.0143;-0.0225
0000928500;6.4667;3.0191;0.7614;-0.0230;-0.0140;-0.0152
0000928512;6.5505;3.0430;0.6991;-0.0153;-0.0272;-0.0191
0000928521;6.5242;3.0430;0.7470;-0.0192;-0.0249;-0.0091
0000928591;6.7612;3.0765;0.6249;-0.0109;-0.0329;-0.0155
0000928600;6.7780;3.2226;0.6608;-0.0104;-0.0362;-0.0139
0000928609;6.6702;3.1963;0.6297;-0.0053;-0.0341;-0.0125
0000928621;6.4452;3.1340;0.5602;0.0005;-0.0382;-0.0119
0000928630;6.5673;3.0430;0.6273;-0.0109;-0.0344;-0.0088
0000928643;6.7062;3.1699;0.5914;-0.0065;-0.0348;-0.0096
0000928652;6.8354;3.1819;0.5602;-0.0043;-0.0369;-0.0172
0000928664;6.8546;3.2705;0.6823;-0.0104;-0.0342;-0.0128
0000928673;6.6631;3.0622;0.5507;-0.0024;-0.0406;-0.0191
0000928686;6.8019;3.1987;0.6153;-0.0044;-0.0324;-0.0183
0000928695;6.7493;3.2010;0.5722;-0.0049;-0.0268;-0.0153
0000928704;6.6559;3.1053;0.6584;-0.0079;-0.0249;-0.0129
0000928716;6.6894;3.0694;0.6776;-0.0088;-0.0244;-0.0151
0000928725;6.4979;3.0718;0.6393;-0.0068;-0.0265;-0.0120
0000928738;6.7157;3.2250;0.5938;-0.0099;-0.0300;-0.0143
0000928747;6.6894;3.1029;0.7015;-0.0104;-0.0302;-0.0144
0000928759;6.7205;3.1460;0.5746;-0.0127;-0.0312;-0.0099
0000928768;6.8690;3.0694;0.5914;-0.0101;-0.0388;-0.0187
0000928781;6.6463;3.0526;0.5363;-0.0056;-0.0352;-0.0183
0000928790;6.6846;3.1053;0.6033;-0.0123;-0.0312;-0.0148
0000928799;6.7349;3.1268;0.6033;-0.0064;-0.0366;-0.0199
0000928811;6.5960;3.0502;0.6369;-0.0139;-0.0342;-0.0163
0000928820;6.6272;3.0909;0.6393;-0.0133;-0.0340;-0.0172
0000928890;6.5457;3.0287;0.5986;-0.0256;-0.0289;-0.0127
0000928899;6.7014;3.2729;0.6105;-0.0199;-0.0337;-0.0187
0000928911;6.6559;3.1077;0.5674;-0.0201;-0.0326;-0.0185
0000928920;6.7062;3.0789;0.5794;-0.0258;-0.0277;-0.0129
0000928933;6.4596;2.9568;0.6512;-0.0233;-0.0280;-0.0160
0000928942;6.6463;3.1196;0.6177;-0.0192;-0.0289;-0.0195
0000928951;6.6583;3.1340;0.6129;-0.0242;-0.0229;-0.0121
0000928963;6.7971;3.2322;0.7470;-0.0200;-0.0309;-0.0145
0000928972;6.7421;3.1077;0.6776;-0.0201;-0.0262;-0.0204
0000928985;6.6822;3.1244;0.6919;-0.0213;-0.0332;-0.0183
0000928994;6.6870;3.1412;0.6345;-0.0201;-0.0340;-0.0171
0000929006;6.6607;3.1388;0.7063;-0.0203;-0.0384;-0.0175
0000929015;6.6535;3.1508;0.5986;-0.0229;-0.0288;-0.0136
0000929028;6.7564;3.1771;0.6033;-0.0269;-0.0329;-0.0168
0000929037;6.7947;3.2537;0.6512;-0.0201;-0.0404;-0.0217
0000929046;6.7828;3.1532;0.6249;-0.0301;-0.0309;-0.0131
0000929058;6.6463;3.1125;0.6321;-0.0264;-0.0317;-0.0144
0000929067;6.7516;3.0382;0.6273;-0.0318;-0.0360;-0.0184
0000929080;6.8163;3.0981;0.6249;-0.0277;-0.0382;-0.0156
0000929089;6.6415;3.0478;0.6440;-0.0215;-0.0394;-0.0189
0000929101;6.7421;3.1508;0.6728;-0.0203;-0.0414;-0.0176
0000929110;6.5649;3.0311;0.6656;-0.0244;-0.0325;-0.0100
0000929180;6.6990;3.0718;0.7015;-0.0209;-0.0294;-0.0097
0000929189;6.7397;3.0957;0.7302;-0.0241;-0.0348;-0.0132
0000929198;6.6679;3.0670;0.6440;-0.0226;-0.0349;-0.0115
0000929211;6.7133;3.0789;0.6967;-0.0257;-0.0301;-0.0120
0000929220;6.6248;3.0789;0.7111;-0.0215;-0.0256;-0.0128
0000929232;6.6343;3.0311;0.6057;-0.0220;-0.0312;-0.0105
0000929241;6.9264;3.2441;0.6680;-0.0156;-0.0341;-0.0129
0000929254;6.6798;3.0957;0.6081;-0.0184;-0.0321;-0.0143
0000929263;6.6798;3.0215;0.7207;-0.0221;-0.0252;-0.0113
0000929275;6.6559;3.0694;0.6752;-0.0212;-0.0240;-0.0167
0000929284;6.7205;3.2226;0.5842;-0.0280;-0.0218;-0.0128
0000929293;6.7804;3.1747;0.6632;-0.0211;-0.0293;-0.0195
0000929306;6.6272;3.1460;0.6440;-0.0248;-0.0285;-0.0161
0000929315;6.8019;3.1412;0.6488;-0.0266;-0.0192;-0.0119
0000929327;6.5936;3.0430;0.6369;-0.0250;-0.0205;-0.0152
0000929336;6.8690;3.1292;0.6919;-0.0253;-0.0133;-0.0153
0000929349;6.7780;3.0646;0.7230;-0.0199;-0.0168;-0.0149
0000929358;6.6655;3.0694;0.6943;-0.0143;-0.0196;-0.0163
0000929370;6.6822;2.9760;0.6895;-0.0121;-0.0207;-0.0228
0000929379;6.4404;2.8252;0.7494;-0.0177;-0.0173;-0.0143
0000929388;6.6774;3.1316;0.6895;-0.0151;-0.0205;-0.0143
0000929401;6.6990;3.1436;0.7063;-0.0133;-0.0193;-0.0141
0000929410;6.7014;3.1963;0.7039;-0.0173;-0.0278;-0.0148
0000929480;6.6391;3.1101;0.7398;-0.0067;-0.0290;-0.0125
0000929489;6.7564;3.1316;0.6632;0.0008;-0.0368;-0.0167
0000929502;6.6152;3.0430;0.6608;0.0013;-0.0388;-0.0091
0000929511;6.6343;3.1675;0.6321;-0.0025;-0.0313;-0.0111
0000929521;6.6032;3.0765;0.6680;-0.0012;-0.0436;-0.0123
0000929529;6.5122;3.1029;0.5986;-0.0025;-0.0381;-0.0101
0000929537;6.5912;3.1651;0.6464;-0.0084;-0.0394;-0.0111
0000929549;6.6272;3.0957;0.5962;-0.0105;-0.0426;-0.0099
0000929557;6.8259;3.1508;0.6536;-0.0120;-0.0400;-0.0103
0000929568;6.7205;3.1077;0.6393;-0.0067;-0.0416;-0.0160
0000929576;6.6918;3.1436;0.6464;-0.0107;-0.0342;-0.0124
0000929588;6.7301;3.1891;0.6225;-0.0073;-0.0337;-0.0145
0000929596;6.7397;3.0263;0.6847;-0.0101;-0.0309;-0.0115
0000929607;6.7157;3.0406;0.7039;-0.0063;-0.0297;-0.0176
0000929615;6.8738;3.1388;0.7518;-0.0069;-0.0273;-0.0137
0000929623;6.7947;3.0598;0.6560;-0.0067;-0.0230;-0.0160
