time;acc_x;acc_y;acc_z;gyro_x;gyro_y;gyro_z
0000748449;6.5050;-15.8855;3.1891;-0.0218;-0.0199;-0.0116
0000748457;6.5122;-15.8807;3.0646;-0.0244;-0.0318;-0.0140
0000748464;6.5841;-15.6317;3.1077;-0.0325;-0.0452;-0.0136
0000748472;6.8714;-15.6844;2.8946;-0.0305;-0.0670;-0.0173
0000748539;6.7325;-15.5192;3.0478;-0.0144;-0.1703;0.0337
0000748547;6.7804;-15.5575;3.0574;-0.0121;-0.1711;0.0326
0000748559;6.7014;-15.6485;3.0047;-0.0069;-0.1781;0.0310
0000748567;6.6343;-15.7802;3.0071;0.0024;-0.1859;0.0301
0000748578;6.8570;-15.7658;3.2609;0.0136;-0.2032;0.0177
0000748586;6.5960;-15.7108;3.1532;0.0128;-0.2137;0.0127
0000748594;6.6295;-15.8400;3.2298;0.0137;-0.2302;-0.0061
0000748606;6.4045;-15.8903;3.1603;-0.0093;-0.2358;-0.0169
0000748614;6.3351;-15.7251;3.0191;-0.0233;-0.2365;-0.0250
0000748625;6.2321;-15.5288;2.9856;-0.0420;-0.2253;-0.0200
0000748633;6.2608;-15.4091;2.8467;-0.0470;-0.2114;-0.0144
0000748645;6.2058;-15.2630;2.8156;-0.0397;-0.1803;0.0097
0000748653;6.1244;-15.1697;2.6312;-0.0276;-0.1612;0.0187
0000748664;6.2201;-15.3588;2.8826;0.0071;-0.1415;0.0252
0000748672;6.2704;-15.4115;2.8635;0.0260;-0.1408;0.0238
0000748680;6.5410;-15.3947;2.8706;0.0341;-0.1334;0.0292
0000748692;6.6391;-15.6485;2.9784;0.0257;-0.1211;0.0349
0000748700;6.9264;-15.4618;3.0167;0.0129;-0.1222;0.0345
0000748711;6.6966;-15.4474;3.1268;0.0016;-0.1190;0.0478
0000748719;6.6918;-15.4641;3.0909;0.0059;-0.1252;0.0430
0000748787;6.4715;-15.6102;3.3399;-0.0348;-0.1294;0.0428
0000748795;6.3662;-15.5479;3.2154;-0.0274;-0.1172;0.0446
0000748806;6.0837;-15.6653;3.1699;-0.0005;-0.1102;0.0417
0000748814;6.1363;-15.6988;3.2801;0.0072;-0.1085;0.0286
0000748826;6.2991;-15.7515;3.2154;-0.0088;-0.0859;0.0143
0000748834;6.5529;-15.5312;3.1867;-0.0179;-0.0809;0.0133
0000748842;6.6391;-15.6988;3.2154;-0.0332;-0.0662;0.0168
0000748853;6.6224;-15.4785;3.1340;-0.0425;-0.0658;0.0261
0000748861;6.3638;-15.5839;3.1196;-0.0545;-0.0512;0.0349
0000748873;6.5769;-15.3804;2.9353;-0.0658;-0.0452;0.0410
0000748881;6.6080;-15.3995;3.0335;-0.0593;-0.0398;0.0334
0000748892;6.5529;-15.5120;3.0263;-0.0440;-0.0416;0.0228
0000748900;6.5505;-15.3851;2.9951;-0.0288;-0.0404;0.0261
0000748912;6.6391;-15.7012;3.0981;-0.0140;-0.0396;0.0128
0000748920;6.5553;-15.6892;3.0622;-0.0187;-0.0416;0.0084
0000748931;6.6774;-15.8496;3.0478;-0.0191;-0.0598;-0.0215
0000748939;6.4955;-15.9861;3.1699;-0.0177;-0.0702;-0.0389
0000748947;6.5050;-15.9669;3.2034;-0.0257;-0.0754;-0.0509
0000748959;6.5266;-15.6772;3.1627;-0.0246;-0.0931;-0.0674
0000748967;6.6894;-15.5719;3.2034;-0.0185;-0.1025;-0.0742
0000748978;6.6726;-15.5456;3.0837;-0.0039;-0.1086;-0.0758
0000748986;6.5027;-15.5336;3.0526;-0.0008;-0.1077;-0.0689
0000749054;6.6702;-15.8089;3.2106;-0.0008;-0.0961;-0.0294
0000749062;6.4236;-15.8017;3.1627;-0.0225;-0.0943;-0.0410
0000749073;6.5529;-15.3133;3.0406;-0.0301;-0.0802;-0.0629
0000749081;6.6248;-15.2319;2.9784;-0.0137;-0.0825;-0.0774
0000749093;6.6822;-15.3301;2.8132;0.0077;-0.0767;-0.0907
0000749101;6.6128;-15.0164;2.8347;0.0264;-0.0632;-0.0766
0000749109;6.4907;-15.0116;2.8683;0.0538;-0.0553;-0.0648
0000749120;6.6798;-15.2175;2.9736;0.0885;-0.0605;-0.0488
0000749128;6.6080;-15.3947;2.9425;0.1057;-0.0554;-0.0301
0000749140;6.8331;-15.4785;3.0981;0.1131;-0.0652;-0.0238
0000749148;6.9623;-15.4091;3.0742;0.1049;-0.0722;-0.0218
0000749159;6.7852;-15.5551;3.1412;0.0902;-0.0757;-0.0176
0000749167;6.5553;-15.5815;2.9281;0.0751;-0.0778;-0.0160
0000749179;6.4715;-15.4163;2.9473;0.0679;-0.0636;-0.0116
0000749187;6.3422;-15.4833;2.9449;0.0838;-0.0538;-0.0063
0000749198;6.2537;-15.3636;3.0406;0.0930;-0.0349;-0.0077
0000749206;6.1292;-15.5791;2.8970;0.0998;-0.0236;-0.0064
0000749214;6.1196;-15.5168;2.9928;0.1009;-0.0027;-0.0076
0000749226;6.1579;-15.4761;3.0933;0.0991;0.0192;-0.0116
0000749234;6.5194;-15.4905;3.2226;0.1055;0.0297;-0.0207
0000749246;6.4859;-15.6868;3.4022;0.1187;0.0502;-0.0233
0000749254;6.6080;-15.6461;3.5267;0.1354;0.0545;-0.0365
0000749322;6.3015;-15.7179;3.2154;0.0397;0.0073;-0.0489
0000749330;6.4835;-15.6365;3.0765;0.0337;0.0107;-0.0593
0000749341;6.7421;-15.6796;3.2274;0.0374;0.0163;-0.0681
0000749349;6.9504;-15.4258;3.1580;0.0321;0.0221;-0.0557
0000749357;6.9935;-15.4450;3.2657;0.0348;0.0268;-0.0416
0000749369;6.9408;-15.3564;3.2058;0.0374;0.0256;-0.0175
0000749377;6.7756;-15.4139;3.3255;0.0380;0.0188;-0.0047
0000749388;6.6822;-15.4522;3.4453;0.0400;0.0116;0.0035
0000749396;6.7301;-15.5575;3.3112;0.0330;0.0167;0.0085
0000749408;6.5338;-15.6820;3.3806;0.0325;0.0031;0.0051
0000749416;6.8283;-15.3899;3.2274;0.0397;-0.0133;-0.0041
0000749427;6.6702;-15.6006;3.2633;0.0357;-0.0257;-0.0193
0000749435;6.8091;-15.6629;3.3040;0.0430;-0.0356;-0.0249
0000749443;6.8331;-15.5886;3.2322;0.0381;-0.0441;-0.0242
0000749455;6.7852;-15.5575;3.2537;0.0528;-0.0710;-0.0261
0000749463;6.8450;-15.4546;3.1915;0.0612;-0.0799;-0.0212
0000749474;6.8187;-15.4211;3.2178;0.0862;-0.0959;-0.0087
0000749482;6.9025;-15.4330;3.1819;0.1009;-0.0990;0.0075
0000749494;6.7181;-15.5647;3.2705;0.1018;-0.1088;0.0281
0000749502;6.6726;-15.5695;3.2681;0.1017;-0.1150;0.0326
0000749514;6.7732;-15.3420;3.2274;0.0927;-0.1223;0.0417
0000749522;6.8091;-15.4641;3.3064;0.0994;-0.1279;0.0402
0000749590;6.6008;-15.6844;3.6559;0.1022;-0.2423;-0.0426
0000749598;6.5817;-15.6222;3.5745;0.0661;-0.2381;-0.0412
0000749606;6.6655;-15.2989;3.5602;0.0584;-0.2293;-0.0372
0000749617;6.4332;-15.3827;3.4884;0.0389;-0.2097;-0.0196
0000749625;6.5457;-15.1792;3.4572;0.0362;-0.1940;-0.0085
0000749637;6.4811;-15.2822;3.3710;0.0484;-0.1709;0.0105
0000749645;6.3351;-15.4043;3.5338;0.0657;-0.1660;0.0041
0000749656;6.4715;-15.4546;3.5267;0.0609;-0.1435;-0.0053
0000749664;6.5817;-15.4737;3.5482;0.0598;-0.1414;-0.0133
0000749676;6.6870;-15.5240;3.5410;0.0472;-0.1394;-0.0250
0000749684;6.7062;-15.5264;3.5386;0.0378;-0.1282;-0.0290
0000749692;6.8067;-15.5144;3.5219;0.0440;-0.1234;-0.0326
0000749703;6.6846;-15.4067;3.4716;0.0473;-0.1092;-0.0308
0000749711;6.6631;-15.2582;3.4381;0.0389;-0.1051;-0.0225
0000749723;6.1938;-15.5408;3.4884;0.0425;-0.0795;-0.0075
0000749731;6.0789;-15.5767;3.5147;0.0168;-0.0584;0.0053
0000749742;6.1292;-15.5144;3.6248;-0.0135;-0.0381;0.0115
0000749750;6.2824;-15.5288;3.6607;-0.0234;-0.0250;0.0060
0000749762;6.1914;-15.4905;3.6488;-0.0264;-0.0139;-0.0064
0000749770;6.1076;-15.6437;3.6990;-0.0334;-0.0017;-0.0164
0000749782;6.4835;-15.5647;3.7182;-0.0233;0.0121;-0.0325
0000749790;6.2728;-15.6748;3.6272;-0.0258;0.0310;-0.0338
0000749798;6.5481;-15.4689;3.7445;-0.0240;0.0432;-0.0317
0000749865;6.4308;-15.4881;3.6081;0.0318;0.0622;-0.0051
0000749873;6.5146;-15.5623;3.5913;0.0280;0.0586;-0.0099
0000749885;6.6726;-15.4881;3.7158;0.0197;0.0473;-0.0148
0000749893;6.6583;-15.6198;3.8116;0.0047;0.0430;-0.0079
0000749904;6.8714;-15.4977;3.7421;-0.0175;0.0312;-0.0031
0000749912;6.9264;-15.4306;3.6296;-0.0368;0.0265;0.0025
0000749924;6.9145;-15.4761;3.6655;-0.0561;0.0217;0.0177
0000749932;6.7876;-15.3851;3.6200;-0.0557;0.0140;0.0261
0000749943;6.7732;-15.3037;3.4979;-0.0489;0.0087;0.0408
0000749951;6.6870;-15.2487;3.4955;-0.0386;0.0012;0.0360
0000749959;6.4021;-15.4761;3.5291;-0.0238;-0.0019;0.0393
0000749971;6.6176;-15.3277;3.4788;-0.0011;-0.0224;0.0298
0000749979;6.6702;-15.3109;3.5410;0.0076;-0.0242;0.0328
0000749990;6.6655;-15.3756;3.6057;0.0199;-0.0474;0.0144
0000749998;6.7109;-15.3468;3.4668;0.0233;-0.0586;0.0116
0000750010;6.8043;-15.5144;3.4740;0.0237;-0.0806;0.0036
0000750018;6.7540;-15.5791;3.6919;0.0131;-0.0929;0.0107
0000750029;6.6726;-15.3684;3.6583;0.0033;-0.1158;0.0171
0000750037;6.8690;-15.2343;3.5841;0.0100;-0.1344;0.0180
0000750045;6.7660;-15.4211;3.6176;0.0115;-0.1502;0.0276
0000750057;6.7995;-15.3205;3.4836;0.0344;-0.1784;0.0328
0000750065;6.9815;-15.4474;3.7589;0.0409;-0.1829;0.0410
0000750133;6.4811;-15.4905;3.8068;0.0264;-0.1978;0.0061
0000750141;6.7062;-15.5120;3.6799;0.0280;-0.2036;-0.0040
0000750153;6.6918;-15.3301;3.8211;-0.0045;-0.2096;-0.0092
0000750161;6.6104;-15.3947;3.6990;-0.0089;-0.2149;-0.0095
0000750172;6.4835;-15.3397;3.6559;-0.0248;-0.2072;0.0004
0000750180;6.4667;-15.1385;3.6033;-0.0169;-0.2126;0.0069
0000750188;6.6415;-15.1218;3.6559;-0.0091;-0.1993;0.0200
0000750200;6.6774;-15.1768;3.5506;0.0076;-0.2029;0.0309
0000750208;6.5864;-15.2104;3.6823;0.0184;-0.2082;0.0310
0000750219;6.8642;-15.2942;3.6775;0.0125;-0.2098;0.0426
0000750227;6.9288;-15.0547;3.5482;0.0083;-0.2066;0.0554
0000750239;6.6535;-14.9614;3.5410;-0.0132;-0.1939;0.0981
0000750247;6.5601;-14.9446;3.4884;-0.0020;-0.1884;0.1176
0000750258;6.3566;-15.0595;3.5865;0.0354;-0.1777;0.1160
0000750266;6.2944;-15.1768;3.5434;0.0646;-0.1807;0.0994
0000750278;6.3614;-15.3325;3.6248;0.0679;-0.1799;0.0831
0000750286;6.4859;-15.3397;3.6966;0.0422;-0.1691;0.0814
0000750294;6.4859;-15.3708;3.6966;0.0298;-0.1680;0.0774
0000750305;6.5793;-15.4546;3.8211;0.0220;-0.1567;0.0906
0000750313;6.7804;-15.3397;3.7852;0.0338;-0.1545;0.0990
0000750325;6.5817;-15.5503;3.7852;0.0344;-0.1439;0.1136
0000750333;6.7612;-15.4546;3.8714;0.0240;-0.1443;0.1155
0000750401;6.0573;-15.5049;3.7996;-0.0017;-0.0989;0.0801
0000750409;6.1579;-15.5719;3.7757;0.0075;-0.0950;0.0613
0000750421;6.3829;-15.7754;3.7493;-0.0076;-0.0817;0.0494
0000750429;6.6248;-15.4187;3.6799;-0.0305;-0.0741;0.0509
0000750437;6.5170;-15.4498;3.6631;-0.0474;-0.0601;0.0698
0000750448;6.4332;-15.1721;3.5985;-0.0569;-0.0509;0.0799
0000750456;6.6200;-15.1768;3.4524;-0.0625;-0.0481;0.0858
0000750468;6.6295;-15.0835;3.4165;-0.0488;-0.0493;0.0915
0000750476;6.6583;-15.1481;3.4644;-0.0349;-0.0488;0.0978
0000750487;6.6655;-15.3109;3.6296;-0.0097;-0.0558;0.0815
0000750495;6.6080;-15.4761;3.6895;0.0045;-0.0710;0.0644
0000750507;6.5721;-15.7538;3.8666;0.0136;-0.0933;0.0381
0000750515;6.4691;-15.6078;3.8810;0.0061;-0.0977;0.0372
0000750523;6.4643;-15.7203;4.0079;-0.0001;-0.1090;0.0266
0000750534;6.4117;-15.5647;3.8666;-0.0304;-0.1055;0.0321
0000750542;6.5338;-15.4187;3.7948;-0.0416;-0.1077;0.0316
0000750554;6.3279;-15.2271;3.6440;-0.0536;-0.0895;0.0469
0000750562;6.3853;-15.2080;3.6105;-0.0569;-0.0810;0.0502
0000750573;6.5912;-15.2199;3.5003;-0.0620;-0.0620;0.0630
0000750581;6.3710;-15.3301;3.5434;-0.0540;-0.0598;0.0620
0000750593;6.3997;-15.2582;3.5027;-0.0498;-0.0468;0.0745
0000750601;6.4715;-15.2223;3.6057;-0.0373;-0.0433;0.0763
0000750669;6.6583;-15.3492;3.5865;-0.0492;-0.0051;0.0254
0000750677;6.5290;-15.4953;3.5410;-0.0513;0.0032;0.0258
0000750685;6.5362;-15.3516;3.5123;-0.0642;0.0023;0.0160
0000750697;6.4332;-15.3636;3.4716;-0.0580;0.0053;-0.0021
0000750705;6.5242;-15.3468;3.5889;-0.0472;0.0087;-0.0127
0000750716;6.3973;-15.2487;3.5003;-0.0181;0.0101;-0.0356
0000750724;6.2776;-15.4091;3.5578;-0.0009;0.0241;-0.0513
0000750736;6.1675;-15.3492;3.6775;0.0157;0.0422;-0.0705
0000750744;6.1746;-15.4163;3.6895;0.0240;0.0653;-0.0875
0000750755;5.9999;-15.3732;3.7804;0.0240;0.0975;-0.1212
0000750763;5.8155;-15.4689;3.7900;0.0129;0.1392;-0.1314
0000750775;5.8610;-15.3827;3.8235;-0.0055;0.2052;-0.1515
0000750783;5.6599;-15.5815;3.7637;-0.0216;0.2535;-0.1695
0000750791;5.7365;-15.4019;3.9193;-0.0350;0.3019;-0.1841
0000750802;5.4708;-15.6054;3.7613;-0.0420;0.3657;-0.2033
0000750810;5.4923;-15.6509;3.9265;-0.0582;0.4113;-0.2150
0000750822;5.7557;-15.4809;3.8188;-0.0767;0.4694;-0.2373
0000750830;5.8562;-15.4043;3.8355;-0.0877;0.4923;-0.2527
0000750841;5.9544;-15.3373;3.6440;-0.0858;0.5217;-0.2642
0000750849;6.1076;-15.3397;3.6631;-0.0735;0.5328;-0.2715
0000750861;6.3710;-15.2199;3.4764;-0.0514;0.5200;-0.2791
0000750869;6.5577;-15.0140;3.3710;-0.0249;0.5065;-0.2807
0000750877;6.7086;-15.1266;3.2992;0.0015;0.4884;-0.2799
0000750945;6.9240;-15.6222;3.6799;0.1296;0.2806;-0.1949
0000750953;6.9935;-15.6724;3.7781;0.1098;0.2615;-0.1769
0000750965;6.8354;-15.8185;3.9145;0.0698;0.2120;-0.1471
0000750973;7.0222;-15.7610;3.9480;0.0438;0.1792;-0.1246
0000750984;7.1204;-15.5958;3.8188;0.0133;0.1295;-0.1022
0000750992;7.0964;-15.7371;3.8283;-0.0001;0.0898;-0.0865
0000751004;7.1658;-15.5216;3.8259;-0.0181;0.0289;-0.0618
0000751012;7.1419;-15.5120;3.7781;-0.0342;-0.0028;-0.0444
0000751023;7.2233;-15.4977;3.7972;-0.0380;-0.0549;-0.0233
0000751031;7.2042;-15.3516;3.7685;-0.0365;-0.0927;-0.0137
0000751039;7.0892;-15.4665;3.7373;-0.0414;-0.1183;0.0061
0000751051;6.9336;-15.6006;3.6943;-0.0504;-0.1657;0.0298
0000751059;6.9312;-15.5096;3.5721;-0.0633;-0.1883;0.0516
0000751070;7.0820;-15.4689;3.6751;-0.0746;-0.2244;0.0666
0000751078;7.0102;-15.4258;3.6799;-0.0867;-0.2437;0.0789
0000751090;6.8307;-15.4067;3.6943;-0.0897;-0.2733;0.0901
0000751098;6.6774;-15.3253;3.6727;-0.0911;-0.2932;0.0977
0000751109;6.5625;-15.6485;3.6272;-0.0918;-0.3139;0.1042
0000751117;6.7373;-15.2654;3.6559;-0.0838;-0.3236;0.1058
0000751129;6.7588;-15.2439;3.6152;-0.0830;-0.3319;0.1132
0000751137;6.5936;-15.3708;3.5458;-0.0809;-0.3395;0.1160
0000751145;6.3997;-15.4546;3.5698;-0.0742;-0.3515;0.1151
0000751213;6.4189;-15.3181;3.6919;-0.0298;-0.3460;0.1259
0000751221;6.3039;-15.4737;3.6655;-0.0318;-0.3325;0.1275
0000751233;6.4284;-15.2559;3.5506;-0.0285;-0.3219;0.1244
0000751241;6.2225;-15.4953;3.6607;-0.0240;-0.3108;0.1227
0000751253;6.3614;-15.3037;3.5745;-0.0139;-0.3072;0.1074
0000751261;6.2872;-15.2678;3.5554;-0.0108;-0.2960;0.1062
0000751272;6.2010;-15.2774;3.6607;-0.0025;-0.2809;0.1042
0000751280;6.3159;-15.4211;3.5961;0.0055;-0.2790;0.0971
0000751292;6.2249;-15.3253;3.5961;0.0108;-0.2707;0.0927
0000751300;6.4069;-15.2295;3.6081;0.0196;-0.2674;0.0913
0000751308;6.5386;-15.2894;3.6607;0.0187;-0.2611;0.0969
0000751319;6.4356;-15.3636;3.5745;0.0205;-0.2597;0.1005
0000751327;6.5314;-15.3325;3.6512;0.0175;-0.2542;0.1042
0000751339;6.4332;-15.6030;3.6895;0.0131;-0.2574;0.1063
0000751347;6.5338;-15.4306;3.5889;0.0188;-0.2597;0.1019
0000751358;6.5027;-15.3923;3.6583;0.0155;-0.2573;0.1051
0000751366;6.4284;-15.4019;3.7254;0.0157;-0.2531;0.1065
0000751378;6.4069;-15.3397;3.6703;0.0234;-0.2557;0.1009
0000751386;6.4404;-15.3588;3.7182;0.0225;-0.2479;0.0998
0000751394;6.4236;-15.2750;3.6272;0.0226;-0.2437;0.0998
0000751461;6.2560;-15.3253;3.7014;0.0320;-0.1985;0.0754
0000751469;6.2058;-15.4881;3.5458;0.0308;-0.1865;0.0645
0000751481;6.3949;-15.2511;3.6559;0.0250;-0.1681;0.0448
0000751489;5.9376;-15.4761;3.5913;0.0129;-0.1424;0.0380
0000751500;5.8442;-15.6150;3.5817;0.0091;-0.1159;0.0175
0000751508;5.9975;-15.4809;3.5745;0.0125;-0.0870;0.0023
0000751520;5.8849;-15.5647;3.5865;0.0181;-0.0576;-0.0207
0000751528;6.1531;-15.4306;3.7110;0.0101;-0.0404;-0.0234
0000751536;6.1435;-15.3899;3.7134;0.0092;-0.0257;-0.0221
0000751547;6.3039;-15.3564;3.7206;0.0139;-0.0120;-0.0308
0000751555;6.4787;-15.2367;3.6775;0.0165;-0.0008;-0.0274
0000751567;6.3925;-15.3349;3.6033;0.0137;0.0215;-0.0196
0000751575;6.3494;-15.2918;3.6224;0.0116;0.0352;-0.0282
0000751586;6.2944;-15.3157;3.7302;0.0080;0.0605;-0.0309
0000751594;6.1028;-15.5503;3.6751;0.0059;0.0841;-0.0397
0000751606;6.0406;-15.4785;3.7637;0.0149;0.1098;-0.0629
0000751614;5.9903;-15.4067;3.7781;0.0276;0.1167;-0.0893
0000751622;6.1627;-15.4163;3.8403;0.0317;0.1311;-0.1046
0000751633;5.9999;-15.4809;3.8092;0.0285;0.1483;-0.1282
0000751641;6.0861;-15.4450;3.8571;0.0215;0.1612;-0.1328
0000751653;6.3327;-15.2415;3.7685;0.0100;0.1737;-0.1416
0000751661;6.2584;-15.2606;3.8092;0.0056;0.1887;-0.1420
0000751728;6.4715;-15.3851;3.7828;0.0104;0.2946;-0.1700
0000751736;6.4859;-15.3612;3.7541;-0.0033;0.2963;-0.1628
0000751748;6.5050;-15.3947;3.6871;-0.0184;0.2915;-0.1516
0000751756;6.5984;-15.4163;3.6248;-0.0321;0.2774;-0.1496
0000751764;6.8283;-15.3468;3.7350;-0.0270;0.2565;-0.1431
0000751775;6.9288;-15.3899;3.8307;-0.0310;0.2373;-0.1227
0000751783;7.1539;-15.3037;3.8235;-0.0256;0.2140;-0.1051
0000751795;7.3023;-15.4091;3.7757;-0.0242;0.1712;-0.0823
0000751803;7.2616;-15.3899;3.7948;-0.0290;0.1410;-0.0666
0000751814;7.0294;-15.5815;3.8690;-0.0450;0.1007;-0.0441
0000751822;6.9671;-15.4091;3.9433;-0.0618;0.0722;-0.0418
0000751834;6.7205;-15.4618;3.8475;-0.0827;0.0265;-0.0373
0000751842;6.7109;-15.3444;3.7565;-0.0823;-0.0024;-0.0344
0000751854;6.6631;-15.2199;3.6966;-0.0777;-0.0292;-0.0252
0000751862;6.6439;-15.2942;3.5793;-0.0766;-0.0442;-0.0133
0000751874;6.5864;-15.2152;3.4931;-0.0646;-0.0693;-0.0113
0000751882;6.4907;-15.3109;3.5003;-0.0484;-0.0834;-0.0123
0000751890;6.5122;-15.2918;3.5123;-0.0322;-0.0917;-0.0025
0000751901;6.5218;-15.2630;3.5267;-0.0033;-0.0903;0.0041
0000751909;6.5673;-15.1361;3.5219;0.0083;-0.0917;0.0093
0000751921;6.3805;-15.2702;3.5937;0.0220;-0.0855;0.0140
0000751929;6.4189;-15.3588;3.6009;0.0203;-0.0758;0.0201
0000751997;6.3351;-15.3899;3.7517;0.0029;-0.0663;0.0128
0000752005;6.4380;-15.3804;3.6727;-0.0001;-0.0698;0.0041
0000752017;6.5146;-15.3995;3.6176;0.0005;-0.0690;0.0091
0000752025;6.4620;-15.2989;3.6559;-0.0035;-0.0674;0.0063
0000752033;6.5960;-15.3325;3.6775;-0.0077;-0.0777;0.0032
0000752044;6.3231;-15.4641;3.6703;-0.0132;-0.0755;0.0077
0000752052;6.3231;-15.5096;3.7302;-0.0083;-0.0826;0.0041
0000752064;6.4643;-15.4881;3.6559;-0.0101;-0.0809;0.0053
0000752072;6.4260;-15.4378;3.6751;-0.0116;-0.0854;0.0099
0000752083;6.4979;-15.3684;3.7254;-0.0091;-0.0846;0.0127
0000752091;6.1483;-15.6317;3.7134;-0.0108;-0.0958;0.0092
0000752103;6.5338;-15.4067;3.7254;-0.0228;-0.0955;0.0205
0000752111;6.4189;-15.3349;3.6464;-0.0274;-0.0945;0.0250
0000752122;6.2177;-15.3708;3.6559;-0.0181;-0.0977;0.0160
0000752130;6.2369;-15.3947;3.7134;-0.0127;-0.0898;0.0191
0000752138;6.3063;-15.3923;3.5937;-0.0115;-0.0813;0.0221
0000752150;6.2130;-15.3420;3.7445;-0.0209;-0.0714;0.0185
0000752158;6.2513;-15.3420;3.5865;-0.0165;-0.0781;0.0119
0000752169;6.2896;-15.4282;3.6847;-0.0137;-0.0677;0.0077
0000752177;6.2584;-15.2894;3.5314;-0.0056;-0.0697;0.0033
0000752189;6.4643;-15.2582;3.5554;-0.0056;-0.0678;0.0009
0000752197;6.4643;-15.3157;3.6368;0.0017;-0.0731;-0.0005
0000752265;6.4117;-15.4163;3.6799;0.0005;-0.0769;0.0179
0000752273;6.5912;-15.3157;3.8068;-0.0003;-0.0757;0.0197
0000752285;6.5194;-15.3923;3.6919;-0.0005;-0.0863;0.0169
0000752293;6.5697;-15.3708;3.7062;0.0056;-0.0875;0.0135
0000752301;6.6080;-15.2271;3.7278;0.0024;-0.0798;0.0147
0000752312;6.7014;-15.2032;3.6631;0.0040;-0.0869;0.0125
0000752320;6.5314;-15.1864;3.6583;0.0071;-0.0837;0.0116
0000752332;6.6008;-15.2415;3.6464;0.0120;-0.0869;0.0081
0000752340;6.5290;-15.2966;3.6799;0.0172;-0.0909;0.0061
0000752351;6.5338;-15.3516;3.6607;0.0148;-0.0859;0.0084
0000752359;6.4907;-15.4187;3.6655;0.0187;-0.0841;0.0051
0000752371;6.4165;-15.4043;3.6607;0.0297;-0.0767;0.0093
0000752379;6.5577;-15.1816;3.6440;0.0457;-0.0789;-0.0009
0000752387;6.4596;-15.2415;3.6559;0.0569;-0.0801;-0.0012
0000752398;6.4069;-15.3133;3.6033;0.0613;-0.0759;-0.0023
0000752406;6.3183;-15.3923;3.6607;0.0614;-0.0729;-0.0015
0000752418;6.1770;-15.4737;3.5865;0.0561;-0.0655;0.0061
0000752426;6.3925;-15.3995;3.5626;0.0556;-0.0658;0.0017
0000752437;6.2824;-15.4953;3.6679;0.0624;-0.0617;-0.0041
0000752445;6.3590;-15.3013;3.7086;0.0653;-0.0593;-0.0025
0000752457;6.5170;-15.3325;3.6919;0.0754;-0.0642;-0.0037
0000752465;6.3087;-15.4977;3.7350;0.0690;-0.0605;-0.0043
0000752533;6.3087;-15.5432;3.7134;-0.0353;-0.0408;-0.0119
0000752541;6.2345;-15.4474;3.6392;-0.0446;-0.0306;-0.0095
0000752549;6.1651;-15.4953;3.7613;-0.0438;-0.0318;-0.0171
0000752561;6.3231;-15.4282;3.4620;-0.0473;-0.0151;-0.0225
0000752569;6.2824;-15.2989;3.5650;-0.0417;-0.0073;-0.0241
0000752581;6.1459;-15.4689;3.4884;-0.0332;0.0032;-0.0317
0000752589;6.1483;-15.4450;3.5937;-0.0374;0.0200;-0.0292
0000752601;6.1435;-15.5527;3.6105;-0.0262;0.0234;-0.0394
0000752609;6.2321;-15.3971;3.6105;-0.0252;0.0324;-0.0406
0000752621;6.2537;-15.4354;3.5721;-0.0334;0.0464;-0.0400
0000752629;6.3542;-15.4426;3.5674;-0.0368;0.0585;-0.0404
0000752640;6.1651;-15.5216;3.6727;-0.0400;0.0679;-0.0464
0000752648;6.3973;-15.2319;3.5889;-0.0440;0.0685;-0.0513
0000752656;6.3805;-15.4354;3.7158;-0.0477;0.0726;-0.0542
0000752668;6.4428;-15.5049;3.5602;-0.0545;0.0731;-0.0608
0000752676;6.3351;-15.4737;3.6727;-0.0618;0.0742;-0.0630
0000752688;6.5290;-15.6796;3.6272;-0.0710;0.0745;-0.0673
0000752696;6.4165;-15.7131;3.6847;-0.0883;0.0789;-0.0558
0000752708;6.5912;-15.6509;3.6416;-0.1122;0.0727;-0.0510
0000752716;6.6008;-15.7969;3.6224;-0.1347;0.0646;-0.0537
0000752728;6.7756;-15.7562;3.7373;-0.1567;0.0632;-0.0385
0000752736;6.6822;-15.7491;3.6631;-0.1879;0.0574;-0.0298
0000752804;6.5649;-16.2447;3.1173;-0.5375;0.0226;-0.0344
0000752812;6.5146;-16.1178;2.9568;-0.5813;0.0211;-0.0290
0000752820;6.3231;-16.1082;2.9664;-0.6440;0.0278;-0.0163
0000752832;6.1770;-16.0172;2.7270;-0.7253;0.0362;0.0101
0000752840;6.4404;-15.8592;2.6552;-0.7690;0.0413;0.0421
0000752852;6.4117;-15.7227;2.4038;-0.8400;0.0360;0.0735
0000752860;6.6415;-15.9023;2.2314;-0.8655;0.0276;0.1070
0000752872;6.7780;-15.7467;2.1452;-0.9261;0.0191;0.1306
0000752880;6.7924;-15.8017;1.9345;-0.9743;0.0068;0.1456
0000752892;6.7181;-15.5120;1.9561;-1.0464;0.0003;0.1616
0000752900;6.7373;-15.4570;1.9513;-1.0860;-0.0059;0.1640
0000752908;6.5601;-15.3444;1.9393;-1.1139;-0.0290;0.1532
0000752920;6.6104;-15.2654;1.9297;-1.1377;-0.0474;0.1387
0000752928;6.2776;-15.4857;1.9800;-1.1678;-0.0657;0.1196
0000752940;6.3207;-15.5336;1.8938;-1.2148;-0.0895;0.0770
0000752948;6.5625;-15.4546;1.8387;-1.2520;-0.1075;0.0346
0000752960;6.2656;-15.6270;1.6185;-1.3105;-0.1242;-0.0388
0000752968;6.4045;-15.3947;1.7645;-1.3574;-0.1403;-0.0941
0000752980;5.9233;-15.3492;1.5514;-1.4337;-0.1576;-0.1879
0000752988;5.8849;-14.9949;1.4461;-1.4575;-0.1568;-0.2372
0000753000;5.7341;-14.3844;1.1899;-1.4997;-0.1549;-0.3198
0000753008;5.3822;-14.3030;0.8906;-1.5028;-0.1514;-0.3750
0000753016;5.4205;-14.1473;0.8068;-1.4595;-0.1432;-0.4282
0000753084;7.6016;-16.0627;0.4645;-1.0921;0.0023;-0.1993
0000753092;7.6255;-15.7634;0.5028;-1.1443;-0.0160;-0.1629
0000753104;7.6231;-14.5951;0.6895;-1.2033;-0.0707;-0.1478
0000753112;7.3670;-14.1569;0.9170;-1.1991;-0.1259;-0.1498
0000753124;6.9456;-13.6350;0.5962;-1.1238;-0.2016;-0.1440
0000753132;6.9863;-13.3980;0.3807;-1.0284;-0.2411;-0.1482
0000753144;6.8785;-13.6541;0.3663;-0.8573;-0.2883;-0.1515
0000753152;6.7900;-14.3556;0.1796;-0.7950;-0.3092;-0.1494
0000753164;7.1228;-14.9638;0.0814;-0.7987;-0.3167;-0.1222
0000753172;7.0533;-15.6533;0.2035;-0.8541;-0.3088;-0.0913
0000753184;6.9767;-15.9071;0.0838;-1.0087;-0.2898;-0.0644
0000753192;6.9145;-15.7371;0.1365;-1.1037;-0.2721;-0.0474
0000753200;6.7349;-15.3875;0.5148;-1.1499;-0.2397;-0.0380
0000753212;6.3662;-14.4035;0.7709;-1.1604;-0.1867;-0.0413
0000753220;6.3303;-13.6230;0.8859;-1.1310;-0.1412;-0.0436
0000753232;5.9783;-13.2854;0.3256;-1.0857;-0.0878;-0.0633
0000753240;5.7892;-13.1944;0.0455;-1.0440;-0.0442;-0.1009
0000753252;6.1459;-13.1537;-0.3256;-0.9623;0.0213;-0.1379
0000753260;6.0741;-13.7978;-0.5938;-0.9300;0.0809;-0.1331
0000753272;6.4691;-14.7507;-0.7877;-0.9406;0.1620;-0.1021
0000753280;6.8714;-14.9853;-0.8452;-0.9769;0.1997;-0.0777
0000753348;6.5242;-13.3836;-1.5347;-0.7100;0.0585;0.0729
0000753356;6.5673;-13.6493;-1.9609;-0.6314;0.0268;0.0481
0000753367;6.9097;-14.0300;-2.0973;-0.5500;-0.0196;0.0101
0000753375;7.0222;-14.4251;-2.0351;-0.5065;-0.0457;0.0008
0000753383;7.3550;-14.7962;-1.6712;-0.4768;-0.0686;-0.0136
0000753395;7.4077;-14.9302;-1.4078;-0.4635;-0.0773;0.0071
0000753403;7.6016;-14.7483;-1.2713;-0.4479;-0.0698;0.0185
0000753415;7.2927;-14.3030;-1.0056;-0.4190;-0.0514;0.0337
0000753423;6.9480;-14.1785;-1.2522;-0.4112;-0.0386;0.0390
0000753435;6.3231;-13.7786;-1.4174;-0.3667;-0.0097;0.0191
0000753443;6.0382;-13.9031;-1.4844;-0.3148;0.0068;0.0211
0000753455;5.8083;-13.9750;-1.7621;-0.2308;0.0409;0.0099
0000753464;5.9640;-14.2431;-1.9704;-0.1772;0.0657;0.0085
0000753477;6.3375;-14.5160;-2.0877;-0.1211;0.1124;-0.0053
0000753486;6.4165;-14.7004;-1.7358;-0.0561;0.1228;-0.0144
0000753495;6.3255;-14.4921;-1.6137;-0.0332;0.1436;-0.0136
0000753508;6.1938;-14.4682;-1.8004;0.0368;0.1681;-0.0570
0000753517;5.8897;-14.6070;-1.6664;0.0835;0.1795;-0.0938
0000753530;6.1531;-14.3101;-1.5802;0.1611;0.1825;-0.1407
0000753539;6.4308;-14.4418;-1.6496;0.1972;0.1733;-0.1643
0000753552;7.0270;-14.7219;-1.7119;0.2573;0.1607;-0.1819
0000753561;7.6399;-14.7866;-1.8196;0.2926;0.1448;-0.1937
0000753630;6.7924;-15.7682;-1.8052;0.6925;0.0187;-0.0494
0000753639;7.0677;-15.7179;-1.7047;0.7380;0.0164;-0.0325
0000753652;6.9743;-15.9645;-1.5419;0.7642;0.0229;-0.0091
0000753661;7.0366;-15.9933;-1.6975;0.7783;0.0145;-0.0020
0000753670;6.8354;-16.3309;-1.8747;0.7814;0.0107;-0.0037
0000753683;6.8283;-16.6469;-1.6568;0.7966;0.0025;0.0112
0000753692;6.9863;-16.9629;-1.6113;0.8084;-0.0119;0.0289
0000753705;7.0940;-17.1568;-1.4533;0.8340;-0.0441;0.0707
0000753714;7.4244;-17.0587;-1.2905;0.8472;-0.0589;0.1033
0000753727;7.5346;-17.2335;-1.4150;0.8677;-0.1041;0.1569
0000753736;7.5130;-17.0276;-1.5083;0.8784;-0.1304;0.1911
0000753749;7.2832;-17.3412;-1.5083;0.8981;-0.1484;0.2041
0000753758;6.8139;-17.4944;-1.5993;0.8756;-0.1406;0.2033
0000753771;6.8522;-17.5232;-1.4916;0.9104;-0.1531;0.1935
0000753780;6.5721;-17.6908;-1.2234;0.9334;-0.1438;0.2150
0000753789;6.4404;-17.7602;-1.1157;0.9630;-0.1414;0.2205
0000753802;6.4883;-17.6788;-0.9601;1.0088;-0.1311;0.2366
0000753811;6.2656;-17.8655;-0.8475;1.0218;-0.1191;0.2381
0000753824;6.4596;-17.7195;-0.8667;1.0091;-0.1090;0.2353
0000753833;6.6726;-17.9206;-1.0199;0.9964;-0.1069;0.2234
0000753846;6.7229;-18.2247;-0.9649;0.9804;-0.0929;0.2145
0000753855;6.4667;-18.7035;-0.9409;0.9859;-0.0874;0.1871
0000753924;6.1866;-18.5551;-0.3328;0.9637;-0.0610;0.2326
0000753933;6.1986;-18.9525;-0.0575;0.9831;-0.0746;0.2763
0000753946;6.1627;-19.7977;0.4310;1.0335;-0.1283;0.3178
0000753955;6.3901;-20.3124;0.6393;1.0228;-0.1404;0.3576
0000753964;6.3758;-21.0043;0.9697;0.9963;-0.1660;0.3798
0000753977;6.3877;-21.9548;1.5730;0.9017;-0.1840;0.4134
0000753986;6.6415;-22.0482;1.6712;0.8045;-0.1779;0.4313
0000754002;6.2704;-22.2445;1.8172;0.5845;-0.1913;0.4211
0000754011;5.9999;-22.0937;1.9632;0.4594;-0.1828;0.3904
0000754024;5.8275;-21.1935;1.9800;0.2974;-0.1628;0.3238
0000754033;5.4971;-20.8774;1.9800;0.2150;-0.1462;0.2892
0000754045;5.3558;-20.2549;1.9393;0.1127;-0.1154;0.2599
0000754054;5.5306;-19.5367;1.9417;0.0248;-0.0698;0.2610
0000754063;5.7197;-18.9860;1.9776;-0.0641;-0.0382;0.2647
0000754076;6.0765;-18.1217;1.8962;-0.1763;0.0005;0.2934
0000754085;6.0142;-17.6046;2.0351;-0.2224;0.0025;0.3030
0000754097;6.4979;-16.7043;1.8483;-0.2936;0.0031;0.3151
0000754106;6.3327;-16.1585;1.8842;-0.3473;-0.0063;0.3171
0000754175;6.1579;-13.0963;1.5299;-0.1434;-0.1232;0.0882
0000754184;5.7844;-13.1202;1.4413;-0.0389;-0.1255;0.0473
0000754196;5.9807;-13.0963;1.3910;0.1147;-0.1220;-0.0084
0000754205;5.9783;-13.2639;1.4198;0.2216;-0.1147;-0.0408
0000754214;5.8873;-13.6996;1.4724;0.3044;-0.1238;-0.0795
0000754227;5.6886;-14.4658;1.3623;0.3569;-0.1240;-0.1132
0000754236;5.6719;-14.9566;1.4485;0.3734;-0.1090;-0.1392
0000754248;5.6336;-15.5408;1.7382;0.3804;-0.0652;-0.1487
0000754257;5.6790;-15.8209;1.7597;0.3797;-0.0091;-0.1367
0000754270;5.9209;-15.9406;1.8172;0.3713;0.0669;-0.0815
0000754279;6.2273;-15.9813;1.3934;0.3469;0.1108;-0.0388
0000754291;6.6200;-16.5535;0.5267;0.2595;0.1436;-0.0478
0000754300;6.8331;-16.6996;0.4094;0.1482;0.1852;-0.1375
0000754313;6.9983;-17.2694;0.8332;-0.0452;0.2140;-0.4061
0000754322;7.1706;-17.3939;0.7901;-0.1751;0.1943;-0.6233
0000754331;7.5465;-17.2502;1.1133;-0.2932;0.1541;-0.8096
0000754343;7.7668;-16.3332;2.0399;-0.3956;0.0474;-1.0208
0000754352;7.8530;-15.7778;2.2745;-0.4467;-0.0524;-1.1495
0000754365;7.0701;-14.3868;2.1356;-0.3896;-0.1828;-1.3053
0000754374;6.0932;-13.5679;1.7406;-0.3016;-0.2489;-1.3763
0000754386;3.9696;-12.6629;1.7957;-0.1231;-0.2944;-1.3971
0000754395;3.2801;-12.4139;0.7207;0.0581;-0.3487;-1.3098
0000754463;14.4490;-20.5159;3.3160;1.4646;-0.5562;-0.0594
0000754472;11.7292;-21.9740;4.7549;1.0403;-0.5352;0.0597
0000754484;7.4986;-21.5311;4.8722;0.1066;-0.5911;0.0865
0000754493;5.7365;-20.2502;3.3950;-0.4177;-0.7060;0.0250
0000754502;5.7245;-18.3204;1.4509;-0.6150;-0.8760;-0.0701
0000754515;6.2537;-15.3037;-0.6847;-0.3609;-1.1350;-0.3011
0000754524;7.3957;-13.5057;-1.4485;-0.0851;-1.2335;-0.4191
0000754536;8.3007;-12.8497;-1.5107;0.3479;-1.2327;-0.4663
0000754545;8.9447;-12.8521;-1.0965;0.6330;-1.1783;-0.4778
0000754558;8.9998;-13.6446;0.1365;0.9450;-1.0067;-0.3617
0000754567;8.2169;-14.8776;1.2761;1.0820;-0.8581;-0.2671
0000754579;7.4268;-17.0395;2.4157;0.9713;-0.6500;-0.1506
0000754588;7.8314;-17.7937;2.6384;0.6913;-0.5339;-0.1018
0000754601;8.3366;-17.4561;2.4660;0.3734;-0.5525;-0.1592
0000754610;8.1786;-16.6876;2.1524;0.2530;-0.6390;-0.2509
0000754619;8.0397;-15.1146;1.5945;0.2605;-0.7549;-0.3692
0000754631;7.6279;-13.5320;0.5794;0.5175;-0.8287;-0.4667
0000754640;7.3310;-13.6517;0.3831;0.9625;-0.8140;-0.4378
0000754653;6.8091;-16.7738;3.6703;1.8361;-0.7397;-0.3320
0000754662;7.4460;-20.5542;6.4260;2.2391;-0.6724;-0.0429
0000754674;8.1714;-23.4967;7.8099;1.8026;-0.5123;0.4612
0000754683;7.1084;-22.3882;7.9296;1.0588;-0.3956;0.6863
0000754752;6.1411;-13.0484;3.3208;0.9871;0.1436;0.0779
0000754761;6.6391;-13.3285;3.7014;0.9738;0.2053;0.0893
0000754773;6.9576;-13.4746;3.9456;0.9803;0.2844;0.1318
0000754782;7.0198;-13.5225;4.1180;1.0289;0.3304;0.1487
0000754791;7.2425;-13.6134;4.3383;1.0793;0.3664;0.1591
0000754804;7.3071;-14.0109;4.7118;1.1283;0.3942;0.1450
0000754813;7.2042;-14.3628;4.9105;1.1505;0.3992;0.1203
0000754825;6.9121;-14.7746;5.1667;1.1457;0.4072;0.0889
0000754834;6.8881;-15.0093;5.4085;1.1242;0.4138;0.0713
0000754847;6.7852;-15.2175;5.6934;1.1009;0.4217;0.0346
0000754856;6.8307;-15.5312;6.0142;1.0780;0.4191;0.0021
0000754865;7.0581;-15.5719;6.0286;1.0245;0.4329;-0.0192
0000754877;7.2951;-15.6317;5.9113;0.9627;0.4263;-0.0372
0000754886;7.3239;-15.8592;6.0023;0.9268;0.4205;-0.0365
0000754899;7.5920;-15.7179;5.9664;0.8615;0.4438;-0.0043
0000754908;7.7716;-15.7467;5.7461;0.8134;0.4620;0.0404
0000754920;7.5441;-15.6868;5.5019;0.7758;0.4543;0.0969
0000754929;7.5417;-15.7036;5.3558;0.7334;0.4426;0.1406
0000754942;7.6184;-15.1697;5.7389;0.6753;0.3973;0.1925
0000754951;7.3239;-15.4689;5.9280;0.6488;0.3523;0.1853
0000754960;7.6974;-14.9685;5.5282;0.6189;0.3094;0.1765
0000754972;7.7548;-14.7100;5.5282;0.5737;0.2493;0.1128
0000754981;7.7812;-14.5208;5.5354;0.5417;0.2188;0.0662
0000755050;6.1842;-14.3844;6.2728;0.6306;0.2188;-0.0228
0000755059;6.3422;-14.3868;6.3279;0.5985;0.2362;-0.0301
0000755071;6.3734;-14.3796;6.7493;0.5335;0.2518;-0.0574
0000755080;6.4548;-14.5352;6.8809;0.4855;0.2745;-0.0783
0000755093;6.4596;-14.2934;6.7612;0.4050;0.2839;-0.1174
0000755102;6.3686;-14.2647;6.6415;0.3836;0.2862;-0.1339
0000755111;6.3805;-14.1880;6.5721;0.3496;0.2910;-0.1404
0000755123;6.6415;-14.1042;6.3997;0.3491;0.2876;-0.1304
0000755132;6.8091;-14.1042;6.2201;0.3656;0.2801;-0.1250
0000755145;7.2185;-14.2694;6.2513;0.3712;0.2673;-0.1017
0000755154;7.3382;-14.4801;6.1986;0.3595;0.2489;-0.0873
0000755166;7.5561;-14.6405;6.3183;0.3063;0.2100;-0.0645
0000755175;7.6136;-14.6405;6.2968;0.2537;0.1689;-0.0492
0000755188;7.6974;-14.6789;6.2513;0.1737;0.0898;-0.0345
0000755197;7.6567;-14.6693;6.2201;0.1276;0.0324;-0.0169
0000755206;7.7859;-14.5208;6.2153;0.1007;-0.0260;0.0012
0000755218;8.0637;-14.2742;6.2153;0.0841;-0.0955;0.0320
0000755227;8.1810;-13.7212;6.0573;0.0869;-0.1500;0.0530
0000755240;7.9392;-13.6853;6.3973;0.0942;-0.2030;0.0814
0000755249;7.7644;-13.4674;6.3710;0.0819;-0.2149;0.1198
0000755261;7.3358;-13.4075;6.3566;0.0850;-0.2281;0.1336
0000755270;6.8953;-13.4075;6.5314;0.0935;-0.2338;0.1310
0000755339;7.1443;-13.8361;6.8761;0.1163;-0.0869;0.0911
0000755348;7.1970;-13.9989;7.1347;0.0763;-0.0883;0.1179
0000755357;7.3789;-13.9821;7.0988;0.0408;-0.1094;0.1320
0000755369;7.8290;-14.0516;7.0557;-0.0127;-0.1394;0.1649
0000755378;7.5848;-14.2407;7.1467;-0.0658;-0.1565;0.1817
0000755391;7.8171;-14.0085;7.1012;-0.1208;-0.2069;0.1909
0000755400;7.8697;-13.7212;6.9815;-0.1456;-0.2308;0.1986
0000755412;7.4891;-13.7355;6.8666;-0.1769;-0.2622;0.2006
0000755421;7.2209;-13.7164;6.7564;-0.2048;-0.2742;0.2216
0000755434;6.7732;-13.8385;6.5577;-0.2209;-0.2879;0.2361
0000755443;6.6966;-13.9366;6.3997;-0.2278;-0.2813;0.2582
0000755454;6.6990;-14.0037;6.4596;-0.2193;-0.2878;0.2818
0000755463;6.6415;-14.1425;6.3734;-0.2244;-0.2828;0.3079
0000755472;6.8905;-14.2599;6.3446;-0.2226;-0.2955;0.3235
0000755486;6.9983;-14.3365;6.2872;-0.2593;-0.3102;0.3701
0000755495;7.1802;-14.2455;6.2824;-0.2791;-0.3276;0.3936
0000755508;7.2018;-14.2670;6.3542;-0.3222;-0.3452;0.4246
0000755517;7.2042;-14.0252;6.2034;-0.3512;-0.3449;0.4391
0000755529;7.1275;-13.7331;6.0645;-0.3628;-0.3525;0.4462
0000755538;6.9815;-13.7523;5.8754;-0.3455;-0.3588;0.4423
0000755551;6.9791;-13.6565;5.6072;-0.3132;-0.3539;0.4223
0000755560;6.7373;-13.7379;5.4779;-0.2721;-0.3303;0.4058
0000755569;6.6224;-13.8313;5.5138;-0.2401;-0.3080;0.3802
0000755639;5.0996;-14.7914;5.6910;-0.3421;-0.0357;0.1086
0000755648;5.2194;-14.5520;5.6383;-0.3683;0.0011;0.0822
0000755661;5.3822;-14.2623;5.5186;-0.3790;0.0392;0.0372
0000755670;5.6599;-14.0540;5.4061;-0.3696;0.0600;0.0277
0000755682;5.8945;-13.7882;5.3223;-0.3388;0.0789;0.0152
0000755691;6.1555;-13.5536;5.2170;-0.2895;0.0810;0.0001
0000755704;6.0765;-13.6541;5.1260;-0.2094;0.0785;-0.0019
0000755713;6.1555;-13.6637;5.1619;-0.1547;0.0783;0.0015
0000755725;6.3255;-13.9366;5.1954;-0.0991;0.0839;0.0076
0000755734;6.2465;-14.1569;5.0709;-0.0738;0.0845;0.0005
0000755743;6.2369;-14.4634;5.1882;-0.0746;0.0895;-0.0085
0000755756;6.2082;-14.6956;5.2146;-0.0999;0.1130;-0.0179
0000755765;6.2249;-14.8321;5.3654;-0.1227;0.1252;-0.0342
0000755777;6.2010;-14.9231;5.3654;-0.1657;0.1314;-0.0560
0000755786;6.1076;-14.7483;5.5067;-0.1893;0.1348;-0.0811
0000755799;6.1699;-14.5759;5.4588;-0.2064;0.1418;-0.1092
0000755808;6.1675;-14.2359;5.4540;-0.2077;0.1504;-0.1362
0000755820;6.0956;-14.0157;5.3295;-0.2081;0.1592;-0.1637
0000755829;5.9999;-13.7691;5.4827;-0.1933;0.1623;-0.1831
0000755838;6.0765;-13.7379;5.4779;-0.1745;0.1659;-0.1931
0000755851;6.0190;-13.5895;5.5689;-0.1388;0.1777;-0.2109
0000755860;5.8323;-13.5081;5.4755;-0.1054;0.1823;-0.2152
0000755930;6.6870;-14.6669;5.2050;0.0107;0.1580;-0.1761
0000755939;7.0916;-14.6525;5.2601;0.0061;0.1343;-0.1612
0000755952;7.0653;-14.9326;5.3295;-0.0020;0.1017;-0.1360
0000755961;6.8953;-15.0883;5.4564;-0.0220;0.0870;-0.1244
0000755973;6.8354;-15.1505;5.5138;-0.0532;0.0679;-0.1212
0000755982;6.8474;-15.0069;5.6671;-0.0719;0.0434;-0.1292
0000755995;6.6511;-14.7842;5.4731;-0.0961;0.0338;-0.1270
0000756004;6.7373;-14.6453;5.4516;-0.1067;0.0282;-0.1336
0000756013;6.5625;-14.5113;5.4540;-0.1021;0.0312;-0.1232
0000756025;6.5098;-14.2934;5.4037;-0.0865;0.0221;-0.1188
0000756034;6.7612;-14.3915;5.3223;-0.0734;0.0171;-0.1154
0000756047;7.0150;-14.2838;5.1930;-0.0504;0.0035;-0.0997
0000756056;7.2736;-14.4466;5.0518;-0.0476;-0.0167;-0.0985
0000756068;7.3622;-14.5352;5.1787;-0.0501;-0.0420;-0.0813
0000756077;7.3789;-14.6860;5.3271;-0.0604;-0.0562;-0.0755
0000756090;7.1874;-14.5807;5.5929;-0.0753;-0.0722;-0.0655
0000756099;6.8929;-14.5424;5.6934;-0.0822;-0.0817;-0.0644
0000756111;6.6559;-14.2168;5.5809;-0.0901;-0.0803;-0.0661
0000756120;6.4667;-14.0061;5.5952;-0.0955;-0.0644;-0.0544
0000756129;6.4212;-13.9917;5.4995;-0.0897;-0.0610;-0.0625
0000756142;6.2848;-14.0252;5.3774;-0.0722;-0.0557;-0.0759
0000756151;6.6463;-13.9678;5.2577;-0.0576;-0.0508;-0.0753
0000756221;6.5434;-15.0859;5.2122;0.0025;-0.1212;-0.0429
0000756230;6.5553;-15.0667;5.2960;-0.0269;-0.1248;-0.0393
0000756243;6.3638;-14.9111;5.2601;-0.0578;-0.1260;-0.0398
0000756252;6.4189;-14.9302;5.2696;-0.0813;-0.1091;-0.0380
0000756264;6.3805;-14.5591;5.2888;-0.0921;-0.1025;-0.0474
0000756273;6.1579;-14.4897;5.2601;-0.0885;-0.0923;-0.0574
0000756286;6.4524;-14.1282;5.2744;-0.0826;-0.0775;-0.0659
0000756295;6.3111;-14.1928;5.1763;-0.0652;-0.0703;-0.0771
0000756307;6.2465;-14.1378;5.0853;-0.0404;-0.0620;-0.0837
0000756316;6.5673;-13.8385;5.2241;-0.0147;-0.0621;-0.0917
0000756325;6.5888;-13.9845;5.2433;-0.0108;-0.0560;-0.0929
0000756338;6.3782;-14.4825;5.2864;0.0027;-0.0528;-0.1007
0000756347;6.7900;-14.4131;5.4157;0.0008;-0.0597;-0.1085
0000756359;6.5984;-14.7148;5.4253;-0.0123;-0.0553;-0.1023
0000756368;6.6655;-14.7626;5.4229;-0.0272;-0.0512;-0.0909
0000756381;6.7062;-14.5855;5.4300;-0.0400;-0.0428;-0.0890
0000756390;6.6990;-14.6166;5.4636;-0.0465;-0.0438;-0.0898
0000756402;6.6655;-14.4825;5.4013;-0.0517;-0.0285;-0.0891
0000756411;6.6774;-14.4083;5.4133;-0.0486;-0.0181;-0.0930
0000756424;6.6822;-14.4203;5.4037;-0.0390;-0.0055;-0.1025
0000756433;6.6990;-14.2886;5.3702;-0.0376;0.0143;-0.0995
0000756503;7.0461;-14.5974;5.1284;-0.0045;0.0405;-0.0903
0000756512;7.0318;-14.5328;5.2696;-0.0075;0.0328;-0.0851
0000756521;7.1682;-14.5424;5.2074;0.0028;0.0265;-0.0819
0000756534;7.0868;-14.6453;5.2289;-0.0044;0.0132;-0.0778
0000756543;7.0725;-14.5687;5.3439;-0.0149;0.0128;-0.0678
0000756555;7.0485;-14.5089;5.3175;-0.0252;0.0080;-0.0628
0000756564;7.1778;-14.6214;5.2601;-0.0400;0.0068;-0.0570
0000756577;7.0413;-14.5879;5.2481;-0.0484;0.0012;-0.0433
0000756586;7.1012;-14.4969;5.2194;-0.0458;-0.0119;-0.0384
0000756598;7.1587;-14.4466;5.2792;-0.0434;-0.0061;-0.0216
0000756607;7.1204;-14.3868;5.2433;-0.0326;-0.0185;-0.0172
0000756620;7.1251;-14.3221;5.2840;-0.0276;-0.0141;0.0012
0000756629;6.9743;-14.4131;5.3008;-0.0203;-0.0157;0.0008
0000756638;7.0773;-14.2982;5.3486;-0.0148;-0.0156;0.0048
0000756650;6.8594;-14.4203;5.3056;-0.0067;-0.0160;0.0081
0000756659;7.0174;-14.2958;5.2553;-0.0117;-0.0195;0.0092
0000756672;7.0390;-14.3892;5.2648;-0.0047;-0.0229;0.0176
0000756681;7.2185;-14.3532;5.2816;-0.0068;-0.0240;0.0192
0000756693;7.0485;-14.5256;5.2720;-0.0073;-0.0273;0.0268
0000756702;6.9719;-14.4394;5.1811;0.0017;-0.0392;0.0262
0000756715;7.0509;-14.3892;5.1715;-0.0021;-0.0437;0.0400
0000756724;7.1443;-14.2311;5.2361;0.0107;-0.0560;0.0388
0000756733;6.7971;-14.5711;5.3175;0.0100;-0.0581;0.0397
0000756802;6.5912;-14.6741;5.2433;0.0077;-0.0721;0.0242
0000756811;6.4643;-14.7100;5.3534;0.0037;-0.0644;0.0233
0000756824;6.5098;-14.6836;5.3463;0.0097;-0.0678;0.0211
0000756833;6.6224;-14.4179;5.3989;-0.0009;-0.0513;0.0226
0000756845;6.3877;-14.5137;5.4372;-0.0055;-0.0426;0.0129
0000756854;6.3949;-14.7100;5.4372;-0.0163;-0.0332;0.0096
0000756867;6.6343;-14.4897;5.4109;-0.0262;-0.0314;-0.0044
0000756876;6.3829;-14.5759;5.4133;-0.0326;-0.0286;-0.0068
0000756888;6.5027;-14.5615;5.3822;-0.0454;-0.0207;-0.0124
0000756897;6.3111;-14.6022;5.3558;-0.0589;-0.0124;-0.0093
0000756906;6.3375;-14.6214;5.3319;-0.0628;-0.0052;-0.0137
0000756920;6.4883;-14.5472;5.2529;-0.0689;0.0052;-0.0201
0000756929;6.7373;-14.2527;5.3271;-0.0528;0.0048;-0.0242
0000756942;6.6655;-14.2192;5.1882;-0.0273;0.0100;-0.0250
0000756951;6.6894;-14.2096;5.1667;-0.0033;0.0222;-0.0193
0000756963;6.5960;-14.2790;5.2002;0.0143;0.0277;-0.0184
0000756972;6.7924;-14.2623;5.2385;0.0284;0.0248;-0.0229
0000756985;6.6439;-14.4658;5.1499;0.0362;0.0276;-0.0211
0000756994;6.5864;-14.5759;5.2672;0.0341;0.0316;-0.0189
0000757006;6.7181;-14.6094;5.3056;0.0318;0.0322;-0.0155
0000757015;6.7828;-14.5903;5.3127;0.0258;0.0353;-0.0117
0000757024;6.7540;-14.6358;5.2816;0.0233;0.0353;-0.0117
0000757093;7.2784;-14.3580;5.2792;0.0007;-0.0088;0.0203
0000757102;7.1275;-14.5232;5.3151;0.0061;-0.0268;0.0230
0000757114;7.1419;-14.5663;5.3726;0.0099;-0.0440;0.0314
0000757123;7.1323;-14.4945;5.2289;0.0059;-0.0418;0.0481
0000757136;7.2281;-14.3700;5.2002;0.0047;-0.0570;0.0649
0000757145;7.0916;-14.3173;5.3199;0.0109;-0.0705;0.0673
0000757157;6.8570;-14.5113;5.3319;0.0173;-0.0813;0.0782
0000757166;6.9983;-14.2383;5.3534;0.0297;-0.0843;0.0871
0000757175;7.0126;-14.3700;5.3606;0.0372;-0.0915;0.0833
0000757188;6.7588;-14.3676;5.3846;0.0456;-0.0934;0.0807
0000757197;6.7900;-14.3892;5.3917;0.0524;-0.1019;0.0675
0000757209;6.5194;-14.4418;5.3702;0.0377;-0.0881;0.0561
0000757218;6.3279;-14.3101;5.3726;0.0334;-0.0797;0.0493
0000757231;6.1962;-14.2455;5.4492;0.0374;-0.0533;0.0381
0000757240;6.1914;-14.3341;5.5115;0.0534;-0.0461;0.0256
0000757252;6.2752;-14.6094;5.5785;0.0658;-0.0246;0.0207
0000757261;6.4452;-14.6094;5.5115;0.0633;-0.0096;0.0183
0000757270;6.4524;-14.6022;5.4779;0.0685;-0.0113;0.0088
0000757283;6.6750;-14.6358;5.4612;0.0372;-0.0001;0.0120
0000757292;6.4332;-14.7914;5.4995;0.0245;-0.0103;-0.0037
0000757304;6.5625;-14.6310;5.4348;-0.0073;-0.0208;-0.0107
0000757313;6.5936;-14.5352;5.3175;-0.0286;-0.0322;-0.0179
0000757382;6.2369;-14.3077;5.3654;0.0333;-0.0552;-0.0326
0000757391;6.4404;-14.2934;5.3822;0.0420;-0.0552;-0.0361
0000757403;6.3829;-14.4825;5.3319;0.0388;-0.0501;-0.0422
0000757412;6.3638;-14.5113;5.4037;0.0272;-0.0436;-0.0433
0000757425;6.5649;-14.6310;5.2912;0.0228;-0.0498;-0.0573
0000757434;6.5553;-14.5208;5.3295;0.0087;-0.0365;-0.0542
0000757443;6.8067;-14.3030;5.4037;0.0117;-0.0390;-0.0632
0000757455;6.4404;-14.5256;5.4324;0.0127;-0.0362;-0.0687
0000757464;6.5122;-14.3796;5.3893;0.0132;-0.0356;-0.0715
0000757477;6.6152;-14.3868;5.3295;0.0211;-0.0360;-0.0791
0000757486;6.5242;-14.3844;5.4277;0.0187;-0.0344;-0.0798
0000757498;6.7157;-14.3652;5.4348;0.0195;-0.0318;-0.0850
0000757507;6.7349;-14.4538;5.4612;0.0176;-0.0215;-0.0759
0000757520;6.7014;-14.5352;5.5019;0.0155;-0.0272;-0.0871
0000757529;6.5410;-14.5783;5.4875;0.0080;-0.0297;-0.0818
0000757541;6.7636;-14.3652;5.4708;0.0057;-0.0321;-0.0845
0000757550;6.8666;-14.4538;5.4684;-0.0053;-0.0326;-0.0809
0000757559;6.7277;-14.3939;5.5115;-0.0043;-0.0334;-0.0813
0000757572;6.7014;-14.5567;5.5186;-0.0008;-0.0368;-0.0886
0000757581;6.7086;-14.3796;5.4372;0.0000;-0.0386;-0.0786
0000757593;6.8929;-14.2096;5.5234;0.0076;-0.0428;-0.0675
0000757602;6.9408;-14.1569;5.5210;0.0127;-0.0544;-0.0659
0000757671;7.0797;-14.4179;5.4277;0.0057;-0.1232;-0.0153
0000757680;6.7588;-14.5448;5.3199;0.0041;-0.1308;-0.0226
0000757692;6.9192;-14.3892;5.4253;-0.0069;-0.1284;-0.0205
0000757701;6.7564;-14.4610;5.4181;-0.0109;-0.1218;-0.0169
0000757714;6.6176;-14.3820;5.4253;0.0017;-0.1244;-0.0234
0000757723;6.6655;-14.3197;5.4324;0.0092;-0.1156;-0.0139
0000757732;6.6104;-14.4179;5.4468;0.0159;-0.1135;-0.0121
0000757744;6.8498;-14.1928;5.3534;0.0398;-0.1013;-0.0196
0000757753;6.6463;-14.3844;5.4516;0.0404;-0.0898;-0.0179
0000757766;6.6798;-14.2910;5.5330;0.0384;-0.0670;-0.0234
0000757775;6.4428;-14.4634;5.5569;0.0329;-0.0497;-0.0265
0000757787;6.4524;-14.4849;5.5689;0.0173;-0.0344;-0.0332
0000757796;6.5793;-14.3700;5.6383;-0.0001;-0.0093;-0.0332
0000757809;6.6152;-14.4658;5.7557;-0.0144;0.0097;-0.0294
0000757818;6.9480;-14.3939;5.7317;-0.0221;0.0216;-0.0278
0000757830;6.9145;-14.6262;5.7150;-0.0302;0.0197;-0.0314
0000757839;7.0006;-14.5974;5.6336;-0.0437;0.0201;-0.0309
0000757848;7.1371;-14.3987;5.5713;-0.0500;0.0099;-0.0316
0000757861;7.1706;-14.4107;5.5905;-0.0686;0.0015;-0.0374
0000757870;6.9480;-14.3796;5.5186;-0.0617;-0.0120;-0.0425
0000757882;6.8594;-14.2383;5.4708;-0.0545;-0.0241;-0.0498
0000757891;6.9863;-14.0540;5.3870;-0.0498;-0.0236;-0.0486
0000757960;6.7301;-14.4777;5.5737;-0.0597;-0.0195;-0.0222
0000757969;6.7660;-14.5615;5.4420;-0.0722;-0.0199;-0.0248
0000757981;6.7301;-14.5567;5.5641;-0.0818;-0.0173;-0.0288
0000757990;6.6942;-14.3963;5.4779;-0.0817;-0.0233;-0.0297
0000758003;6.8235;-14.2407;5.4492;-0.0765;-0.0187;-0.0280
0000758012;6.8618;-14.3652;5.4612;-0.0758;-0.0081;-0.0187
0000758021;6.7109;-14.4131;5.5761;-0.0674;-0.0128;-0.0257
0000758033;6.6870;-14.4227;5.4612;-0.0597;-0.0105;-0.0209
0000758042;6.7469;-14.4658;5.4229;-0.0540;-0.0103;-0.0284
0000758055;6.7924;-14.6214;5.3846;-0.0586;-0.0088;-0.0266
0000758064;6.8283;-14.5328;5.4851;-0.0681;-0.0004;-0.0261
0000758076;6.7660;-14.5951;5.4444;-0.0821;0.0052;-0.0229
0000758085;6.8450;-14.6310;5.4324;-0.0893;0.0091;-0.0261
0000758098;6.7876;-14.4490;5.4755;-0.1011;0.0144;-0.0234
0000758107;6.8809;-14.2814;5.3846;-0.1057;0.0099;-0.0140
0000758119;6.9121;-14.2623;5.4085;-0.0935;0.0076;-0.0152
0000758128;6.8881;-14.3006;5.3223;-0.0898;0.0156;-0.0041
0000758141;6.9647;-14.3413;5.3941;-0.0710;0.0119;-0.0016
0000758150;7.0820;-14.2431;5.3079;-0.0605;0.0037;-0.0055
0000758159;7.0916;-14.3508;5.3582;-0.0572;0.0095;0.0039
0000758171;6.8881;-14.4610;5.3822;-0.0524;0.0076;0.0099
0000758180;7.1395;-14.4538;5.3582;-0.0509;-0.0013;0.0075
0000758249;6.8690;-14.3892;5.2002;-0.0364;-0.0165;0.0294
0000758258;6.8690;-14.3963;5.2218;-0.0300;-0.0193;0.0278
0000758270;6.5649;-14.6477;5.3534;-0.0250;-0.0232;0.0296
0000758279;6.7397;-14.4753;5.2768;-0.0332;-0.0129;0.0337
0000758292;6.7756;-14.5328;5.2457;-0.0272;-0.0205;0.0326
0000758301;6.7588;-14.4514;5.2744;-0.0358;-0.0097;0.0366
0000758310;6.7301;-14.5376;5.2744;-0.0325;-0.0133;0.0405
0000758322;6.6798;-14.4753;5.2864;-0.0290;-0.0180;0.0417
0000758331;6.6846;-14.3844;5.3103;-0.0316;-0.0165;0.0396
0000758344;6.6702;-14.3772;5.2696;-0.0153;-0.0124;0.0362
0000758353;6.5960;-14.5639;5.3079;-0.0147;-0.0115;0.0344
0000758365;6.4715;-14.5472;5.2744;-0.0093;-0.0135;0.0258
0000758374;6.5457;-14.5496;5.3463;-0.0155;-0.0031;0.0260
0000758388;6.6655;-14.4131;5.3367;-0.0145;0.0019;0.0222
0000758397;6.5003;-14.4514;5.3534;-0.0185;0.0051;0.0168
0000758410;6.4476;-14.4275;5.3510;-0.0159;0.0155;0.0228
0000758419;6.5098;-14.4658;5.2361;-0.0175;0.0169;0.0181
0000758428;6.4931;-14.6046;5.2936;-0.0109;0.0111;0.0165
0000758440;6.5218;-14.4682;5.2553;-0.0095;0.0175;0.0175
0000758449;6.6008;-14.4011;5.3032;-0.0001;0.0025;0.0104
0000758518;6.5529;-14.4442;5.2505;0.0053;-0.0020;0.0103
0000758527;6.5721;-14.4179;5.3870;0.0049;-0.0081;0.0093
0000758539;6.5625;-14.5304;5.3199;0.0171;-0.0128;0.0049
0000758548;6.5362;-14.4729;5.1906;0.0172;-0.0057;0.0079
0000758561;6.6631;-14.4227;5.2433;0.0266;-0.0153;0.0016
0000758570;6.6391;-14.5184;5.2577;0.0252;-0.0065;-0.0004
0000758579;6.8738;-14.3245;5.3678;0.0313;-0.0180;0.0012
0000758591;6.5529;-14.4945;5.4492;0.0253;-0.0208;-0.0003
0000758600;6.6583;-14.4011;5.3774;0.0264;-0.0302;-0.0043
0000758613;6.5960;-14.5783;5.3654;0.0141;-0.0334;-0.0033
0000758622;6.6319;-14.4729;5.4684;0.0124;-0.0373;-0.0027
0000758634;6.5936;-14.4706;5.4085;0.0105;-0.0446;-0.0092
0000758643;6.4907;-14.4729;5.4013;0.0023;-0.0370;-0.0041
0000758656;6.3398;-14.5783;5.3965;0.0047;-0.0382;-0.0035
0000758665;6.6176;-14.4586;5.3606;0.0059;-0.0329;-0.0099
0000758677;6.7780;-14.3604;5.4444;0.0044;-0.0349;-0.0069
0000758686;6.5314;-14.4155;5.4229;0.0029;-0.0338;-0.0111
0000758695;6.4907;-14.5544;5.5115;-0.0028;-0.0328;-0.0128
0000758708;6.4643;-14.5520;5.5067;-0.0099;-0.0298;-0.0100
0000758717;6.4835;-14.5544;5.4516;-0.0212;-0.0309;-0.0136
0000758729;6.5529;-14.5328;5.4803;-0.0179;-0.0342;-0.0161
0000758738;6.6870;-14.4203;5.5258;-0.0199;-0.0270;-0.0091
0000758807;6.5386;-14.4634;5.3630;-0.0297;-0.0472;-0.0203
0000758816;6.5625;-14.4825;5.3199;-0.0264;-0.0513;-0.0209
0000758828;6.6942;-14.2263;5.3917;-0.0155;-0.0520;-0.0173
0000758837;6.5003;-14.4107;5.3343;-0.0060;-0.0588;-0.0226
0000758850;6.4763;-14.5496;5.3032;-0.0035;-0.0617;-0.0244
0000758859;6.5098;-14.5256;5.3415;0.0028;-0.0632;-0.0300
0000758868;6.5793;-14.3915;5.2170;-0.0035;-0.0620;-0.0288
0000758880;6.5457;-14.3628;5.3127;-0.0024;-0.0670;-0.0342
0000758889;6.5362;-14.4203;5.3032;-0.0088;-0.0655;-0.0346
0000758902;6.6966;-14.3077;5.2074;-0.0093;-0.0674;-0.0352
0000758911;6.5290;-14.4729;5.2529;-0.0116;-0.0616;-0.0356
0000758923;6.6056;-14.4801;5.3391;-0.0032;-0.0622;-0.0377
0000758932;6.5434;-14.4682;5.2936;-0.0041;-0.0542;-0.0374
0000758945;6.4380;-14.4490;5.3463;0.0043;-0.0586;-0.0468
0000758954;6.6032;-14.3963;5.2265;0.0043;-0.0634;-0.0518
0000758966;6.6367;-14.5328;5.4588;-0.0016;-0.0576;-0.0542
0000758975;6.5936;-14.4993;5.3726;-0.0004;-0.0618;-0.0640
0000758988;6.7516;-14.3915;5.4085;-0.0029;-0.0588;-0.0644
0000758997;6.7636;-14.3604;5.4133;-0.0108;-0.0548;-0.0565
0000759006;6.7397;-14.2958;5.3822;-0.0048;-0.0561;-0.0614
0000759018;6.7014;-14.4777;5.3750;-0.0037;-0.0558;-0.0666
0000759027;6.6200;-14.4610;5.3702;-0.0075;-0.0504;-0.0621
0000759096;6.6702;-14.4107;5.4324;-0.0193;-0.0420;-0.0655
0000759105;6.8498;-14.3700;5.4372;-0.0185;-0.0470;-0.0722
0000759117;6.8929;-14.2455;5.4851;-0.0230;-0.0434;-0.0729
0000759126;6.7469;-14.5735;5.4109;-0.0286;-0.0460;-0.0698
0000759139;6.8307;-14.3149;5.4300;-0.0245;-0.0485;-0.0717
0000759148;6.8043;-14.2670;5.4372;-0.0250;-0.0470;-0.0677
0000759160;6.8091;-14.4490;5.4085;-0.0265;-0.0516;-0.0649
0000759169;6.7804;-14.3963;5.3486;-0.0268;-0.0500;-0.0662
0000759182;6.8977;-14.4155;5.4037;-0.0310;-0.0533;-0.0650
0000759191;6.9145;-14.3844;5.4300;-0.0325;-0.0538;-0.0630
0000759200;6.8618;-14.3652;5.2912;-0.0334;-0.0529;-0.0600
0000759212;6.7636;-14.5041;5.3870;-0.0377;-0.0456;-0.0582
0000759221;6.7804;-14.5544;5.3822;-0.0452;-0.0410;-0.0526
0000759234;6.6966;-14.6070;5.3223;-0.0420;-0.0392;-0.0541
0000759243;6.7277;-14.4897;5.3175;-0.0388;-0.0360;-0.0524
0000759255;6.8761;-14.3437;5.2960;-0.0334;-0.0406;-0.0516
0000759264;6.9695;-14.3604;5.3175;-0.0341;-0.0325;-0.0477
0000759277;6.9216;-14.4921;5.3367;-0.0305;-0.0348;-0.0462
0000759286;6.8761;-14.4825;5.2960;-0.0302;-0.0362;-0.0472
0000759298;6.9647;-14.4131;5.3127;-0.0312;-0.0294;-0.0465
0000759307;6.7804;-14.6190;5.3223;-0.0405;-0.0324;-0.0457
0000759375;6.8187;-14.3485;5.2984;-0.0365;-0.0254;-0.0313
0000759384;6.9552;-14.3269;5.2816;-0.0277;-0.0222;-0.0269
0000759393;6.7349;-14.5783;5.3199;-0.0246;-0.0184;-0.0258
0000759405;6.8522;-14.5687;5.4229;-0.0242;-0.0187;-0.0268
0000759414;6.8235;-14.5352;5.4253;-0.0262;-0.0139;-0.0176
0000759427;6.9719;-14.6070;5.4348;-0.0394;-0.0072;-0.0165
0000759436;6.8570;-14.5735;5.5162;-0.0480;-0.0119;-0.0117
0000759448;7.0030;-14.5304;5.4731;-0.0633;-0.0103;-0.0140
0000759457;6.8690;-14.6310;5.4205;-0.0758;-0.0108;-0.0076
0000759470;6.9360;-14.3868;5.3822;-0.0802;-0.0165;-0.0051
0000759479;6.8618;-14.3101;5.4803;-0.0798;-0.0215;-0.0063
0000759491;6.9312;-14.3939;5.3415;-0.0674;-0.0292;-0.0035
0000759500;6.9528;-14.3676;5.3893;-0.0592;-0.0337;-0.0013
0000759513;6.8905;-14.4107;5.3079;-0.0448;-0.0369;0.0015
0000759522;6.9647;-14.3796;5.3295;-0.0344;-0.0377;0.0044
0000759531;6.8642;-14.4801;5.3079;-0.0345;-0.0404;0.0059
0000759543;6.9073;-14.4729;5.3151;-0.0373;-0.0408;0.0088
0000759552;6.7756;-14.4131;5.2433;-0.0380;-0.0413;0.0117
0000759565;6.8738;-14.5160;5.1260;-0.0428;-0.0409;0.0152
0000759574;6.7445;-14.4897;5.1667;-0.0397;-0.0420;0.0112
0000759586;6.7540;-14.5184;5.1260;-0.0333;-0.0496;0.0041
0000759595;6.7947;-14.3748;5.1308;-0.0293;-0.0461;0.0036
0000759664;6.6056;-14.5424;5.2218;-0.0129;-0.0369;-0.0061
0000759673;6.8474;-14.4538;5.1212;-0.0076;-0.0310;-0.0079
0000759685;6.7229;-14.5065;5.1499;-0.0041;-0.0281;-0.0093
0000759694;6.6535;-14.4634;5.2002;0.0037;-0.0310;-0.0143
0000759703;6.6942;-14.4251;5.2816;0.0100;-0.0285;-0.0101
0000759716;6.5505;-14.5735;5.2385;0.0103;-0.0226;-0.0108
0000759725;6.5697;-14.5232;5.2313;0.0117;-0.0253;-0.0171
0000759737;6.7014;-14.4514;5.2696;0.0068;-0.0173;-0.0129
0000759746;6.6631;-14.5520;5.3774;0.0103;-0.0266;-0.0192
0000759759;6.6224;-14.5065;5.3606;0.0044;-0.0236;-0.0155
0000759768;6.7876;-14.4753;5.3008;0.0140;-0.0229;-0.0200
0000759780;6.8043;-14.4729;5.3295;0.0199;-0.0264;-0.0217
0000759789;6.8642;-14.3700;5.2960;0.0234;-0.0249;-0.0253
0000759803;6.8498;-14.3748;5.4588;0.0258;-0.0220;-0.0226
0000759812;6.7756;-14.4610;5.4516;0.0270;-0.0213;-0.0232
0000759821;6.7924;-14.5639;5.4109;0.0234;-0.0169;-0.0173
0000759834;6.8977;-14.4322;5.4157;0.0185;-0.0211;-0.0153
0000759843;6.8977;-14.5591;5.3893;0.0155;-0.0229;-0.0192
0000759855;6.8091;-14.4442;5.4037;0.0195;-0.0290;-0.0189
0000759864;6.6535;-14.6717;5.4875;0.0140;-0.0258;-0.0143
0000759877;6.9073;-14.2886;5.4013;0.0136;-0.0330;-0.0222
0000759886;6.8091;-14.4921;5.4085;0.0056;-0.0265;-0.0132
0000759956;6.8977;-14.3796;5.3941;-0.0024;-0.0408;-0.0151
0000759965;6.9145;-14.4897;5.2601;-0.0049;-0.0434;-0.0103
0000759978;6.7229;-14.4777;5.3582;-0.0011;-0.0442;-0.0137
0000759987;6.6942;-14.4346;5.3247;0.0019;-0.0457;-0.0144
0000759996;6.7253;-14.4897;5.3989;0.0015;-0.0386;-0.0117
0000760008;6.8474;-14.4083;5.3463;0.0056;-0.0438;-0.0120
0000760017;6.8043;-14.4538;5.3798;0.0065;-0.0454;-0.0185
0000760030;6.7708;-14.3939;5.2720;0.0133;-0.0465;-0.0195
0000760039;6.7828;-14.4514;5.3582;0.0127;-0.0489;-0.0187
0000760051;6.7660;-14.5160;5.3343;0.0085;-0.0434;-0.0151
0000760060;6.9480;-14.3413;5.3774;0.0071;-0.0445;-0.0173
0000760073;6.7852;-14.5089;5.3127;-0.0004;-0.0370;-0.0176
0000760082;6.9073;-14.4442;5.3223;-0.0027;-0.0377;-0.0137
0000760094;6.7421;-14.4969;5.3558;0.0015;-0.0370;-0.0157
0000760103;6.7900;-14.4634;5.3056;-0.0033;-0.0429;-0.0163
0000760112;6.6224;-14.5352;5.3463;-0.0088;-0.0376;-0.0139
0000760125;6.7086;-14.4729;5.3822;0.0049;-0.0394;-0.0187
0000760134;6.7445;-14.4155;5.2553;0.0076;-0.0393;-0.0176
0000760146;6.6343;-14.4777;5.3558;0.0157;-0.0350;-0.0164
0000760155;6.8426;-14.3413;5.3750;0.0226;-0.0361;-0.0208
0000760168;6.6439;-14.5472;5.3223;0.0266;-0.0336;-0.0173
0000760177;6.7086;-14.5400;5.3989;0.0281;-0.0358;-0.0212
0000760247;6.8450;-14.3628;5.4109;0.0063;-0.0273;-0.0215
0000760256;6.7493;-14.4418;5.4205;0.0089;-0.0360;-0.0237
0000760269;6.8378;-14.3125;5.3870;0.0068;-0.0309;-0.0185
0000760278;6.9049;-14.3652;5.3654;0.0056;-0.0320;-0.0222
0000760287;6.8690;-14.4394;5.3917;0.0027;-0.0320;-0.0184
0000760299;6.7828;-14.4825;5.5138;0.0049;-0.0340;-0.0161
0000760308;6.9360;-14.3748;5.4612;-0.0016;-0.0322;-0.0159
0000760321;6.7564;-14.4562;5.3630;0.0052;-0.0356;-0.0187
0000760330;6.8881;-14.4490;5.4636;0.0044;-0.0380;-0.0189
0000760342;6.7564;-14.3724;5.4348;0.0037;-0.0346;-0.0188
0000760349;6.9025;-14.3676;5.3319;-0.0031;-0.0314;-0.0100
0000760361;6.9767;-14.3628;5.3702;0.0021;-0.0270;-0.0131
0000760369;6.6248;-14.6022;5.4348;0.0012;-0.0256;-0.0111
0000760380;6.8761;-14.3508;5.3103;-0.0008;-0.0294;-0.0095
0000760388;7.0749;-14.3508;5.4324;-0.0009;-0.0281;-0.0124
0000760396;6.6152;-14.5735;5.4109;-0.0008;-0.0350;-0.0159
0000760408;6.8067;-14.3963;5.4205;-0.0065;-0.0320;-0.0147
0000760416;6.9001;-14.4849;5.3223;-0.0099;-0.0337;-0.0101
0000760427;6.9623;-14.3006;5.4085;-0.0164;-0.0309;-0.0071
0000760435;6.8474;-14.3173;5.3750;-0.0081;-0.0332;-0.0120
