time;acc_x;acc_y;acc_z;gyro_x;gyro_y;gyro_z
0000828038;6.4715;-15.2702;3.9289;-0.0356;-0.0586;-0.0013
0000828046;6.4141;-15.3708;3.9624;-0.0352;-0.0690;-0.0005
0000828053;6.3710;-15.2750;3.9600;-0.0384;-0.0702;-0.0008
0000828061;6.3494;-15.2894;3.8571;-0.0318;-0.0753;-0.0003
0000828069;6.3638;-15.2798;3.8211;-0.0382;-0.0750;0.0048
0000828077;6.3925;-15.1577;3.8235;-0.0432;-0.0738;0.0045
0000828085;6.2249;-15.3899;3.8834;-0.0330;-0.0871;-0.0003
0000828093;6.1890;-15.4043;3.8355;-0.0338;-0.0894;0.0079
0000828101;6.3015;-15.4498;3.8259;-0.0378;-0.0893;0.0160
0000828109;6.4859;-15.2870;3.7517;-0.0398;-0.0939;0.0204
0000828117;6.2680;-15.3373;3.8092;-0.0344;-0.1042;0.0215
0000828125;6.3590;-15.1840;3.7709;-0.0358;-0.1091;0.0228
0000828133;6.3422;-15.3061;3.7876;-0.0424;-0.1131;0.0306
0000828141;6.3015;-15.3037;3.8355;-0.0356;-0.1235;0.0276
0000828149;6.1914;-15.4043;3.7206;-0.0344;-0.1284;0.0252
0000828157;6.0310;-15.3420;3.7373;-0.0313;-0.1278;0.0257
0000828165;6.1244;-15.3205;3.7206;-0.0269;-0.1303;0.0220
0000828173;6.1339;-15.3636;3.7469;-0.0302;-0.1314;0.0264
0000828181;6.0645;-15.4019;3.6799;-0.0334;-0.1248;0.0293
0000828189;6.0956;-15.4139;3.6895;-0.0314;-0.1303;0.0284
0000828197;6.0861;-15.3277;3.8571;-0.0388;-0.1266;0.0318
0000828205;5.9735;-15.4689;3.8475;-0.0438;-0.1314;0.0292
0000828213;6.0071;-15.5527;3.8906;-0.0469;-0.1208;0.0334
0000828221;5.9951;-15.4594;3.8882;-0.0584;-0.1143;0.0384
0000828229;6.2058;-15.3588;3.9361;-0.0594;-0.1174;0.0344
0000828237;5.9759;-15.4498;3.8690;-0.0675;-0.1082;0.0424
0000828245;6.2225;-15.2798;3.7709;-0.0613;-0.1124;0.0364
0000828253;6.0430;-15.2343;3.8211;-0.0582;-0.1152;0.0429
0000828261;6.2824;-15.1122;3.7948;-0.0580;-0.1146;0.0422
0000828269;6.1507;-15.3444;3.7996;-0.0564;-0.1250;0.0418
0000828277;6.3662;-15.1242;3.7517;-0.0667;-0.1178;0.0462
0000828285;6.4500;-15.1026;3.8259;-0.0642;-0.1192;0.0478
0000828293;6.2656;-15.1840;3.8571;-0.0572;-0.1284;0.0442
0000828301;6.2058;-15.2391;3.7278;-0.0469;-0.1356;0.0433
0000828309;6.3758;-15.0380;3.8188;-0.0500;-0.1351;0.0440
0000828317;6.2584;-15.1673;3.6607;-0.0406;-0.1382;0.0461
0000828325;6.2465;-15.1673;3.7182;-0.0289;-0.1463;0.0441
0000828333;6.2010;-15.1481;3.6943;-0.0254;-0.1418;0.0514
0000828341;6.3566;-15.0188;3.7685;-0.0204;-0.1419;0.0449
0000828349;6.1100;-15.2654;3.8547;-0.0083;-0.1487;0.0452
0000828357;6.1627;-15.2726;3.7709;-0.0095;-0.1403;0.0456
0000828365;6.2177;-15.2032;3.7469;-0.0109;-0.1352;0.0429
0000828373;6.1148;-15.2223;3.7828;-0.0035;-0.1319;0.0376
0000828381;5.9951;-15.3349;3.8331;0.0053;-0.1231;0.0354
0000828389;6.1196;-15.3109;3.8666;0.0043;-0.1163;0.0338
0000828397;6.1507;-15.2032;3.8188;0.0007;-0.0999;0.0326
0000828405;6.0861;-15.3205;3.7804;-0.0003;-0.0921;0.0305
0000828413;5.9089;-15.4115;3.9169;-0.0004;-0.0813;0.0274
0000828421;5.7940;-15.5049;3.9313;0.0048;-0.0789;0.0196
0000828429;6.0262;-15.2726;3.8978;0.0001;-0.0673;0.0176
0000828437;5.9161;-15.4211;3.8547;-0.0048;-0.0605;0.0071
0000828445;5.9017;-15.3349;3.8906;0.0009;-0.0556;-0.0027
0000828453;5.8490;-15.4498;3.8762;-0.0025;-0.0445;-0.0036
0000828461;6.0071;-15.2008;3.9049;-0.0027;-0.0433;-0.0147
0000828469;6.0430;-15.2726;3.8642;-0.0004;-0.0432;-0.0157
0000828477;6.1962;-15.2894;3.9289;-0.0081;-0.0358;-0.0136
0000828485;6.1627;-15.2918;3.9193;-0.0055;-0.0426;-0.0246
0000828493;6.0382;-15.2966;3.8690;-0.0088;-0.0392;-0.0240
0000828501;6.2058;-15.2750;3.9049;-0.0153;-0.0357;-0.0208
0000828509;6.2776;-15.1840;3.7924;-0.0143;-0.0360;-0.0234
0000828517;5.9400;-15.4234;3.7924;-0.0040;-0.0468;-0.0217
0000828525;6.1028;-15.4330;3.7804;-0.0095;-0.0360;-0.0213
0000828533;6.0094;-15.2606;3.7541;-0.0107;-0.0357;-0.0181
0000828541;5.9759;-15.3444;3.8092;-0.0127;-0.0268;-0.0153
0000828549;5.9855;-15.4019;3.7996;-0.0133;-0.0298;-0.0242
0000828557;6.1723;-15.2295;3.8547;-0.0093;-0.0302;-0.0250
0000828565;6.1986;-15.1792;3.9241;-0.0147;-0.0241;-0.0204
0000828573;6.0047;-15.4618;3.8092;-0.0183;-0.0159;-0.0205
0000828581;6.0932;-15.2630;3.7948;-0.0176;-0.0196;-0.0195
0000828589;6.0908;-15.3780;3.7828;-0.0265;-0.0060;-0.0191
0000828616;6.1507;-15.3157;3.7182;-0.0353;-0.0063;-0.0209
0000828624;6.1268;-15.3109;3.7469;-0.0297;-0.0073;-0.0203
0000828632;6.3135;-15.2606;3.6895;-0.0240;-0.0109;-0.0181
0000828640;6.3351;-15.1649;3.7230;-0.0246;-0.0079;-0.0127
0000828648;6.1723;-15.3277;3.7110;-0.0236;-0.0117;-0.0147
0000828656;6.1579;-15.2750;3.7326;-0.0148;-0.0145;-0.0175
0000828664;6.0358;-15.3684;3.6751;-0.0187;-0.0093;-0.0081
0000828672;6.2297;-15.3564;3.7014;-0.0144;-0.0229;-0.0111
0000828680;6.1794;-15.4689;3.7086;-0.0183;-0.0184;-0.0017
0000828688;6.2106;-15.3756;3.7541;-0.0199;-0.0288;0.0004
0000828696;6.3925;-15.4330;3.6224;-0.0184;-0.0372;0.0060
0000828704;6.3566;-15.3253;3.7014;-0.0189;-0.0421;0.0113
0000828712;6.3542;-15.4139;3.5961;-0.0140;-0.0541;0.0188
0000828720;6.3782;-15.4306;3.7373;-0.0116;-0.0640;0.0200
0000828728;6.4620;-15.4594;3.7565;-0.0057;-0.0726;0.0254
0000828736;6.4691;-15.6174;3.7230;-0.0113;-0.0867;0.0300
0000828744;6.6415;-15.4522;3.7541;-0.0059;-0.1042;0.0220
0000828752;6.5338;-15.5384;3.7757;-0.0163;-0.1122;0.0325
0000828760;6.4045;-15.5288;3.8068;-0.0208;-0.1203;0.0320
0000828768;6.3446;-15.6557;3.8666;-0.0209;-0.1423;0.0282
0000828776;6.4715;-15.4881;3.7757;-0.0286;-0.1529;0.0305
0000828784;6.4428;-15.4522;3.8140;-0.0338;-0.1757;0.0296
0000828792;6.4380;-15.4929;3.8379;-0.0394;-0.1881;0.0324
0000828800;6.4332;-15.3540;3.7900;-0.0422;-0.1992;0.0332
0000828808;6.5745;-15.3947;3.7421;-0.0433;-0.2156;0.0330
0000828816;6.4763;-15.4426;3.7709;-0.0382;-0.2312;0.0286
0000828824;6.5003;-15.4522;3.7852;-0.0446;-0.2410;0.0314
0000828832;6.4021;-15.5025;3.8690;-0.0510;-0.2507;0.0340
0000828840;6.3805;-15.4953;3.8714;-0.0576;-0.2590;0.0266
0000828848;6.4691;-15.3085;3.7637;-0.0594;-0.2717;0.0232
0000828856;6.5194;-15.5216;3.8188;-0.0703;-0.2665;0.0266
0000828864;6.2944;-15.4737;3.8044;-0.0797;-0.2695;0.0294
0000828872;6.3997;-15.3899;3.8235;-0.0829;-0.2801;0.0266
0000828880;6.3135;-15.3684;3.8116;-0.0799;-0.2914;0.0322
0000828888;6.5194;-15.3109;3.8762;-0.0779;-0.2930;0.0416
0000828896;6.3327;-15.3349;3.7781;-0.0798;-0.2896;0.0433
0000828904;6.3805;-15.2152;3.7876;-0.0814;-0.2936;0.0394
0000828912;6.0693;-15.4354;3.7972;-0.0851;-0.2940;0.0393
0000828920;5.8993;-15.2750;3.6871;-0.0899;-0.2998;0.0358
0000828928;6.0549;-15.4522;3.6679;-0.0763;-0.3031;0.0320
0000828936;6.0765;-15.5025;3.6847;-0.0837;-0.2928;0.0365
0000828944;6.0573;-15.3229;3.6775;-0.0882;-0.2952;0.0378
0000828952;6.0382;-15.2080;3.5769;-0.0918;-0.2999;0.0396
0000828960;5.9448;-15.1864;3.5985;-0.0954;-0.2940;0.0468
0000828968;6.0813;-15.2199;3.4884;-0.0813;-0.2875;0.0496
0000828976;5.8419;-15.1409;3.4261;-0.0733;-0.2801;0.0554
0000828984;6.0789;-15.0667;3.4500;-0.0540;-0.2758;0.0588
0000828992;6.0621;-15.0547;3.4117;-0.0429;-0.2622;0.0706
0000829000;5.8586;-15.3253;3.4788;-0.0290;-0.2546;0.0722
0000829008;6.0094;-15.1146;3.5889;-0.0230;-0.2417;0.0778
0000829016;6.0190;-15.1601;3.5913;-0.0172;-0.2378;0.0737
0000829024;5.9376;-15.2367;3.7230;-0.0153;-0.2301;0.0701
0000829032;5.8778;-15.3684;3.6536;-0.0222;-0.2212;0.0699
0000829040;5.9304;-15.1936;3.7637;-0.0242;-0.2084;0.0682
0000829048;5.7269;-15.3708;3.7302;-0.0357;-0.1937;0.0686
0000829056;5.7772;-15.2774;3.6727;-0.0328;-0.1872;0.0580
0000829064;5.9616;-15.2080;3.6847;-0.0289;-0.1757;0.0592
0000829072;5.9256;-15.2750;3.5721;-0.0285;-0.1600;0.0580
0000829080;6.1316;-15.1744;3.6392;-0.0163;-0.1462;0.0610
0000829088;6.1196;-15.2415;3.6320;-0.0128;-0.1332;0.0537
0000829096;6.0741;-15.3923;3.7326;-0.0051;-0.1176;0.0513
0000829104;6.0765;-15.2750;3.7278;-0.0036;-0.1001;0.0485
0000829112;6.1842;-15.3660;3.7110;0.0043;-0.0917;0.0406
0000829120;6.0501;-15.4115;3.7852;0.0021;-0.0795;0.0441
0000829128;6.0789;-15.3564;3.7804;0.0007;-0.0617;0.0398
0000829136;6.0693;-15.3899;3.8355;-0.0036;-0.0598;0.0332
0000829144;6.0094;-15.4665;3.8068;-0.0057;-0.0509;0.0329
0000829152;5.9209;-15.4761;3.7852;-0.0093;-0.0489;0.0196
0000829160;6.0837;-15.3397;3.8618;-0.0101;-0.0413;0.0128
0000829168;5.9544;-15.3875;3.7637;-0.0163;-0.0266;0.0061
0000829176;5.7820;-15.4258;3.7541;-0.0164;-0.0230;-0.0016
0000829260;6.1866;-15.4019;3.6344;-0.0253;0.0032;-0.0133
0000829268;6.1675;-15.4234;3.6799;-0.0309;0.0053;-0.0103
0000829276;6.1866;-15.3301;3.7158;-0.0316;0.0016;-0.0047
0000829284;6.2704;-15.2343;3.6320;-0.0278;-0.0060;-0.0120
0000829292;6.1794;-15.4163;3.6679;-0.0345;-0.0016;-0.0059
0000829300;6.1196;-15.5001;3.6488;-0.0318;-0.0053;-0.0065
0000829308;6.1914;-15.4761;3.7038;-0.0286;-0.0151;-0.0088
0000829316;6.3925;-15.3277;3.6416;-0.0252;-0.0171;-0.0031
0000829324;6.1244;-15.5863;3.6703;-0.0274;-0.0226;-0.0003
0000829332;6.3518;-15.4234;3.5937;-0.0215;-0.0257;0.0029
0000829340;6.3470;-15.3851;3.6727;-0.0281;-0.0288;0.0115
0000829348;6.5888;-15.3516;3.5745;-0.0240;-0.0373;0.0180
0000829356;6.5984;-15.3540;3.5865;-0.0196;-0.0505;0.0143
0000829364;6.3255;-15.3756;3.5482;-0.0204;-0.0524;0.0193
0000829372;6.3662;-15.4067;3.6152;-0.0157;-0.0592;0.0221
0000829380;6.6056;-15.3109;3.6392;-0.0095;-0.0701;0.0149
0000829388;6.4907;-15.2702;3.6536;-0.0096;-0.0697;0.0181
0000829396;6.4572;-15.2199;3.6272;0.0017;-0.0749;0.0124
0000829404;6.3782;-15.3804;3.7182;0.0027;-0.0702;0.0167
0000829412;6.3590;-15.4857;3.6679;0.0012;-0.0699;0.0113
0000829420;6.3207;-15.3444;3.7230;0.0043;-0.0650;0.0084
0000829428;6.1316;-15.6820;3.7804;-0.0084;-0.0590;0.0040
0000829436;6.3734;-15.3253;3.7110;0.0001;-0.0522;-0.0085
0000829444;6.2704;-15.3061;3.6200;-0.0168;-0.0437;-0.0111
0000829452;5.9065;-15.4785;3.5841;-0.0257;-0.0265;-0.0196
0000829460;5.9376;-15.3516;3.5386;-0.0274;-0.0179;-0.0326
0000829468;5.8490;-15.3085;3.6344;-0.0197;-0.0047;-0.0504
0000829476;5.7868;-15.2774;3.6033;-0.0213;0.0229;-0.0580
0000829484;5.7317;-15.2918;3.6129;-0.0189;0.0502;-0.0709
0000829492;5.6790;-15.4043;3.4907;-0.0119;0.0699;-0.0910
0000829500;5.7269;-15.4067;3.5051;-0.0124;0.0937;-0.1007
0000829508;6.0238;-15.2391;3.5147;0.0029;0.1268;-0.1107
0000829516;6.0525;-15.3636;3.6990;0.0286;0.1561;-0.1210
0000829524;5.9568;-15.4019;3.7134;0.0346;0.1760;-0.1468
0000829532;6.2177;-15.9645;3.7206;0.0454;0.2197;-0.1392
0000829540;6.6990;-16.4697;3.6847;0.0264;0.2453;-0.1238
0000829548;7.1228;-16.7594;3.6895;-0.0183;0.2421;-0.1067
0000829556;7.5561;-16.6804;3.5123;-0.0769;0.2137;-0.0886
0000829564;7.5537;-16.0771;3.4740;-0.1486;0.1685;-0.0710
0000829572;7.1347;-15.3061;3.3926;-0.2085;0.1030;-0.0811
0000829580;6.7780;-14.2886;3.3136;-0.1976;0.0485;-0.1065
0000829588;5.9831;-13.6685;3.2825;-0.1239;0.0260;-0.1454
0000829596;5.5450;-13.2399;3.2681;-0.0168;0.0353;-0.1661
0000829604;5.1619;-13.3764;3.1412;0.1055;0.0586;-0.1891
0000829612;5.0398;-13.7691;3.1939;0.1986;0.1111;-0.1974
0000829620;4.4915;-14.7148;3.3160;0.2459;0.1752;-0.1960
0000829628;4.6376;-15.4067;3.6033;0.2769;0.2453;-0.1881
0000829636;4.9584;-15.7874;4.0342;0.2966;0.3219;-0.1715
0000829644;5.2050;-16.3572;4.4005;0.2711;0.3893;-0.1443
0000829652;5.7940;-16.5511;4.6352;0.2058;0.4351;-0.1248
0000829660;6.1124;-16.5727;4.7788;0.1147;0.4533;-0.1102
0000829668;6.6798;-16.3692;4.7405;0.0045;0.4567;-0.1099
0000829676;6.6008;-16.2806;4.6567;-0.1019;0.4427;-0.1102
0000829684;6.6463;-15.7395;4.2856;-0.1841;0.4270;-0.1210
0000829692;6.4476;-15.1625;3.9792;-0.2269;0.4034;-0.1436
0000829700;6.1196;-14.7483;3.4069;-0.2186;0.3816;-0.1556
0000829708;5.9927;-14.5520;3.0718;-0.1840;0.3858;-0.1520
0000829716;5.9448;-14.4658;2.8970;-0.1348;0.3926;-0.1423
0000829724;6.0669;-14.4299;2.8491;-0.0823;0.4024;-0.1252
0000829732;6.0980;-14.7315;2.9473;-0.0357;0.4249;-0.1017
0000829740;6.0071;-14.8943;3.0670;0.0160;0.4467;-0.0957
0000829748;6.1914;-14.9709;3.3064;0.0634;0.4642;-0.1013
0000829756;6.1148;-15.1768;3.4812;0.1087;0.4719;-0.1106
0000829764;6.0142;-15.4546;3.7517;0.1580;0.4595;-0.1355
0000829772;5.9520;-15.5982;4.0175;0.1875;0.4518;-0.1608
0000829780;5.8347;-15.8664;4.1037;0.1964;0.4295;-0.1843
0000829788;5.7054;-15.9286;4.3455;0.1684;0.4186;-0.2021
0000829796;5.7317;-15.8233;4.2449;0.1260;0.4104;-0.2212
0000829804;5.7150;-15.5815;4.2401;0.0826;0.4109;-0.2352
0000829812;5.6240;-15.6006;4.1444;0.0524;0.4258;-0.2349
0000829898;5.8371;-15.4019;3.9049;0.0413;0.6018;-0.3636
0000829906;6.0286;-15.3684;3.9648;0.0376;0.6079;-0.3729
0000829914;5.8562;-15.5336;4.0127;0.0244;0.6265;-0.3708
0000829922;5.8754;-15.3899;3.8714;0.0191;0.6416;-0.3789
0000829930;5.8371;-15.4881;3.8547;0.0097;0.6599;-0.3869
0000829938;5.7437;-15.3349;3.9002;-0.0048;0.6828;-0.3889
0000829946;5.6144;-15.3780;3.8355;-0.0063;0.6988;-0.3992
0000829954;5.5522;-15.2223;3.6224;-0.0072;0.7196;-0.4141
0000829962;5.3870;-15.2750;3.7134;-0.0053;0.7461;-0.4166
0000829970;5.4300;-15.3037;3.6919;-0.0037;0.7666;-0.4299
0000829978;5.4995;-15.3540;3.6823;0.0060;0.7821;-0.4485
0000829986;5.8323;-15.2559;3.8451;0.0139;0.7938;-0.4551
0000829994;5.8754;-15.4402;3.8714;0.0140;0.8038;-0.4535
0000830002;6.0789;-15.3995;3.9528;0.0168;0.8038;-0.4587
0000830010;6.2465;-15.5719;3.9840;0.0184;0.7983;-0.4568
0000830018;6.5769;-15.3923;3.9337;0.0197;0.7818;-0.4567
0000830026;6.5170;-15.6437;4.0366;0.0149;0.7625;-0.4483
0000830034;6.6511;-15.5527;3.8906;0.0071;0.7412;-0.4434
0000830042;6.6463;-15.4737;3.9576;0.0016;0.7155;-0.4274
0000830050;6.6272;-15.4905;3.9217;-0.0083;0.6840;-0.4203
0000830058;6.5960;-15.4594;3.8690;-0.0101;0.6499;-0.4124
0000830066;6.5074;-15.4211;3.8954;-0.0155;0.6199;-0.3994
0000830074;6.4236;-15.5120;3.9073;-0.0201;0.5842;-0.3805
0000830082;6.6966;-15.3277;3.9241;-0.0176;0.5484;-0.3702
0000830090;6.8283;-15.2080;3.9887;-0.0240;0.5200;-0.3544
0000830098;6.8043;-15.4115;3.9816;-0.0244;0.4878;-0.3404
0000830106;6.7780;-15.3564;3.9337;-0.0298;0.4546;-0.3260
0000830114;6.7301;-15.4043;3.9504;-0.0386;0.4250;-0.3192
0000830122;6.7612;-15.3397;3.9361;-0.0376;0.3944;-0.3128
0000830130;6.7516;-15.4785;4.0677;-0.0449;0.3597;-0.3027
0000830138;6.8594;-15.2415;3.9816;-0.0505;0.3309;-0.2850
0000830146;6.7636;-15.3157;3.9552;-0.0609;0.3071;-0.2726
0000830154;6.6990;-15.3684;3.9337;-0.0679;0.2794;-0.2690
0000830162;6.6056;-15.4929;3.8642;-0.0698;0.2558;-0.2677
0000830170;6.4979;-15.3899;3.9097;-0.0809;0.2431;-0.2487
0000830178;6.5266;-15.4115;3.7421;-0.0913;0.2284;-0.2418
0000830186;6.5003;-15.2606;3.7517;-0.0870;0.2118;-0.2374
0000830194;6.5553;-15.2415;3.6488;-0.0893;0.2072;-0.2226
0000830202;6.5098;-15.2726;3.6631;-0.0837;0.1976;-0.2122
0000830210;6.4787;-15.3420;3.7445;-0.0778;0.1903;-0.2068
0000830218;6.4643;-15.1697;3.7373;-0.0713;0.1895;-0.2012
0000830226;6.4572;-15.2702;3.7900;-0.0568;0.1781;-0.2016
0000830234;6.7828;-15.2750;3.6919;-0.0460;0.1709;-0.1948
0000830242;6.6032;-15.3756;3.6536;-0.0317;0.1705;-0.1994
0000830250;6.5386;-15.3660;3.8068;-0.0213;0.1599;-0.1932
0000830258;6.5242;-15.4115;3.7445;-0.0135;0.1564;-0.1943
0000830266;6.7349;-15.2439;3.7373;0.0012;0.1423;-0.2009
0000830274;6.6942;-15.4163;3.8954;0.0205;0.1260;-0.2077
0000830282;7.0054;-15.3444;3.8906;0.0297;0.1083;-0.2030
0000830290;7.0797;-15.3444;3.9576;0.0381;0.0898;-0.2009
0000830298;7.1228;-15.2989;3.9504;0.0578;0.0565;-0.2116
0000830306;7.2975;-15.1864;3.9049;0.0683;0.0293;-0.2028
0000830314;7.3095;-15.1673;4.0510;0.0679;-0.0012;-0.1923
0000830322;7.3981;-15.1074;4.0845;0.0775;-0.0428;-0.1937
0000830330;7.4244;-15.2463;4.2162;0.0933;-0.0957;-0.1865
0000830338;7.6998;-15.1744;4.1779;0.0939;-0.1348;-0.1753
0000830346;7.6782;-15.3085;4.2760;0.0973;-0.1835;-0.1703
0000830354;7.8027;-15.1984;4.2258;0.0891;-0.2118;-0.1565
0000830362;7.6902;-15.1888;4.1659;0.0845;-0.2471;-0.1515
0000830370;7.6016;-15.2247;4.2282;0.0779;-0.2685;-0.1375
0000830378;7.6782;-15.0619;4.0701;0.0730;-0.2948;-0.1292
0000830386;7.6974;-15.0835;4.0223;0.0670;-0.3052;-0.1135
0000830394;7.4819;-15.1697;4.2090;0.0620;-0.3176;-0.0999
0000830402;7.3478;-15.0907;4.0654;0.0586;-0.3179;-0.0863
0000830410;7.1730;-15.1409;4.0941;0.0462;-0.3095;-0.0709
0000830418;6.9528;-15.1266;4.0869;0.0420;-0.2962;-0.0589
0000830426;6.5434;-15.2128;4.1013;0.0320;-0.2734;-0.0460
0000830434;6.6463;-15.1050;4.0270;0.0220;-0.2578;-0.0349
0000830442;6.5817;-15.1768;4.0414;0.0224;-0.2426;-0.0310
0000830450;6.6511;-15.2080;4.0270;0.0133;-0.2284;-0.0208
0000830458;6.6367;-15.3157;4.0079;0.0033;-0.2054;-0.0132
0000830545;6.0454;-17.5447;3.3639;-0.1063;-0.1863;-0.3072
0000830553;6.6535;-16.2566;3.2417;-0.1695;-0.1787;-0.3239
0000830561;7.0509;-15.3061;2.8539;-0.2418;-0.1613;-0.2903
0000830569;7.5154;-14.4155;2.7150;-0.2931;-0.1364;-0.2422
0000830577;7.7117;-13.6781;2.5618;-0.2866;-0.1214;-0.1811
0000830585;7.8817;-13.0532;2.7701;-0.2284;-0.1246;-0.1031
0000830593;7.8626;-12.9167;2.9712;-0.1539;-0.1288;-0.0176
0000830601;8.0589;-12.8114;3.2202;-0.0625;-0.1487;0.0698
0000830609;8.2073;-13.1944;3.5626;0.0234;-0.1972;0.1464
0000830617;8.3246;-13.4985;3.9265;0.0810;-0.2455;0.2257
0000830625;8.3151;-14.1114;4.2737;0.1147;-0.3227;0.2940
0000830633;8.4396;-14.5879;4.4532;0.1402;-0.4139;0.3393
0000830641;8.4084;-14.9278;4.6807;0.1470;-0.5044;0.3714
0000830649;8.2791;-15.3564;4.8171;0.1496;-0.5915;0.3892
0000830657;8.0062;-15.5719;4.8315;0.1451;-0.6837;0.3809
0000830665;7.8243;-15.8089;4.8770;0.1368;-0.7690;0.3644
0000830673;7.4723;-16.0220;4.8195;0.1267;-0.8466;0.3392
0000830681;7.0773;-16.1417;4.6711;0.1159;-0.9042;0.3106
0000830689;6.7205;-16.3021;4.5873;0.1010;-0.9370;0.2790
0000830697;6.4189;-16.4218;4.4604;0.0941;-0.9446;0.2485
0000830705;6.2968;-16.2830;4.3766;0.0882;-0.9437;0.2128
0000830713;6.2345;-16.1106;4.3718;0.0791;-0.9318;0.1829
0000830721;6.0908;-15.9478;4.1324;0.0730;-0.9150;0.1559
0000830729;6.2728;-15.6557;4.1348;0.0817;-0.9126;0.1264
0000830737;6.2321;-15.5168;4.0654;0.0745;-0.9004;0.1190
0000830745;6.5481;-15.1721;4.0175;0.0608;-0.8970;0.1214
0000830753;6.8378;-14.7483;3.7804;0.0608;-0.9098;0.1210
0000830761;7.2185;-14.4514;3.7038;0.0597;-0.9045;0.1375
0000830769;7.5776;-14.5065;3.6200;0.0674;-0.9093;0.1450
0000830777;7.6974;-14.2575;3.5243;0.0865;-0.9222;0.1515
0000830785;7.8195;-14.2814;3.5362;0.1120;-0.9362;0.1592
0000830793;7.7716;-14.5208;3.5650;0.1240;-0.9551;0.1724
0000830801;7.5513;-14.7004;3.5195;0.1366;-0.9729;0.1847
0000830809;7.6040;-14.6956;3.7086;0.1480;-0.9918;0.2089
0000830817;7.3502;-14.9662;3.8164;0.1525;-0.9956;0.2294
0000830825;7.1012;-15.1529;4.0486;0.1504;-1.0003;0.2459
0000830833;6.9983;-15.3037;4.0869;0.1523;-1.0024;0.2641
0000830841;6.6559;-15.6222;4.2569;0.1407;-0.9840;0.2802
0000830849;6.5194;-15.6533;4.4293;0.1135;-0.9614;0.2930
0000830857;6.3997;-15.6629;4.4245;0.0786;-0.9250;0.3030
0000830865;6.1794;-15.6006;4.3718;0.0573;-0.8968;0.3056
0000830873;6.0430;-15.4234;4.2545;0.0254;-0.8491;0.3015
0000830881;6.0358;-15.5096;4.1707;0.0193;-0.8088;0.2895
0000830889;5.9855;-15.2367;4.0366;0.0095;-0.7518;0.2823
0000830897;5.9855;-15.0236;3.9073;0.0037;-0.7059;0.2665
0000830905;6.1244;-14.9207;3.8858;0.0225;-0.6687;0.2473
0000830913;5.9831;-15.0811;3.7278;0.0201;-0.6174;0.2354
0000830921;6.0406;-15.0547;3.6512;0.0306;-0.5890;0.2154
0000830929;6.1052;-14.9494;3.7254;0.0318;-0.5473;0.2124
0000830937;6.2249;-14.9135;3.5506;0.0417;-0.5093;0.2060
0000830945;6.4189;-14.9039;3.6176;0.0582;-0.4794;0.1964
0000830953;6.5697;-14.8800;3.5769;0.0609;-0.4385;0.1953
0000830961;6.6439;-15.0835;3.6081;0.0699;-0.4086;0.2032
0000830969;6.8331;-15.1266;3.5195;0.0666;-0.3722;0.2125
0000830977;6.6846;-15.2750;3.6607;0.0550;-0.3417;0.2268
0000830985;7.1491;-15.3373;3.6943;0.0534;-0.3280;0.2286
0000830993;6.8402;-15.6222;3.8355;0.0486;-0.3094;0.2341
0000831001;6.7277;-15.8257;3.8116;0.0340;-0.2947;0.2467
0000831009;6.7947;-15.7538;3.8547;0.0196;-0.2852;0.2442
0000831017;6.7516;-15.9167;3.9792;0.0052;-0.2855;0.2422
0000831025;6.5841;-15.8472;3.8906;-0.0205;-0.2701;0.2406
0000831033;6.6918;-15.7179;3.8403;-0.0348;-0.2683;0.2330
0000831041;6.3087;-15.9262;3.8475;-0.0417;-0.2666;0.2197
0000831049;6.3446;-15.6485;3.7637;-0.0522;-0.2599;0.2028
0000831057;6.5625;-15.3804;3.6368;-0.0510;-0.2462;0.1952
0000831065;6.5649;-15.2582;3.7014;-0.0513;-0.2306;0.1841
0000831073;6.5338;-15.1673;3.6536;-0.0398;-0.2205;0.1671
0000831081;6.5769;-14.9494;3.5267;-0.0184;-0.2158;0.1520
0000831089;6.6535;-14.8536;3.5985;-0.0064;-0.1927;0.1496
0000831097;6.8474;-14.9278;3.5937;0.0123;-0.1852;0.1432
0000831105;6.7924;-14.9709;3.5650;0.0328;-0.1803;0.1414
0000831113;7.0964;-14.7626;3.5458;0.0520;-0.1845;0.1374
0000831199;6.9504;-15.5958;4.3766;0.0330;-0.3392;0.1486
0000831207;6.8618;-15.4785;4.3263;0.0193;-0.3493;0.1444
0000831215;6.6870;-15.5575;4.1827;0.0011;-0.3511;0.1387
0000831223;6.5769;-15.5072;4.2042;-0.0056;-0.3477;0.1307
0000831231;6.6511;-15.3444;4.0989;-0.0181;-0.3305;0.1260
0000831239;6.4380;-15.3780;4.0606;-0.0290;-0.3076;0.1226
0000831247;6.4931;-15.3085;3.9887;-0.0252;-0.2903;0.1126
0000831255;6.3997;-15.3540;3.9265;-0.0248;-0.2741;0.1047
0000831263;6.5074;-15.1026;3.8954;-0.0269;-0.2433;0.1090
0000831271;6.4739;-15.2223;3.7876;-0.0290;-0.2165;0.0991
0000831279;6.5745;-15.0715;3.8403;-0.0173;-0.1957;0.0886
0000831287;6.6774;-15.1098;3.7469;-0.0230;-0.1668;0.0901
0000831295;6.6032;-15.1697;3.7134;-0.0216;-0.1522;0.0775
0000831303;6.5697;-15.4067;3.7541;-0.0260;-0.1262;0.0758
0000831311;6.6655;-15.3325;3.7373;-0.0260;-0.1148;0.0715
0000831319;6.6343;-15.3780;3.7397;-0.0278;-0.0973;0.0722
0000831327;6.7157;-15.3995;3.8211;-0.0169;-0.0917;0.0674
0000831335;6.8307;-15.2606;3.7206;-0.0116;-0.0774;0.0699
0000831343;6.8690;-15.2942;3.6081;-0.0121;-0.0730;0.0703
0000831351;6.7900;-15.4091;3.7182;0.0053;-0.0758;0.0653
0000831359;6.8211;-15.4641;3.7326;0.0193;-0.0803;0.0573
0000831367;6.9336;-15.3780;3.5985;0.0184;-0.0703;0.0645
0000831375;7.2018;-15.2439;3.7038;0.0216;-0.0703;0.0506
0000831383;6.8259;-15.4498;3.6679;0.0236;-0.0807;0.0369
0000831391;6.9767;-15.3181;3.6464;0.0189;-0.0705;0.0406
0000831399;6.8881;-15.3947;3.5889;0.0215;-0.0794;0.0296
0000831407;7.0413;-15.2894;3.7541;0.0281;-0.0841;0.0266
0000831415;6.9073;-15.1218;3.6607;0.0254;-0.0861;0.0270
0000831423;6.8714;-15.1649;3.6655;0.0329;-0.0873;0.0152
0000831431;7.0533;-15.0380;3.6512;0.0489;-0.0969;0.0172
0000831439;6.8594;-15.1242;3.6129;0.0584;-0.0861;0.0204
0000831447;7.0988;-14.9709;3.7469;0.0722;-0.0955;0.0168
0000831455;6.8235;-15.2152;3.6919;0.0906;-0.0899;0.0149
0000831463;6.9121;-15.2247;3.7350;0.0943;-0.0857;0.0183
0000831471;6.9168;-15.2846;3.8547;0.1075;-0.0861;0.0125
0000831479;6.9623;-15.3732;3.8092;0.1073;-0.0765;0.0179
0000831487;6.8905;-15.3732;3.8738;0.1055;-0.0771;0.0183
0000831495;6.8666;-15.4641;3.9863;0.0973;-0.0718;0.0121
0000831503;6.9288;-15.3373;4.0677;0.0818;-0.0632;0.0179
0000831511;6.8570;-15.6054;4.0677;0.0646;-0.0616;0.0160
0000831519;6.6990;-15.5767;4.0103;0.0549;-0.0665;0.0071
0000831527;6.7469;-15.6581;4.1468;0.0300;-0.0640;0.0111
0000831535;6.8139;-15.6389;4.1324;0.0113;-0.0584;0.0073
0000831543;6.8211;-15.6772;4.1444;-0.0055;-0.0569;0.0003
0000831551;6.8905;-15.6126;4.1396;-0.0200;-0.0617;-0.0025
0000831559;6.8474;-15.4474;4.0606;-0.0416;-0.0506;0.0009
0000831567;6.9839;-15.3588;4.0606;-0.0566;-0.0472;-0.0056
0000831575;6.7062;-15.5025;4.0438;-0.0737;-0.0410;-0.0099
0000831583;6.7277;-15.4498;4.0654;-0.0822;-0.0373;-0.0151
0000831591;6.6583;-15.3444;4.0342;-0.0939;-0.0261;-0.0191
0000831599;6.7588;-15.2822;3.9744;-0.0911;-0.0241;-0.0289
0000831607;6.7493;-15.3444;3.9720;-0.0943;-0.0107;-0.0274
0000831615;6.6966;-15.3301;3.9361;-0.1010;0.0085;-0.0333
0000831623;6.5936;-15.2343;3.8690;-0.0959;0.0179;-0.0420
0000831631;6.5553;-15.2846;3.8810;-0.0914;0.0254;-0.0468
0000831639;6.6583;-15.2080;3.8571;-0.0929;0.0417;-0.0473
0000831647;6.7397;-15.2966;3.8307;-0.0910;0.0593;-0.0556
0000831655;6.7301;-15.1912;3.8978;-0.0787;0.0588;-0.0625
0000831663;6.6152;-15.3420;3.8068;-0.0802;0.0674;-0.0582
0000831671;6.7947;-15.2606;3.9073;-0.0762;0.0821;-0.0667
0000831679;6.7301;-15.2606;3.8690;-0.0847;0.0969;-0.0674
0000831687;6.6535;-15.2582;3.8642;-0.0870;0.1111;-0.0646
0000831695;6.6918;-15.3373;3.9121;-0.0849;0.1180;-0.0701
0000831703;6.7900;-15.2199;3.9002;-0.0889;0.1299;-0.0729
0000831711;6.6894;-15.3732;3.8451;-0.0890;0.1322;-0.0758
0000831719;6.8857;-15.3971;3.8188;-0.0919;0.1412;-0.0779
0000831727;6.7421;-15.3564;3.8116;-0.0898;0.1455;-0.0813
0000831735;6.9001;-15.3540;3.9480;-0.0815;0.1410;-0.0921
0000831743;7.0390;-15.1721;3.8618;-0.0798;0.1475;-0.0930
0000831751;6.8019;-15.2846;3.8283;-0.0713;0.1467;-0.1006
0000831759;7.0725;-15.1122;3.8188;-0.0582;0.1386;-0.1053
0000831845;7.0797;-15.2295;3.9002;-0.0526;0.1599;-0.1467
0000831853;6.7349;-15.4833;3.9002;-0.0486;0.1613;-0.1448
0000831861;6.8977;-15.2343;3.8235;-0.0520;0.1649;-0.1408
0000831869;6.9576;-15.2463;3.9217;-0.0480;0.1615;-0.1487
0000831877;6.8690;-15.1936;3.9480;-0.0493;0.1607;-0.1418
0000831885;7.1251;-15.0978;3.8475;-0.0458;0.1607;-0.1420
0000831893;7.0030;-15.3133;3.8547;-0.0388;0.1512;-0.1403
0000831901;7.1156;-15.2032;3.9002;-0.0401;0.1536;-0.1331
0000831909;7.0749;-15.2391;3.8188;-0.0325;0.1471;-0.1392
0000831917;7.0174;-15.2271;3.9456;-0.0313;0.1399;-0.1338
0000831925;7.1419;-15.3181;3.9193;-0.0361;0.1374;-0.1286
0000831933;6.9049;-15.4043;3.9480;-0.0346;0.1355;-0.1318
0000831941;7.1012;-15.4115;3.9049;-0.0382;0.1388;-0.1207
0000831949;7.0030;-15.3037;3.8882;-0.0502;0.1427;-0.1127
0000831957;7.0605;-15.2702;3.9480;-0.0493;0.1382;-0.1069
0000831965;7.1922;-15.1314;3.9313;-0.0476;0.1363;-0.1059
0000831973;6.9863;-15.2630;3.9049;-0.0514;0.1394;-0.0925
0000831981;7.1347;-15.2199;3.8618;-0.0432;0.1320;-0.0889
0000831989;6.9145;-15.3133;3.8834;-0.0373;0.1362;-0.0906
0000831997;6.9384;-15.2223;3.9145;-0.0326;0.1302;-0.0877
0000832005;7.1180;-15.1553;3.9049;-0.0357;0.1344;-0.0839
0000832013;6.9312;-15.2822;3.9528;-0.0342;0.1327;-0.0801
0000832021;6.8690;-15.4618;3.8954;-0.0321;0.1295;-0.0834
0000832029;7.0342;-15.3133;3.9887;-0.0394;0.1259;-0.0813
0000832037;7.0892;-15.4187;3.8116;-0.0493;0.1215;-0.0806
0000832045;6.8474;-15.6054;3.8475;-0.0544;0.1251;-0.0793
0000832053;6.9552;-15.4019;3.8211;-0.0598;0.1192;-0.0841
0000832061;7.0605;-15.2630;3.7757;-0.0589;0.1178;-0.0822
0000832069;6.9647;-15.2415;3.8092;-0.0628;0.1156;-0.0727
0000832077;7.0581;-15.3157;3.8307;-0.0545;0.1098;-0.0735
0000832085;7.0078;-15.3037;3.7182;-0.0544;0.1106;-0.0659
0000832093;7.1036;-15.2989;3.7254;-0.0532;0.1096;-0.0606
0000832101;7.1778;-15.1409;3.7852;-0.0494;0.1069;-0.0581
0000832109;7.0844;-15.3301;3.8259;-0.0474;0.1057;-0.0546
0000832117;6.9695;-15.3636;3.7589;-0.0400;0.0949;-0.0570
0000832125;7.1419;-15.3205;3.8211;-0.0441;0.0913;-0.0424
0000832133;7.1515;-15.4785;3.9145;-0.0550;0.0947;-0.0370
0000832141;6.9623;-15.5288;3.9121;-0.0617;0.0821;-0.0337
0000832149;7.1611;-15.5503;3.8571;-0.0754;0.0801;-0.0300
0000832157;7.0509;-15.5815;3.8595;-0.0965;0.0731;-0.0280
0000832165;7.0150;-15.6485;3.8523;-0.1211;0.0773;-0.0216
0000832173;7.1251;-15.7179;3.8355;-0.1476;0.0730;-0.0192
0000832181;7.0342;-15.7251;3.7206;-0.1739;0.0673;-0.0236
0000832189;7.0102;-15.7634;3.6009;-0.1968;0.0605;-0.0180
0000832197;6.9192;-15.6677;3.5650;-0.2188;0.0590;-0.0123
0000832205;7.0342;-15.6054;3.5554;-0.2308;0.0477;-0.0121
0000832213;7.0222;-15.5192;3.4285;-0.2413;0.0429;-0.0113
0000832221;6.9743;-15.5886;3.3519;-0.2390;0.0256;-0.0169
0000832229;6.9695;-15.5096;3.2705;-0.2345;0.0159;-0.0184
0000832237;7.0054;-15.5695;3.2130;-0.2309;0.0129;-0.0085
0000832245;7.0437;-15.6126;3.2729;-0.2225;0.0056;-0.0060
0000832253;6.9240;-15.7203;3.2226;-0.2201;0.0012;-0.0067
0000832261;7.1347;-15.5144;3.1699;-0.2162;-0.0044;-0.0069
0000832269;7.0629;-15.5743;3.2178;-0.2244;-0.0076;-0.0021
0000832277;6.9695;-15.6485;3.1699;-0.2313;-0.0135;-0.0019
0000832285;6.7205;-15.7323;3.2154;-0.2352;-0.0155;-0.0043
0000832293;6.7540;-15.9119;3.2274;-0.2457;-0.0104;0.0011
0000832301;6.7301;-15.8448;3.1675;-0.2519;-0.0112;-0.0032
0000832309;6.7971;-15.8472;3.2298;-0.2713;-0.0005;0.0000
0000832317;6.7516;-15.9981;3.2322;-0.2739;-0.0103;-0.0117
0000832325;6.8666;-15.9765;3.1149;-0.2787;-0.0121;-0.0222
0000832333;7.0198;-15.8352;3.0694;-0.3102;-0.0173;-0.0183
0000832341;6.9145;-16.0531;3.0263;-0.3427;-0.0195;-0.0169
0000832349;6.9743;-16.0651;2.9257;-0.3760;-0.0345;-0.0144
0000832357;6.9504;-16.1178;2.8874;-0.4109;-0.0345;-0.0053
0000832365;7.0078;-16.1633;2.8132;-0.4409;-0.0332;0.0164
0000832373;6.8187;-16.1656;2.8299;-0.4545;-0.0510;0.0280
0000832381;6.8570;-16.0052;2.6240;-0.4943;-0.0628;0.0364
0000832389;6.9743;-16.0890;2.5666;-0.5360;-0.0739;0.0473
0000832397;7.0246;-16.1561;2.3990;-0.5756;-0.0970;0.0478
0000832488;6.3087;-14.8297;1.6472;-1.0471;-0.2701;-0.2709
0000832496;6.3614;-14.7579;1.5921;-1.0684;-0.2466;-0.3154
0000832504;6.2106;-14.8081;1.6209;-1.0620;-0.2233;-0.3632
0000832512;6.3039;-14.8177;1.5682;-1.0647;-0.1775;-0.3797
0000832520;6.1268;-14.8105;1.4030;-1.0804;-0.1322;-0.4086
0000832528;5.9520;-14.7004;1.2210;-1.0942;-0.0931;-0.4282
0000832536;5.7485;-14.8848;1.3503;-1.1077;-0.0514;-0.4590
0000832544;6.0358;-14.6932;1.3934;-1.1130;-0.0165;-0.4794
0000832552;6.1028;-14.7411;1.3431;-1.0756;0.0200;-0.4832
0000832560;6.2177;-14.7986;1.3886;-1.0682;0.0540;-0.4928
0000832568;6.7828;-14.8225;1.4222;-1.0624;0.0802;-0.4959
0000832576;6.9480;-14.9374;1.3623;-1.0539;0.1103;-0.4842
0000832584;7.3310;-15.1577;1.3431;-1.0477;0.1278;-0.4759
0000832592;7.7692;-15.0332;1.2426;-1.0325;0.1479;-0.4535
0000832600;8.1044;-15.0619;1.2426;-1.0404;0.1556;-0.4191
0000832608;8.3941;-15.2175;1.2258;-1.0596;0.1600;-0.3712
0000832616;8.5712;-15.2582;1.1085;-1.0996;0.1484;-0.3056
0000832624;8.7652;-15.1409;1.1660;-1.1339;0.1527;-0.2136
0000832632;8.7508;-15.0547;1.1396;-1.1900;0.1250;-0.1520
0000832640;8.6598;-14.8824;1.0726;-1.2417;0.0975;-0.0877
0000832648;8.1475;-14.6669;0.9457;-1.2753;0.0675;-0.0410
0000832656;7.9703;-14.3485;0.8930;-1.2911;0.0342;-0.0140
0000832664;7.6782;-14.0420;0.7518;-1.2820;0.0108;0.0033
0000832672;7.4579;-13.6589;0.6321;-1.2666;-0.0168;0.0180
0000832680;6.9264;-13.7595;0.4908;-1.2393;-0.0412;0.0317
0000832688;7.0342;-13.3405;0.2610;-1.2109;-0.0296;0.0564
0000832696;7.0797;-13.1585;0.0958;-1.1710;-0.0141;0.0667
0000832704;6.9695;-13.3405;0.0263;-1.1008;-0.0001;0.0577
0000832712;6.9647;-13.3166;-0.2274;-1.0519;0.0141;0.0433
0000832720;6.8402;-13.4865;-0.2586;-0.9771;0.0218;0.0139
0000832728;6.9647;-13.4722;-0.3376;-0.9133;0.0372;0.0036
0000832736;6.7229;-13.5895;-0.3496;-0.8765;0.0452;-0.0132
0000832744;6.8331;-13.4817;-0.1413;-0.8601;0.0409;-0.0329
0000832752;7.1730;-13.3644;-0.0790;-0.8339;0.0466;-0.0324
0000832760;7.3813;-13.5536;-0.0335;-0.8035;0.0397;-0.0420
0000832768;7.6662;-13.6062;0.0575;-0.7586;0.0440;-0.0393
0000832776;7.9535;-13.7906;-0.0192;-0.7133;0.0597;-0.0208
0000832784;8.0445;-13.7523;0.1245;-0.6718;0.0588;-0.0096
0000832792;8.0876;-13.8481;-0.0670;-0.6367;0.0616;0.0069
0000832800;7.7141;-14.1833;-0.0215;-0.6109;0.0721;0.0333
0000832808;7.6279;-14.3437;-0.0048;-0.5726;0.0778;0.0426
0000832816;7.2975;-14.6789;0.0287;-0.5514;0.0706;0.0450
0000832824;6.9599;-14.7579;0.0934;-0.5525;0.0556;0.0549
0000832832;6.9240;-14.7219;0.0383;-0.5738;0.0384;0.0518
0000832840;6.9983;-14.5208;-0.2538;-0.6098;0.0192;0.0516
0000832848;7.1539;-14.5974;-0.1532;-0.6070;0.0099;0.0707
0000832856;7.5561;-14.0588;-0.1460;-0.6201;-0.0209;0.0878
0000832864;7.9392;-14.0659;-0.4381;-0.6101;-0.0534;0.1123
0000832872;8.0661;-13.6733;-0.6967;-0.5824;-0.0709;0.1459
0000832880;8.1427;-13.5320;-0.8523;-0.5245;-0.1122;0.1560
0000832888;8.1858;-13.3908;-1.0463;-0.4523;-0.1451;0.1664
0000832896;7.9416;-13.3620;-0.8021;-0.3853;-0.1831;0.1776
0000832904;7.9655;-13.2998;-0.4764;-0.3391;-0.2298;0.1832
0000832912;8.0062;-13.2351;-0.1891;-0.2366;-0.2898;0.1984
0000832920;7.8554;-13.1298;-0.1628;-0.1998;-0.3357;0.2186
0000832928;7.6854;-13.2711;-0.3280;-0.1629;-0.3636;0.2550
0000832936;7.5058;-13.4602;-0.4429;-0.1160;-0.3924;0.2834
0000832944;7.5250;-13.4554;-0.7709;-0.1118;-0.4046;0.3115
0000832952;7.2353;-13.8217;-0.7901;-0.0974;-0.4118;0.3228
0000832960;7.2209;-13.9103;-0.7302;-0.0930;-0.4187;0.3359
0000832968;6.9839;-14.1833;-0.5602;-0.0925;-0.4218;0.3198
0000832976;6.8857;-14.3724;-0.2418;-0.0369;-0.3964;0.3139
0000832984;6.6966;-14.0683;-0.3065;-0.0345;-0.3858;0.2805
0000832992;6.5098;-13.9486;0.0982;0.0160;-0.3616;0.2273
0000833000;5.8395;-13.8409;0.2035;0.0634;-0.3164;0.1860
0000833008;5.7676;-14.0109;-0.0551;0.1013;-0.2781;0.1472
0000833016;6.0238;-13.8169;-0.3831;0.1230;-0.2358;0.1147
0000833024;5.7604;-13.7379;-0.8045;0.1524;-0.1868;0.0777
0000833032;6.1794;-13.8936;-0.9649;0.1920;-0.1483;0.0260
0000833040;6.2991;-14.4825;-1.3695;0.2344;-0.1069;0.0045
0000833127;7.1874;-15.3612;-0.8068;0.5336;-0.0855;0.1392
0000833136;7.2999;-15.5886;-0.7709;0.5676;-0.1118;0.1104
0000833145;7.6207;-15.6964;-0.5195;0.6186;-0.1367;0.1058
0000833154;7.6207;-16.2471;-0.0551;0.6687;-0.1643;0.1038
0000833163;7.7979;-16.3524;0.3256;0.7228;-0.1989;0.1327
0000833172;7.9200;-16.5775;0.0000;0.7709;-0.2384;0.1899
0000833181;7.8937;-16.8743;-0.1532;0.8310;-0.2858;0.2486
0000833190;7.6471;-16.9964;-0.1580;0.8600;-0.3112;0.3008
0000833199;7.4962;-17.0371;-0.4334;0.8945;-0.3339;0.3078
0000833208;7.3382;-17.4226;-0.4573;0.9054;-0.3335;0.2729
0000833217;7.0749;-17.8057;-0.2849;0.9256;-0.3323;0.2085
0000833226;6.8618;-17.8416;0.2777;0.9304;-0.3258;0.1383
0000833235;7.1228;-17.5615;0.5698;0.9670;-0.3449;0.0735
0000833244;7.1850;-17.8775;0.6057;1.0118;-0.3579;0.0561
0000833253;7.5824;-17.5591;0.6895;1.0260;-0.3736;0.0895
0000833262;8.0254;-17.9206;0.8571;1.0607;-0.3817;0.1424
0000833271;8.1355;-18.1888;0.8428;1.0756;-0.4058;0.1907
0000833280;8.1570;-18.6101;0.6776;1.0499;-0.4237;0.2370
0000833289;7.8889;-18.8376;0.7614;1.0171;-0.4391;0.2630
0000833298;7.4292;-19.4026;0.7566;0.9887;-0.4465;0.2571
0000833307;6.8738;-19.6348;0.8404;0.9441;-0.4576;0.2374
0000833316;6.7588;-19.4960;1.3216;0.9454;-0.4638;0.2008
0000833325;6.4596;-19.2446;1.3192;0.9401;-0.4561;0.1880
0000833334;6.6463;-19.2159;1.4341;0.9585;-0.4575;0.1832
0000833343;6.7421;-18.9333;1.5203;0.9665;-0.4397;0.1856
0000833352;6.7780;-18.7921;1.4030;0.9605;-0.4282;0.1994
0000833361;6.7564;-18.6365;1.5610;0.9461;-0.4210;0.2108
0000833370;6.7564;-18.7801;1.5538;0.9383;-0.4199;0.2145
0000833379;6.6200;-18.7753;1.3743;0.9250;-0.4303;0.2348
0000833388;6.4500;-18.9645;1.2833;0.9614;-0.4365;0.2538
0000833397;6.4907;-19.2230;1.4653;0.9900;-0.4443;0.2683
0000833406;6.5338;-19.3691;1.6568;1.0292;-0.4457;0.2940
0000833415;6.6822;-19.9892;1.6855;1.0373;-0.4537;0.3243
0000833424;6.4236;-20.9014;1.8052;1.0162;-0.4482;0.3611
0000833433;6.0430;-22.0075;1.8890;0.9922;-0.4486;0.3768
0000833442;6.0023;-22.6396;2.0351;0.9141;-0.4329;0.3890
0000833451;5.4684;-23.5087;2.2098;0.8079;-0.4143;0.3786
0000833460;5.4085;-23.9755;2.3200;0.6567;-0.3804;0.3685
0000833469;5.3846;-23.8199;2.5833;0.4970;-0.3507;0.3449
0000833478;5.2984;-23.4967;2.7270;0.3348;-0.3030;0.3307
0000833487;5.5378;-22.8814;2.9329;0.1787;-0.2554;0.3170
0000833496;5.6360;-21.9069;2.8491;0.0456;-0.2181;0.3116
0000833505;5.6886;-20.8822;2.8515;-0.0678;-0.1792;0.3288
0000833514;5.9640;-19.8384;2.8371;-0.1612;-0.1601;0.3460
0000833523;5.9807;-19.0291;2.7174;-0.2443;-0.1516;0.3616
0000833532;5.9951;-18.2295;2.6240;-0.3200;-0.1585;0.3832
0000833541;6.0071;-17.5016;2.4900;-0.3752;-0.1660;0.4024
0000833550;6.2465;-16.8025;2.3391;-0.4101;-0.1745;0.4146
0000833559;6.0286;-16.1824;2.2410;-0.4559;-0.1711;0.4489
0000833568;6.0023;-15.5982;2.1141;-0.4707;-0.1863;0.4495
0000833577;6.1052;-15.0308;2.1261;-0.4687;-0.1832;0.4611
0000833586;5.9951;-14.5615;2.0901;-0.4648;-0.1817;0.4534
0000833595;5.8490;-14.1521;2.2027;-0.4419;-0.1717;0.4435
0000833604;5.9065;-13.8002;1.9992;-0.4072;-0.1585;0.4310
0000833613;5.8203;-13.6062;1.9728;-0.3673;-0.1507;0.4070
0000833622;5.7030;-13.3932;1.9489;-0.3295;-0.1352;0.3890
0000833631;5.7341;-13.2064;1.9345;-0.2759;-0.1427;0.3661
0000833640;5.7437;-12.9526;1.9609;-0.2293;-0.1274;0.3404
0000833649;5.4492;-13.0723;1.8579;-0.1612;-0.1179;0.3158
0000833658;5.3223;-12.9024;1.7095;-0.0814;-0.1127;0.2858
0000833667;5.2601;-12.8329;1.7095;0.0128;-0.0894;0.2779
0000833676;5.2241;-13.1585;1.6544;0.1151;-0.0849;0.2551
0000833685;5.0350;-13.6062;1.6592;0.1845;-0.0644;0.2547
0000833694;5.1404;-14.0300;1.6783;0.2478;-0.0560;0.2539
0000833703;4.9177;-14.7291;1.6640;0.2814;-0.0430;0.2619
0000833712;5.0326;-15.1553;1.8459;0.3058;-0.0570;0.2547
0000833721;5.1140;-15.4498;1.9968;0.3324;-0.0598;0.2466
0000833730;5.0925;-15.7108;2.2386;0.3706;-0.0833;0.2138
0000833739;4.5490;-16.0388;2.2505;0.4033;-0.1049;0.1776
0000833748;4.4388;-15.9310;2.2649;0.4327;-0.1318;0.1208
0000833757;4.3981;-16.1944;2.0758;0.4595;-0.1735;0.0450
0000833766;4.1946;-16.6182;2.0542;0.4643;-0.2096;-0.0277
0000833853;4.4484;-16.3045;2.6528;0.3244;-0.2522;-0.2016
0000833862;4.4580;-16.1130;2.7246;0.2972;-0.2237;-0.2220
0000833871;4.2306;-16.0459;2.6528;0.2625;-0.1717;-0.2342
0000833880;4.3479;-15.8520;2.6504;0.2458;-0.1327;-0.2467
0000833889;4.5945;-15.5384;2.6695;0.2328;-0.0882;-0.2557
0000833898;4.8530;-15.2128;2.5402;0.2302;-0.0508;-0.2475
0000833907;5.0949;-15.1697;2.3296;0.2426;-0.0278;-0.2542
0000833916;5.3822;-15.1385;2.5450;0.2401;-0.0011;-0.2381
0000833925;5.5952;-14.9949;2.5570;0.2423;0.0211;-0.2336
0000833934;5.7916;-15.0260;2.4038;0.2418;0.0430;-0.2388
0000833943;5.7844;-14.9542;2.4445;0.2469;0.0614;-0.2519
0000833952;5.7461;-14.9422;2.5019;0.2437;0.0793;-0.2621
0000833961;5.8395;-14.6908;2.6169;0.2409;0.0827;-0.2814
0000833970;5.5378;-14.7076;2.5977;0.2462;0.0862;-0.3096
0000833979;5.8826;-14.3844;2.4804;0.2467;0.0853;-0.3380
0000833988;5.8155;-14.4490;2.5953;0.2589;0.0910;-0.3631
0000833997;5.8395;-14.2479;2.4588;0.2926;0.0889;-0.4045
0000834006;5.7652;-14.4586;2.3415;0.3167;0.1140;-0.4068
0000834015;6.1172;-14.4466;2.2218;0.3625;0.1175;-0.4391
0000834024;6.3470;-14.3628;2.2505;0.3970;0.1242;-0.4455
0000834033;6.6343;-14.6286;2.3631;0.4303;0.1127;-0.4592
0000834042;6.8211;-14.8512;2.5307;0.4606;0.0873;-0.4584
0000834051;7.0390;-15.0164;2.5905;0.4712;0.0421;-0.4546
0000834060;7.0797;-15.3061;2.7222;0.4890;-0.0083;-0.4690
0000834069;7.4388;-15.6461;2.6312;0.4842;-0.0667;-0.4815
0000834078;7.2951;-16.0842;2.8874;0.4736;-0.1298;-0.4954
0000834087;7.4196;-16.2686;2.8156;0.4289;-0.1595;-0.4979
0000834096;7.2784;-16.4506;2.6504;0.3842;-0.1888;-0.5212
0000834105;7.2975;-16.4506;2.6145;0.3324;-0.1876;-0.5287
0000834114;7.6088;-16.3500;2.4301;0.2963;-0.1919;-0.5336
0000834123;7.6662;-16.2064;2.2505;0.2595;-0.1864;-0.5307
0000834132;7.4915;-16.0842;2.2697;0.2599;-0.1944;-0.5361
0000834141;7.5896;-15.9765;2.2003;0.2430;-0.2077;-0.5224
0000834150;7.5920;-16.0435;2.0518;0.2204;-0.2349;-0.5293
0000834159;7.9535;-15.7993;1.9513;0.1836;-0.2715;-0.5420
0000834168;8.1331;-15.8376;1.8076;0.1464;-0.2975;-0.5640
0000834177;8.1283;-15.8137;1.7358;0.1042;-0.3443;-0.6010
0000834186;8.5904;-15.3827;1.5802;0.0376;-0.3869;-0.6234
0000834195;8.5281;-15.1314;1.3862;-0.0262;-0.4473;-0.6660
0000834204;8.5641;-14.7172;1.2737;-0.0481;-0.4906;-0.6944
0000834213;8.4228;-14.0947;1.2665;-0.0773;-0.5375;-0.7388
0000834222;8.2791;-13.3884;1.1372;-0.0469;-0.5701;-0.8063
0000834231;7.8721;-13.0125;0.9433;0.0192;-0.5652;-0.8692
0000834240;7.5896;-12.3828;1.0127;0.1464;-0.5249;-0.9410
0000834249;7.3885;-12.0452;0.7230;0.3509;-0.3516;-0.9786
0000834258;6.6128;-15.4833;4.4604;1.0805;0.0338;-0.9189
0000834267;7.1371;-18.5503;8.5329;1.7384;0.1637;-0.6146
0000834276;7.0174;-20.8655;9.6438;1.6792;0.1869;-0.1418
0000834285;6.1100;-20.6811;9.8090;1.2518;0.2164;0.2229
0000834294;4.7405;-18.8472;8.6215;0.8152;0.2370;0.3475
0000834303;4.3000;-16.6373;7.6447;0.6095;0.2579;0.3564
0000834312;4.3910;-15.0835;6.7947;0.5834;0.2751;0.3295
0000834321;5.2864;-14.2575;5.8203;0.5989;0.2495;0.2651
0000834330;5.8347;-14.1617;5.1906;0.6045;0.1811;0.1932
0000834339;6.6894;-13.8289;4.6855;0.6668;0.1187;0.1456
0000834348;7.1539;-13.4482;4.5322;0.7826;0.0807;0.1131
0000834357;7.2544;-13.0891;4.3742;0.9337;0.0858;0.0915
0000834366;6.9073;-13.1035;4.5681;1.0821;0.1077;0.0693
0000834375;6.6894;-13.4434;4.5681;1.1896;0.1411;0.0385
0000834384;6.4859;-14.1186;4.7405;1.2100;0.1903;0.0108
0000834393;6.7349;-14.6765;5.0374;1.1334;0.2577;-0.0044
0000834402;7.0701;-15.0164;5.2433;0.9911;0.3154;-0.0101
0000834411;6.9839;-15.1744;5.2864;0.8403;0.3657;0.0127
0000834420;7.2042;-14.9135;5.3295;0.7520;0.3846;0.0157
0000834429;6.9887;-14.3892;5.2984;0.7117;0.3818;0.0316
0000834438;7.0150;-13.7762;5.3295;0.7560;0.3503;0.0344
0000834447;7.0366;-13.5081;5.4755;0.8302;0.2948;0.0248
0000834456;7.0773;-13.2998;5.6862;0.9126;0.2341;0.0168
0000834465;6.9887;-13.3860;5.9664;0.9928;0.1688;-0.0051
0000834474;7.1635;-13.4363;6.1675;1.0471;0.1187;-0.0199
0000834483;7.2592;-13.8050;6.3303;1.0770;0.0686;-0.0326
0000834571;6.6870;-14.5639;6.5434;0.6880;0.0147;-0.0727
0000834580;6.3279;-14.6621;6.3973;0.6430;0.0290;-0.1043
0000834589;6.1268;-14.4753;6.3662;0.6227;0.0353;-0.1540
0000834598;6.1196;-14.4466;6.3446;0.5958;0.0663;-0.1903
0000834607;6.3446;-14.3461;6.5769;0.5729;0.0858;-0.2374
0000834616;6.5817;-14.1258;6.4859;0.5480;0.1059;-0.2522
0000834625;6.6894;-14.0468;6.5170;0.5339;0.1122;-0.2805
0000834634;7.0988;-13.8457;6.4955;0.5087;0.1206;-0.2868
0000834643;7.1443;-14.0516;6.5769;0.4996;0.1090;-0.2899
0000834652;7.0749;-13.9486;6.6391;0.4964;0.0950;-0.2746
0000834661;7.5609;-13.5871;6.7325;0.4864;0.0730;-0.2709
0000834670;7.1874;-13.9582;6.6511;0.4912;0.0584;-0.2575
0000834679;7.1706;-13.9007;6.5984;0.4878;0.0536;-0.2519
0000834688;6.8354;-13.9223;6.7588;0.4806;0.0470;-0.2645
0000834697;6.6894;-14.1018;6.9025;0.4683;0.0540;-0.2719
0000834706;6.4907;-13.9989;6.9791;0.4371;0.0568;-0.2814
0000834715;6.5003;-14.0157;7.0820;0.3928;0.0711;-0.2803
0000834724;6.5027;-13.7930;7.2257;0.3427;0.0926;-0.2832
0000834733;6.5912;-13.6996;7.1563;0.2859;0.1156;-0.2661
0000834742;6.8354;-13.4530;7.2401;0.2538;0.1315;-0.2611
0000834751;6.9671;-13.3046;7.3023;0.2378;0.1435;-0.2573
0000834760;7.2329;-13.0747;7.2425;0.2438;0.1492;-0.2603
0000834769;7.3526;-13.0891;7.3047;0.2637;0.1619;-0.2615
0000834778;7.6112;-12.8066;7.3334;0.2781;0.1604;-0.2769
0000834787;7.6926;-12.9550;7.3502;0.3070;0.1607;-0.2968
0000834796;7.7883;-12.8401;7.5705;0.3202;0.1435;-0.3219
0000834805;7.8554;-13.0197;7.5944;0.3063;0.1412;-0.3412
0000834814;7.9799;-12.9071;7.6016;0.2718;0.1298;-0.3455
0000834823;7.8793;-13.0149;7.8578;0.2016;0.1178;-0.3134
0000834832;8.1547;-12.9598;7.8578;0.1535;0.0955;-0.2930
0000834841;8.0110;-13.1011;7.7955;0.1051;0.0838;-0.2590
0000834850;8.3534;-13.2830;7.6567;0.0926;0.0600;-0.2437
0000834859;8.5162;-13.1130;7.4939;0.0670;0.0560;-0.2022
0000834868;8.5808;-13.1322;7.3047;0.0608;0.0293;-0.1717
0000834877;8.6431;-13.1011;7.1563;0.0360;0.0125;-0.1294
0000834886;8.7149;-13.0963;6.7732;0.0203;-0.0067;-0.0934
0000834895;8.6526;-12.9502;6.8833;0.0031;-0.0083;-0.0610
0000834904;8.4803;-13.2519;7.0030;0.0019;-0.0281;-0.0489
0000834913;8.2911;-13.2064;7.0461;-0.0025;-0.0354;-0.0449
0000834922;8.1499;-13.0005;7.1228;0.0028;-0.0557;-0.0485
0000834931;7.8290;-13.2495;7.0605;-0.0015;-0.0578;-0.0364
0000834940;7.6854;-13.4075;7.0174;-0.0057;-0.0771;-0.0261
0000834949;7.8697;-13.3525;6.9192;-0.0225;-0.0913;-0.0056
0000834958;7.8147;-13.5919;7.0533;-0.0442;-0.1063;0.0221
0000834967;7.8362;-13.7762;7.0892;-0.0785;-0.1240;0.0392
0000834976;7.7189;-13.8481;7.1874;-0.0955;-0.1431;0.0589
0000834985;7.6591;-13.8768;6.9815;-0.1354;-0.1498;0.0765
0000834994;7.6327;-13.5416;6.9887;-0.1692;-0.1600;0.0910
0000835003;7.3694;-13.6278;7.1563;-0.2164;-0.1541;0.1162
0000835012;7.0916;-13.4003;6.9432;-0.2415;-0.1471;0.1276
0000835021;7.3813;-13.0699;6.8929;-0.2637;-0.1303;0.1584
0000835030;7.0940;-13.0173;6.9360;-0.2538;-0.1144;0.1623
0000835039;7.1060;-13.1226;6.8354;-0.2445;-0.0945;0.1648
0000835048;7.1036;-13.0340;6.7780;-0.2258;-0.0762;0.1571
0000835057;7.1132;-13.1059;6.7493;-0.2124;-0.0693;0.1488
0000835066;7.1730;-13.0676;6.8283;-0.2070;-0.0549;0.1336
0000835075;7.3813;-12.9478;6.8067;-0.2060;-0.0537;0.1214
0000835084;7.2784;-13.1346;6.8881;-0.2193;-0.0381;0.1187
0000835093;7.2209;-13.1897;6.8594;-0.2213;-0.0368;0.1063
0000835102;7.5298;-13.0460;6.9312;-0.2309;-0.0302;0.0951
0000835111;7.4843;-13.2591;6.9336;-0.2265;-0.0344;0.0818
0000835120;7.3670;-13.1418;6.9815;-0.2292;-0.0256;0.0827
0000835129;7.4555;-13.1083;7.0054;-0.2196;-0.0234;0.0735
0000835138;7.3239;-13.2016;7.0437;-0.2178;-0.0167;0.0730
0000835147;7.4915;-13.1130;6.9935;-0.2213;-0.0121;0.0825
0000835156;7.2592;-13.3716;7.0102;-0.2236;-0.0203;0.0849
0000835165;7.2329;-13.3237;7.0629;-0.2373;-0.0199;0.1047
0000835174;7.3574;-13.3884;7.1036;-0.2530;-0.0382;0.1075
0000835183;7.4986;-13.3237;7.0390;-0.2852;-0.0412;0.1375
0000835192;7.4915;-13.3836;7.0677;-0.3112;-0.0610;0.1472
0000835201;7.7117;-13.3764;6.9935;-0.3312;-0.0727;0.1817
0000835210;7.5369;-13.5751;7.0557;-0.3501;-0.0922;0.1940
0000835358;7.3957;-13.9893;6.3877;-0.5556;-0.1713;0.3226
0000835367;7.2808;-13.8864;6.3973;-0.5716;-0.1756;0.3230
0000835376;7.3334;-14.0037;6.2369;-0.5907;-0.1724;0.3277
0000835385;7.2449;-14.0133;6.4093;-0.6198;-0.1717;0.3293
0000835394;7.3670;-13.8505;6.2417;-0.6415;-0.1715;0.3428
0000835403;7.1826;-13.8744;5.9999;-0.6611;-0.1767;0.3520
0000835412;7.1395;-13.7499;5.9879;-0.6829;-0.1727;0.3576
0000835421;6.9863;-13.7930;5.6288;-0.6775;-0.1635;0.3537
0000835430;7.0222;-13.5033;5.4731;-0.6546;-0.1553;0.3453
0000835439;6.9767;-13.4315;5.4468;-0.6190;-0.1355;0.3276
0000835448;6.9288;-13.3668;5.3391;-0.5596;-0.1230;0.2962
0000835457;6.7086;-13.4482;5.3151;-0.5007;-0.1005;0.2669
0000835466;6.5050;-13.7954;5.3247;-0.4415;-0.0829;0.2362
0000835475;6.3039;-13.9941;5.3343;-0.3950;-0.0715;0.2001
0000835484;6.0789;-14.3652;5.3295;-0.3596;-0.0561;0.1808
0000835493;6.2273;-14.7052;5.2505;-0.3469;-0.0420;0.1649
0000835502;6.0549;-15.0595;5.4085;-0.3487;-0.0273;0.1556
0000835511;6.1459;-15.1816;5.3870;-0.3639;-0.0222;0.1410
0000835520;6.2106;-15.2630;5.3678;-0.4101;-0.0061;0.1340
0000835529;6.3398;-15.4115;5.3391;-0.4406;-0.0009;0.1226
0000835538;6.2082;-15.1385;5.1882;-0.4803;0.0089;0.1203
0000835547;6.1794;-14.9446;5.0637;-0.5017;0.0100;0.1082
0000835556;6.1699;-14.5472;5.0374;-0.5140;0.0341;0.1062
0000835565;5.8323;-14.4514;4.7381;-0.5039;0.0384;0.0986
0000835574;5.7676;-14.2670;4.6136;-0.4788;0.0493;0.0914
0000835583;5.8083;-13.8816;4.5753;-0.4353;0.0612;0.0763
0000835592;5.8802;-13.8505;4.5562;-0.3785;0.0775;0.0722
0000835601;5.9975;-13.8361;4.4580;-0.3195;0.0983;0.0699
0000835610;6.0525;-14.0420;4.3862;-0.2425;0.1046;0.0525
0000835619;5.9855;-14.0707;4.3574;-0.1859;0.1340;0.0486
0000835628;5.9065;-14.3963;4.5035;-0.1451;0.1599;0.0281
0000835637;6.0358;-14.6022;4.5945;-0.1176;0.1829;0.0109
0000835646;5.9137;-14.8201;4.5681;-0.1239;0.1993;0.0048
0000835655;5.9592;-14.9039;4.5753;-0.1275;0.2038;0.0005
0000835664;5.9927;-14.9278;4.5753;-0.1498;0.2137;0.0133
0000835673;6.0262;-14.8584;4.6376;-0.1487;0.2120;0.0215
0000835682;6.1196;-14.7387;4.6112;-0.1544;0.2070;0.0357
0000835691;6.4643;-14.3413;4.5083;-0.1396;0.1973;0.0338
0000835700;6.3877;-14.3245;4.5179;-0.1158;0.1913;0.0296
0000835709;6.6176;-14.1234;4.4963;-0.0842;0.1740;0.0220
0000835718;6.5434;-14.1066;4.4867;-0.0512;0.1568;0.0016
0000835727;6.4165;-14.1402;4.5681;-0.0249;0.1455;-0.0149
0000835736;6.4404;-14.1521;4.7884;0.0073;0.1315;-0.0394
0000835745;6.4907;-14.1880;4.8866;0.0390;0.1218;-0.0525
0000835754;6.4356;-14.3149;4.9608;0.0589;0.1131;-0.0710
0000835763;6.3159;-14.3939;4.9943;0.0590;0.1160;-0.0791
0000835772;6.3614;-14.5807;4.9991;0.0417;0.1211;-0.0781
0000835781;6.3590;-14.6573;5.1404;0.0312;0.1308;-0.0874
0000835790;6.5098;-14.4394;5.1691;0.0151;0.1375;-0.0935
0000835799;6.6846;-14.4011;5.1020;0.0011;0.1360;-0.1099
0000835808;6.7756;-14.3963;5.0015;-0.0036;0.1306;-0.1176
0000835817;6.8522;-14.1737;4.9249;0.0040;0.1175;-0.1402
0000835826;6.9743;-14.1258;4.8602;0.0101;0.1079;-0.1431
0000835835;7.1180;-14.0181;4.8866;0.0374;0.0859;-0.1667
0000835844;7.1275;-14.2407;4.9009;0.0667;0.0662;-0.1672
0000835853;7.0509;-14.3077;4.8004;0.1046;0.0474;-0.1737
0000835862;6.8738;-14.4849;4.8028;0.1242;0.0211;-0.1715
0000835871;6.7828;-14.5376;4.9129;0.1304;0.0035;-0.1532
0000835880;6.8666;-14.6980;4.9105;0.1308;-0.0203;-0.1460
0000835889;6.9216;-14.9087;4.8578;0.1250;-0.0422;-0.1234
0000835898;6.7397;-14.9925;4.8554;0.1014;-0.0538;-0.0911
0000835907;6.8283;-14.9398;4.9153;0.0686;-0.0633;-0.0570
0000835916;6.5745;-15.2415;5.0278;0.0441;-0.0786;-0.0314
0000835925;6.6655;-14.9255;5.0996;0.0216;-0.0898;-0.0117
0000835934;6.6415;-14.7507;5.1068;0.0215;-0.1057;0.0097
0000835943;6.6918;-14.6477;5.0901;0.0364;-0.1098;0.0139
0000835952;6.4500;-14.5759;5.1164;0.0533;-0.1126;0.0113
0000835961;6.2369;-14.6741;5.0254;0.0746;-0.1163;0.0159
0000835970;6.4165;-14.6142;5.1068;0.1038;-0.1206;-0.0008
0000835979;6.3087;-14.4586;5.1930;0.1114;-0.1178;-0.0040
0000835988;6.3398;-14.6166;5.2002;0.1198;-0.1260;-0.0181
0000836076;6.5888;-14.6262;5.1404;0.1077;-0.1701;-0.0702
0000836085;6.7804;-14.4394;5.1308;0.1170;-0.1713;-0.0658
0000836094;6.8426;-14.4059;5.2002;0.1264;-0.1868;-0.0695
0000836103;6.7756;-14.4394;5.2529;0.1427;-0.1949;-0.0705
0000836112;6.6990;-14.5615;5.3774;0.1420;-0.2058;-0.0721
0000836121;6.8307;-14.4179;5.3870;0.1434;-0.2045;-0.0678
0000836130;6.7564;-14.6046;5.5067;0.1322;-0.2120;-0.0777
0000836139;6.7373;-14.6477;5.6024;0.1123;-0.2118;-0.0775
0000836148;6.5864;-14.6765;5.6168;0.0878;-0.2057;-0.0882
0000836157;6.6319;-14.6860;5.5569;0.0786;-0.2053;-0.0981
0000836166;6.4189;-14.6980;5.6072;0.0592;-0.1863;-0.0990
0000836175;6.6224;-14.3915;5.5115;0.0598;-0.1816;-0.1102
0000836184;6.5338;-14.5041;5.6431;0.0566;-0.1640;-0.1057
0000836193;6.6224;-14.3030;5.5115;0.0565;-0.1511;-0.1147
0000836202;6.4979;-14.4442;5.4995;0.0606;-0.1426;-0.1163
0000836211;6.4284;-14.5113;5.6958;0.0604;-0.1300;-0.1254
0000836220;6.3590;-14.4203;5.5761;0.0572;-0.1180;-0.1251
0000836229;6.6104;-14.4179;5.6336;0.0549;-0.1142;-0.1290
0000836238;6.6032;-14.2503;5.6599;0.0484;-0.1034;-0.1338
0000836247;6.5386;-14.2910;5.5761;0.0460;-0.0995;-0.1371
0000836256;6.6367;-14.2455;5.6144;0.0389;-0.0877;-0.1386
0000836265;6.7086;-14.3532;5.5593;0.0320;-0.0811;-0.1476
0000836274;6.7516;-14.2455;5.6288;0.0270;-0.0755;-0.1563
0000836283;6.6248;-14.3892;5.5952;0.0171;-0.0577;-0.1553
0000836292;6.7732;-14.2790;5.6383;0.0226;-0.0542;-0.1640
0000836301;6.7660;-14.4753;5.6767;0.0164;-0.0389;-0.1584
0000836310;6.7708;-14.3437;5.6024;0.0143;-0.0306;-0.1600
0000836319;6.5864;-14.5065;5.5665;0.0141;-0.0200;-0.1593
0000836328;6.7900;-14.4251;5.4636;0.0089;-0.0067;-0.1559
0000836337;6.8785;-14.4849;5.5426;0.0000;0.0012;-0.1434
0000836346;6.9384;-14.4729;5.4612;-0.0068;0.0064;-0.1411
0000836355;6.8738;-14.4155;5.4348;-0.0108;0.0127;-0.1343
0000836364;7.1275;-14.2862;5.3630;-0.0167;0.0208;-0.1266
0000836373;7.0174;-14.3461;5.4708;-0.0140;0.0193;-0.1282
0000836382;6.9288;-14.3796;5.4277;-0.0171;0.0280;-0.1234
0000836391;7.0390;-14.3365;5.5282;-0.0165;0.0310;-0.1222
0000836400;7.0653;-14.3963;5.5522;-0.0083;0.0273;-0.1271
0000836409;7.0653;-14.4394;5.5091;-0.0045;0.0394;-0.1190
0000836418;7.1251;-14.4251;5.4492;0.0065;0.0360;-0.1219
0000836427;7.4268;-14.3892;5.4253;0.0153;0.0384;-0.1178
0000836436;7.1611;-14.5496;5.4684;0.0077;0.0417;-0.1094
0000836445;7.1204;-14.5927;5.5043;0.0047;0.0401;-0.1092
0000836454;7.3694;-14.4394;5.4061;-0.0020;0.0360;-0.1019
0000836463;7.2568;-14.4442;5.5091;-0.0160;0.0334;-0.0954
0000836472;7.1754;-14.6741;5.5737;-0.0199;0.0333;-0.0897
0000836481;7.3957;-14.4299;5.4636;-0.0290;0.0309;-0.0774
0000836490;7.4651;-14.4011;5.5713;-0.0297;0.0167;-0.0762
0000836499;7.4268;-14.2934;5.4396;-0.0336;0.0201;-0.0590
0000836508;7.4867;-14.2383;5.5162;-0.0269;0.0105;-0.0550
0000836517;7.4292;-14.2168;5.5498;-0.0325;0.0073;-0.0357
0000836526;7.4723;-14.1928;5.5378;-0.0282;-0.0028;-0.0240
0000836535;7.3861;-14.1737;5.5498;-0.0203;-0.0111;-0.0197
0000836544;7.4388;-14.2048;5.5258;-0.0160;-0.0199;-0.0003
0000836553;7.5250;-14.1904;5.4971;-0.0121;-0.0252;0.0087
0000836562;7.4148;-14.3269;5.5545;-0.0144;-0.0272;0.0234
0000836571;7.2784;-14.2168;5.4444;-0.0081;-0.0372;0.0266
0000836580;7.3287;-14.3389;5.5306;-0.0132;-0.0373;0.0404
0000836589;7.1826;-14.3485;5.4779;-0.0053;-0.0464;0.0405
0000836598;7.1802;-14.3772;5.5522;-0.0051;-0.0481;0.0500
0000836607;7.0318;-14.3293;5.5067;-0.0079;-0.0482;0.0605
0000836616;7.3574;-14.0181;5.4300;-0.0036;-0.0477;0.0646
0000836625;7.1994;-14.3556;5.4468;-0.0052;-0.0498;0.0685
0000836634;7.1371;-14.1809;5.4061;0.0048;-0.0554;0.0706
0000836643;7.0461;-14.3293;5.4037;0.0075;-0.0538;0.0713
0000836652;7.0797;-14.3796;5.3295;-0.0012;-0.0488;0.0814
0000836661;7.0198;-14.3676;5.3247;0.0128;-0.0622;0.0759
0000836670;6.9959;-14.3461;5.4061;0.0135;-0.0560;0.0799
0000836679;6.9552;-14.3485;5.3486;0.0168;-0.0602;0.0802
0000836688;6.7469;-14.5424;5.3702;0.0161;-0.0582;0.0858
0000836697;6.7157;-14.6094;5.4971;0.0185;-0.0653;0.0741
0000836706;6.8331;-14.5304;5.4324;0.0097;-0.0662;0.0814
0000836793;6.7540;-14.3868;5.5474;0.0045;-0.0509;0.0825
0000836802;6.8187;-14.4921;5.5713;-0.0099;-0.0440;0.0890
0000836811;7.0006;-14.2575;5.5138;-0.0140;-0.0500;0.0789
0000836820;6.9240;-14.3652;5.6264;-0.0316;-0.0384;0.0869
0000836829;6.7564;-14.3269;5.5976;-0.0410;-0.0381;0.0734
0000836838;6.7708;-14.4275;5.5809;-0.0530;-0.0361;0.0713
0000836847;6.7828;-14.3125;5.5426;-0.0594;-0.0368;0.0662
0000836856;6.8283;-14.2287;5.5761;-0.0695;-0.0260;0.0698
0000836865;6.7397;-14.1880;5.4660;-0.0641;-0.0264;0.0556
0000836874;6.7828;-14.1521;5.4827;-0.0545;-0.0218;0.0577
0000836883;6.6200;-14.3580;5.4061;-0.0462;-0.0212;0.0521
0000836892;6.5912;-14.2407;5.2601;-0.0368;-0.0196;0.0512
0000836901;6.8115;-14.2527;5.3391;-0.0234;-0.0120;0.0464
0000836910;6.6822;-14.2934;5.3750;-0.0016;-0.0168;0.0437
0000836919;6.7157;-14.2096;5.3103;0.0100;-0.0159;0.0384
0000836928;6.6295;-14.3317;5.3463;0.0139;-0.0097;0.0389
0000836937;6.6104;-14.3077;5.3558;0.0282;-0.0128;0.0304
0000836946;6.8067;-14.2838;5.5043;0.0313;-0.0160;0.0270
0000836955;6.6272;-14.5663;5.4684;0.0332;-0.0169;0.0191
0000836964;6.6607;-14.4706;5.4564;0.0313;-0.0104;0.0163
0000836973;6.7109;-14.5376;5.4947;0.0221;-0.0096;0.0213
0000836982;6.7516;-14.5496;5.5378;0.0216;-0.0164;0.0120
0000836991;6.7804;-14.5137;5.5234;0.0104;-0.0055;0.0200
0000837000;6.7493;-14.5615;5.4444;0.0107;-0.0104;0.0205
0000837009;6.7756;-14.4801;5.4396;0.0128;-0.0129;0.0208
0000837018;6.8211;-14.4083;5.3750;0.0177;-0.0216;0.0208
0000837027;6.8666;-14.4179;5.4588;0.0224;-0.0185;0.0217
0000837036;6.7900;-14.4370;5.4468;0.0308;-0.0326;0.0256
0000837045;7.0318;-14.3293;5.5665;0.0330;-0.0424;0.0253
0000837054;7.0318;-14.3461;5.4803;0.0430;-0.0548;0.0280
0000837063;6.8474;-14.4227;5.5378;0.0330;-0.0560;0.0369
0000837072;6.9001;-14.4203;5.4731;0.0396;-0.0667;0.0317
0000837081;7.0054;-14.1928;5.4516;0.0306;-0.0653;0.0330
0000837090;6.5553;-14.4514;5.4540;0.0294;-0.0698;0.0261
0000837099;6.6535;-14.3269;5.5498;0.0196;-0.0609;0.0294
0000837108;6.6870;-14.3389;5.5138;0.0230;-0.0600;0.0196
0000837117;6.6966;-14.2527;5.3989;0.0139;-0.0565;0.0217
0000837126;6.4596;-14.3389;5.6192;0.0133;-0.0521;0.0160
0000837135;6.6679;-14.2479;5.4971;0.0140;-0.0480;0.0172
0000837144;6.4811;-14.3149;5.4324;0.0141;-0.0488;0.0104
0000837153;6.5362;-14.3461;5.5091;0.0093;-0.0485;0.0108
0000837162;6.8283;-14.3077;5.6336;0.0119;-0.0437;0.0060
0000837171;6.6966;-14.2335;5.5641;0.0151;-0.0486;0.0023
0000837180;6.6631;-14.2718;5.5785;0.0228;-0.0526;0.0021
0000837189;6.5912;-14.4969;5.5426;0.0246;-0.0493;-0.0077
0000837198;6.7516;-14.2048;5.6910;0.0208;-0.0517;-0.0103
0000837207;6.7636;-14.2862;5.5450;0.0167;-0.0576;-0.0096
0000837216;6.5960;-14.4275;5.6000;0.0148;-0.0546;-0.0095
0000837225;6.6679;-14.3485;5.6216;0.0021;-0.0550;-0.0125
0000837234;6.5912;-14.5615;5.6216;0.0035;-0.0574;-0.0195
0000837243;6.5314;-14.3652;5.6000;-0.0099;-0.0477;-0.0177
0000837252;6.5122;-14.4490;5.5689;-0.0012;-0.0558;-0.0322
0000837261;6.4045;-14.4777;5.6048;-0.0061;-0.0500;-0.0329
0000837270;6.5434;-14.4083;5.5474;-0.0077;-0.0418;-0.0332
0000837279;6.3973;-14.4538;5.5138;-0.0068;-0.0430;-0.0422
0000837288;6.6032;-14.3868;5.5737;-0.0087;-0.0416;-0.0426
0000837297;6.5817;-14.3054;5.6216;-0.0148;-0.0328;-0.0472
0000837306;6.5984;-14.3868;5.5258;-0.0107;-0.0305;-0.0552
0000837315;6.5170;-14.4251;5.6503;-0.0097;-0.0317;-0.0641
0000837324;6.6128;-14.3604;5.5569;-0.0176;-0.0238;-0.0634
0000837333;6.7421;-14.3030;5.5210;-0.0101;-0.0233;-0.0671
0000837342;6.7205;-14.2718;5.5617;-0.0020;-0.0220;-0.0758
0000837351;6.8307;-14.1521;5.6431;-0.0105;-0.0093;-0.0658
0000837360;6.7062;-14.3221;5.6455;-0.0084;-0.0135;-0.0757
0000837369;6.7133;-14.4011;5.5929;-0.0111;-0.0043;-0.0698
0000837378;6.7253;-14.3245;5.6455;-0.0137;-0.0095;-0.0682
0000837387;6.8929;-14.3556;5.6551;-0.0191;-0.0015;-0.0581
0000837396;6.7301;-14.3125;5.6719;-0.0176;-0.0092;-0.0609
0000837405;6.7421;-14.2838;5.4731;-0.0129;-0.0117;-0.0632
0000837414;6.5625;-14.3652;5.5330;-0.0141;-0.0119;-0.0585
0000837542;6.8235;-14.5041;5.5138;-0.0281;-0.0221;-0.0658
0000837551;7.0246;-14.3820;5.6455;-0.0290;-0.0240;-0.0533
0000837560;7.1970;-14.2120;5.5450;-0.0281;-0.0336;-0.0554
0000837569;7.1084;-14.1402;5.5761;-0.0316;-0.0325;-0.0382
0000837578;6.9456;-14.3341;5.5522;-0.0221;-0.0402;-0.0409
0000837587;7.0485;-14.1545;5.5115;-0.0096;-0.0505;-0.0346
0000837596;6.9935;-14.1785;5.6096;0.0009;-0.0548;-0.0318
0000837605;7.0461;-14.1569;5.6503;0.0112;-0.0636;-0.0345
0000837614;6.9001;-14.2527;5.6336;0.0164;-0.0624;-0.0274
0000837623;6.9360;-14.3030;5.4923;0.0152;-0.0608;-0.0218
0000837632;6.8594;-14.4682;5.5976;0.0088;-0.0589;-0.0257
0000837641;6.9264;-14.3748;5.5426;0.0109;-0.0683;-0.0222
0000837650;7.0725;-14.1737;5.6527;-0.0009;-0.0609;-0.0151
0000837659;7.0725;-14.1833;5.6264;-0.0011;-0.0648;-0.0215
0000837668;7.0294;-14.1425;5.5857;-0.0096;-0.0622;-0.0085
0000837677;6.8618;-14.2958;5.6072;-0.0116;-0.0586;-0.0195
0000837686;6.8307;-14.3077;5.5952;-0.0123;-0.0549;-0.0127
0000837695;6.8235;-14.3006;5.5641;-0.0100;-0.0590;-0.0165
0000837704;6.8809;-14.2599;5.5641;-0.0113;-0.0516;-0.0135
0000837713;6.8331;-14.2670;5.6048;-0.0040;-0.0548;-0.0176
0000837722;6.8307;-14.2790;5.6671;-0.0072;-0.0549;-0.0165
0000837731;6.8618;-14.3485;5.5976;-0.0052;-0.0561;-0.0183
0000837740;6.7493;-14.4897;5.5929;-0.0067;-0.0552;-0.0181
0000837749;6.9073;-14.2168;5.5378;-0.0087;-0.0476;-0.0153
0000837758;6.7109;-14.3580;5.4899;-0.0105;-0.0448;-0.0120
0000837767;6.7373;-14.4203;5.5641;-0.0051;-0.0438;-0.0236
0000837776;6.7708;-14.3125;5.5713;-0.0128;-0.0360;-0.0143
0000837785;6.7493;-14.3724;5.6024;-0.0081;-0.0362;-0.0172
0000837794;6.9145;-14.2862;5.5809;-0.0151;-0.0304;-0.0180
0000837803;6.7564;-14.3604;5.4708;-0.0120;-0.0310;-0.0169
0000837812;6.8857;-14.2527;5.5785;-0.0037;-0.0326;-0.0240
0000837821;6.8139;-14.3365;5.5210;-0.0080;-0.0249;-0.0196
0000837830;6.8187;-14.3101;5.5593;-0.0047;-0.0297;-0.0305
0000837839;6.6152;-14.4514;5.5330;-0.0016;-0.0294;-0.0266
0000837848;6.7086;-14.3245;5.5043;-0.0004;-0.0293;-0.0309
0000837857;6.7421;-14.3389;5.5282;-0.0024;-0.0220;-0.0309
0000837866;6.8546;-14.3485;5.6360;-0.0095;-0.0220;-0.0345
0000837875;6.7660;-14.3772;5.5617;-0.0096;-0.0173;-0.0344
0000837884;6.9025;-14.3221;5.6551;-0.0149;-0.0177;-0.0338
0000837893;7.0270;-14.2048;5.6479;-0.0081;-0.0207;-0.0344
0000837902;6.7181;-14.4849;5.6360;-0.0081;-0.0246;-0.0324
0000837911;7.0006;-14.2311;5.5569;-0.0119;-0.0171;-0.0270
0000837920;7.1275;-14.1473;5.5378;-0.0117;-0.0173;-0.0269
0000837929;6.9384;-14.1689;5.6120;-0.0108;-0.0201;-0.0241
0000837938;7.0054;-14.3772;5.7221;-0.0136;-0.0228;-0.0236
0000837947;7.0509;-14.2742;5.6431;-0.0111;-0.0265;-0.0209
0000837956;7.1084;-14.1473;5.6024;-0.0179;-0.0266;-0.0224
0000837965;6.8714;-14.3485;5.5665;-0.0117;-0.0326;-0.0183
0000837974;6.8977;-14.4059;5.5761;-0.0141;-0.0344;-0.0224
0000837983;6.8785;-14.3652;5.5641;-0.0151;-0.0330;-0.0228
0000837992;6.8354;-14.2647;5.6144;-0.0181;-0.0289;-0.0203
0000838001;7.1563;-14.0731;5.5138;-0.0139;-0.0361;-0.0183
0000838010;7.0150;-14.2096;5.5498;-0.0169;-0.0341;-0.0164
0000838019;6.7253;-14.4131;5.6575;-0.0111;-0.0360;-0.0189
0000838028;6.8666;-14.2551;5.5210;-0.0157;-0.0294;-0.0157
0000838037;6.9480;-14.3389;5.5689;-0.0145;-0.0390;-0.0224
0000838046;6.9791;-14.2551;5.6958;-0.0153;-0.0292;-0.0136
0000838055;6.9983;-14.3101;5.6455;-0.0163;-0.0353;-0.0181
0000838064;6.8642;-14.2742;5.5713;-0.0188;-0.0322;-0.0121
0000838073;6.9360;-14.2431;5.5665;-0.0163;-0.0326;-0.0149
0000838082;6.9911;-14.3365;5.5019;-0.0139;-0.0362;-0.0128
0000838091;6.8378;-14.3461;5.4995;-0.0140;-0.0386;-0.0128
0000838100;6.8594;-14.2718;5.5234;-0.0143;-0.0352;-0.0076
0000838109;6.9097;-14.2240;5.5857;-0.0191;-0.0322;-0.0077
0000838118;6.9073;-14.2742;5.5282;-0.0164;-0.0330;-0.0093
0000838127;6.9839;-14.2694;5.5569;-0.0209;-0.0317;-0.0081
0000838136;6.9121;-14.2479;5.5522;-0.0197;-0.0317;-0.0055
0000838145;6.9001;-14.3245;5.6144;-0.0139;-0.0361;-0.0060
0000838154;6.7205;-14.3245;5.6383;-0.0183;-0.0337;-0.0027
0000838163;6.9623;-14.2168;5.6024;-0.0141;-0.0380;-0.0015
0000838250;6.8690;-14.3173;5.5713;-0.0072;-0.0340;-0.0156
0000838259;6.9408;-14.2718;5.6024;-0.0135;-0.0253;-0.0099
0000838268;6.9192;-14.2742;5.6336;-0.0109;-0.0330;-0.0152
0000838277;6.7924;-14.3101;5.6336;-0.0128;-0.0306;-0.0127
0000838286;6.8714;-14.3006;5.5043;-0.0199;-0.0256;-0.0144
0000838295;7.0006;-14.2575;5.5474;-0.0221;-0.0318;-0.0145
0000838304;7.0246;-14.3269;5.5354;-0.0338;-0.0266;-0.0111
0000838313;6.7900;-14.3030;5.5115;-0.0244;-0.0334;-0.0152
0000838322;7.0198;-14.1210;5.4420;-0.0296;-0.0253;-0.0097
0000838331;6.8019;-14.3077;5.6072;-0.0232;-0.0304;-0.0152
0000838340;6.9336;-14.2335;5.5210;-0.0156;-0.0284;-0.0149
0000838349;6.7900;-14.2527;5.5545;-0.0025;-0.0366;-0.0224
0000838358;6.7636;-14.3508;5.5641;0.0013;-0.0324;-0.0185
0000838367;6.8738;-14.2623;5.5809;0.0020;-0.0284;-0.0136
0000838376;6.8283;-14.2287;5.5952;0.0064;-0.0281;-0.0164
0000838385;7.0485;-14.2024;5.6168;-0.0007;-0.0232;-0.0135
0000838394;6.9791;-14.3796;5.6288;0.0031;-0.0292;-0.0159
0000838403;7.0246;-14.3341;5.6695;-0.0073;-0.0264;-0.0121
0000838412;6.8331;-14.3987;5.6216;-0.0051;-0.0360;-0.0196
0000838421;6.8594;-14.3173;5.5713;-0.0088;-0.0281;-0.0135
0000838430;6.9073;-14.1066;5.5617;-0.0079;-0.0312;-0.0137
0000838439;6.8881;-14.2958;5.5282;-0.0117;-0.0252;-0.0067
0000838448;6.8642;-14.3030;5.5952;-0.0132;-0.0305;-0.0165
0000838457;6.7756;-14.3389;5.5019;-0.0085;-0.0305;-0.0151
0000838466;7.1036;-14.2599;5.5857;-0.0043;-0.0354;-0.0152
0000838475;6.8881;-14.3700;5.6503;-0.0112;-0.0297;-0.0125
0000838484;6.8666;-14.2958;5.5881;-0.0079;-0.0305;-0.0152
0000838493;7.0006;-14.2958;5.6168;-0.0069;-0.0284;-0.0095
0000838502;6.7828;-14.3556;5.5905;-0.0124;-0.0285;-0.0085
0000838511;6.9312;-14.2599;5.5474;-0.0080;-0.0341;-0.0141
0000838520;6.7469;-14.4011;5.5905;-0.0127;-0.0272;-0.0087
0000838529;6.8833;-14.3389;5.5545;-0.0123;-0.0329;-0.0087
0000838538;6.8953;-14.3125;5.5689;-0.0128;-0.0340;-0.0103
0000838547;6.8809;-14.1521;5.6790;-0.0123;-0.0334;-0.0088
0000838556;6.7349;-14.3604;5.5043;-0.0153;-0.0344;-0.0088
0000838565;6.7828;-14.4658;5.5929;-0.0047;-0.0368;-0.0119
0000838574;6.9456;-14.2958;5.5905;-0.0119;-0.0318;-0.0100
0000838583;6.9025;-14.2647;5.6144;-0.0073;-0.0412;-0.0155
0000838592;6.9599;-14.2862;5.6024;-0.0080;-0.0318;-0.0084
0000838601;6.8402;-14.2359;5.5689;-0.0083;-0.0320;-0.0085
0000838610;6.7445;-14.3149;5.6096;-0.0133;-0.0372;-0.0107
0000838619;7.0222;-14.2168;5.5976;-0.0121;-0.0413;-0.0127
0000838628;6.7421;-14.3197;5.5689;-0.0151;-0.0350;-0.0112
0000838637;6.6990;-14.3892;5.6144;-0.0131;-0.0358;-0.0117
0000838646;6.9839;-14.0875;5.6216;-0.0107;-0.0384;-0.0140
0000838655;6.7804;-14.4131;5.5833;-0.0055;-0.0373;-0.0113
0000838664;6.8570;-14.2192;5.6144;-0.0059;-0.0349;-0.0140
0000838673;6.8618;-14.3461;5.6383;-0.0088;-0.0340;-0.0084
0000838682;7.0102;-14.3389;5.5881;-0.0083;-0.0401;-0.0172
0000838691;6.8139;-14.2383;5.6264;-0.0133;-0.0341;-0.0140
0000838700;6.8378;-14.3365;5.5593;-0.0164;-0.0364;-0.0132
0000838709;6.7014;-14.2551;5.6407;-0.0246;-0.0292;-0.0124
0000838718;6.7205;-14.4514;5.6288;-0.0180;-0.0284;-0.0181
0000838727;6.8283;-14.3006;5.5354;-0.0211;-0.0288;-0.0113
0000838736;6.7684;-14.2527;5.4875;-0.0136;-0.0345;-0.0180
0000838745;6.8929;-14.2024;5.6336;-0.0101;-0.0325;-0.0208
0000838754;6.8809;-14.2790;5.6048;-0.0149;-0.0273;-0.0159
0000838763;6.8163;-14.3389;5.5761;-0.0136;-0.0365;-0.0200
0000838772;6.8738;-14.3317;5.6383;-0.0145;-0.0364;-0.0220
0000838781;6.7780;-14.3365;5.6096;-0.0188;-0.0297;-0.0131
0000838790;6.7516;-14.3461;5.5976;-0.0124;-0.0365;-0.0220
0000838799;6.9001;-14.2958;5.6168;-0.0184;-0.0304;-0.0167
0000838808;6.8402;-14.1809;5.4468;-0.0175;-0.0310;-0.0195
0000838817;6.9959;-14.1856;5.5881;-0.0143;-0.0353;-0.0183
0000838826;6.9168;-14.1689;5.5761;-0.0128;-0.0381;-0.0151
0000838835;6.8857;-14.1425;5.5210;-0.0204;-0.0314;-0.0171
0000838844;7.0437;-14.2982;5.6360;-0.0099;-0.0377;-0.0226
0000838853;6.7780;-14.3389;5.5306;-0.0199;-0.0348;-0.0147
0000838862;6.9815;-14.1976;5.5641;-0.0165;-0.0301;-0.0171
0000838871;6.9097;-14.2694;5.6264;-0.0109;-0.0385;-0.0208
0000839015;6.9097;-14.4131;5.5809;-0.0155;-0.0377;-0.0143
0000839024;6.8211;-14.4299;5.4971;-0.0148;-0.0338;-0.0101
0000839033;6.9001;-14.1737;5.5761;-0.0155;-0.0390;-0.0096
0000839042;6.8498;-14.3772;5.5545;-0.0116;-0.0466;-0.0213
0000839051;6.8331;-14.2910;5.6072;-0.0133;-0.0434;-0.0147
0000839060;7.0749;-14.1090;5.5976;-0.0121;-0.0465;-0.0273
0000839069;6.8091;-14.4035;5.6336;-0.0216;-0.0393;-0.0208
0000839078;6.9743;-14.2024;5.6360;-0.0228;-0.0386;-0.0221
0000839087;6.9001;-14.4275;5.5713;-0.0312;-0.0345;-0.0185
0000839096;6.8378;-14.3221;5.5354;-0.0434;-0.0309;-0.0147
0000839105;6.9288;-14.2742;5.5929;-0.0462;-0.0272;-0.0132
0000839114;6.7971;-14.3365;5.5857;-0.0489;-0.0268;-0.0135
0000839123;7.0126;-14.1617;5.5617;-0.0473;-0.0258;-0.0133
0000839132;6.8905;-14.2982;5.5617;-0.0450;-0.0237;-0.0088
0000839141;6.8354;-14.2000;5.6168;-0.0345;-0.0334;-0.0119
0000839150;6.8953;-14.2694;5.6551;-0.0272;-0.0246;-0.0141
0000839159;6.9312;-14.2335;5.5881;-0.0179;-0.0320;-0.0209
0000839168;6.9743;-14.2048;5.5881;-0.0144;-0.0320;-0.0199
0000839177;6.6846;-14.4275;5.6048;-0.0140;-0.0258;-0.0189
0000839186;6.7181;-14.4131;5.6743;-0.0152;-0.0284;-0.0123
0000839195;7.0102;-14.3413;5.6216;-0.0205;-0.0288;-0.0148
0000839204;7.1275;-14.2886;5.6455;-0.0286;-0.0284;-0.0155
0000839213;6.7924;-14.3868;5.5761;-0.0358;-0.0258;-0.0143
0000839222;6.9192;-14.4059;5.6024;-0.0406;-0.0240;-0.0103
0000839231;6.8833;-14.3149;5.5713;-0.0388;-0.0278;-0.0139
0000839240;6.8354;-14.3532;5.6072;-0.0401;-0.0248;-0.0111
0000839249;6.8618;-14.2575;5.5929;-0.0358;-0.0278;-0.0177
0000839258;6.8881;-14.2958;5.6024;-0.0398;-0.0218;-0.0128
0000839267;6.9599;-14.2982;5.5881;-0.0317;-0.0304;-0.0123
0000839276;7.0294;-14.2551;5.5929;-0.0357;-0.0261;-0.0124
0000839285;6.8953;-14.3700;5.5498;-0.0265;-0.0276;-0.0097
0000839294;6.7588;-14.3197;5.5019;-0.0322;-0.0224;-0.0069
0000839303;6.7636;-14.4155;5.4947;-0.0321;-0.0280;-0.0097
0000839312;6.9073;-14.2670;5.6168;-0.0338;-0.0221;-0.0028
0000839321;6.9073;-14.2455;5.6192;-0.0336;-0.0301;-0.0080
0000839330;6.8905;-14.3317;5.5617;-0.0365;-0.0228;-0.0048
0000839339;6.8235;-14.5376;5.6096;-0.0352;-0.0298;-0.0096
0000839348;7.0030;-14.2670;5.5258;-0.0374;-0.0285;-0.0047
0000839357;6.7971;-14.2790;5.4995;-0.0386;-0.0284;-0.0095
0000839366;6.8163;-14.3293;5.5785;-0.0318;-0.0329;-0.0079
0000839375;6.9719;-14.2287;5.4540;-0.0280;-0.0317;-0.0109
0000839384;7.0078;-14.2479;5.5043;-0.0334;-0.0289;-0.0015
0000839393;6.9647;-14.3245;5.5282;-0.0370;-0.0264;-0.0025
0000839402;6.9384;-14.2958;5.5881;-0.0336;-0.0349;-0.0071
0000839411;6.9815;-14.3197;5.6336;-0.0301;-0.0356;-0.0064
0000839420;6.8187;-14.1976;5.5617;-0.0360;-0.0278;-0.0013
0000839429;6.8690;-14.1090;5.5019;-0.0345;-0.0366;-0.0095
0000839438;6.7852;-14.3772;5.5641;-0.0369;-0.0250;-0.0045
0000839447;6.8905;-14.4370;5.5282;-0.0332;-0.0286;-0.0076
0000839456;6.7181;-14.4131;5.5881;-0.0325;-0.0273;-0.0087
0000839465;6.8139;-14.3892;5.5522;-0.0334;-0.0285;-0.0076
0000839474;6.7349;-14.4945;5.5593;-0.0313;-0.0276;-0.0081
0000839483;6.7540;-14.4203;5.5952;-0.0396;-0.0237;-0.0044
0000839492;6.8738;-14.4753;5.4779;-0.0378;-0.0281;-0.0091
0000839501;6.8522;-14.3413;5.4899;-0.0492;-0.0197;-0.0083
0000839510;6.7947;-14.3604;5.5617;-0.0429;-0.0248;-0.0107
0000839519;6.8618;-14.3580;5.4899;-0.0472;-0.0175;-0.0064
0000839528;6.7373;-14.3628;5.4516;-0.0449;-0.0234;-0.0096
0000839537;6.7062;-14.3221;5.4085;-0.0418;-0.0250;-0.0183
0000839546;6.8905;-14.2072;5.4803;-0.0412;-0.0245;-0.0156
0000839555;6.8378;-14.3030;5.4684;-0.0378;-0.0262;-0.0128
0000839564;6.7876;-14.4203;5.4947;-0.0282;-0.0349;-0.0246
0000839573;6.7564;-14.6094;5.4827;-0.0322;-0.0289;-0.0172
0000839582;6.9025;-14.2694;5.4684;-0.0269;-0.0365;-0.0249
0000839591;6.8594;-14.4394;5.5402;-0.0377;-0.0286;-0.0171
0000839600;6.7828;-14.3077;5.4516;-0.0314;-0.0381;-0.0234
0000839609;6.9671;-14.2694;5.4755;-0.0358;-0.0342;-0.0232
0000839618;7.0006;-14.2718;5.4468;-0.0333;-0.0392;-0.0189
0000839627;6.8115;-14.3724;5.4803;-0.0370;-0.0346;-0.0149
0000839713;6.6774;-14.4346;5.5019;-0.0156;-0.0454;-0.0289
0000839722;6.7852;-14.3772;5.5641;-0.0200;-0.0392;-0.0286
0000839731;6.9432;-14.3293;5.4444;-0.0156;-0.0433;-0.0334
0000839740;7.0126;-14.1402;5.5091;-0.0164;-0.0417;-0.0285
0000839749;6.7900;-14.2838;5.4348;-0.0124;-0.0461;-0.0333
0000839758;6.8426;-14.2838;5.4899;-0.0059;-0.0441;-0.0330
0000839767;6.8714;-14.2886;5.5258;-0.0061;-0.0410;-0.0301
0000839776;7.0437;-14.1904;5.4540;0.0059;-0.0470;-0.0365
0000839785;6.9192;-14.3604;5.4755;-0.0009;-0.0366;-0.0312
0000839794;6.9001;-14.3652;5.4684;0.0081;-0.0437;-0.0417
0000839803;6.9480;-14.3101;5.4492;0.0043;-0.0394;-0.0290
0000839812;6.7971;-14.3676;5.4588;0.0035;-0.0420;-0.0369
0000839821;6.9528;-14.3796;5.4779;0.0024;-0.0394;-0.0320
0000839830;6.8546;-14.4706;5.5115;-0.0040;-0.0361;-0.0337
0000839839;7.0030;-14.3892;5.5162;0.0013;-0.0502;-0.0364
0000839848;7.1084;-14.1521;5.4588;0.0003;-0.0477;-0.0310
0000839857;7.0413;-14.2192;5.3989;-0.0009;-0.0432;-0.0350
0000839866;6.8977;-14.3365;5.5522;0.0044;-0.0477;-0.0342
0000839875;6.9767;-14.3413;5.5091;0.0065;-0.0453;-0.0320
0000839884;6.8211;-14.3892;5.4324;0.0128;-0.0426;-0.0342
0000839893;6.8738;-14.3317;5.5258;0.0195;-0.0432;-0.0316
0000839902;6.8666;-14.3963;5.4085;0.0258;-0.0466;-0.0364
0000839911;6.9504;-14.3341;5.6000;0.0277;-0.0472;-0.0325
0000839920;6.8019;-14.3987;5.5162;0.0222;-0.0498;-0.0381
0000839929;6.8594;-14.3796;5.5545;0.0140;-0.0474;-0.0360
0000839938;6.9216;-14.3963;5.5091;0.0073;-0.0481;-0.0365
0000839947;6.9719;-14.3724;5.5593;0.0075;-0.0469;-0.0350
0000839956;6.9264;-14.3604;5.4851;-0.0024;-0.0445;-0.0325
0000839965;6.7804;-14.3892;5.4755;0.0035;-0.0478;-0.0381
0000839974;6.8666;-14.1856;5.5234;0.0021;-0.0400;-0.0321
0000839983;6.9695;-14.1761;5.4708;0.0041;-0.0400;-0.0345
0000839992;6.9599;-14.2240;5.5067;0.0161;-0.0414;-0.0340
0000840001;6.9216;-14.2934;5.4851;0.0140;-0.0333;-0.0357
0000840010;7.1251;-14.1545;5.4516;0.0250;-0.0392;-0.0369
0000840019;6.7995;-14.3556;5.5354;0.0155;-0.0334;-0.0304
0000840028;7.0054;-14.3341;5.4253;0.0164;-0.0372;-0.0414
0000840037;7.0485;-14.2934;5.5043;0.0155;-0.0364;-0.0322
0000840046;6.8666;-14.2623;5.5186;0.0149;-0.0378;-0.0350
0000840055;6.9264;-14.2599;5.4540;0.0212;-0.0358;-0.0296
0000840064;7.1180;-14.2982;5.5737;0.0169;-0.0354;-0.0316
0000840073;7.0222;-14.3820;5.5067;0.0228;-0.0414;-0.0344
0000840082;6.9935;-14.3868;5.4564;0.0177;-0.0374;-0.0280
0000840091;6.8881;-14.3532;5.6288;0.0218;-0.0433;-0.0350
0000840100;6.9791;-14.3389;5.4923;0.0141;-0.0429;-0.0312
0000840109;7.1850;-14.2503;5.5689;0.0173;-0.0468;-0.0324
0000840118;7.0390;-14.2479;5.6120;0.0101;-0.0498;-0.0364
0000840127;6.9456;-14.2599;5.5402;0.0160;-0.0494;-0.0318
0000840136;6.6750;-14.5041;5.6264;0.0109;-0.0437;-0.0328
0000840145;6.7756;-14.3532;5.6336;0.0063;-0.0485;-0.0300
0000840154;6.8881;-14.2192;5.5545;0.0141;-0.0508;-0.0308
0000840163;7.0030;-14.2311;5.5833;0.0093;-0.0496;-0.0340
0000840172;6.8642;-14.2455;5.5162;0.0053;-0.0428;-0.0325
0000840181;6.8785;-14.1928;5.5929;0.0067;-0.0380;-0.0336
0000840190;6.9599;-14.1378;5.4516;0.0047;-0.0373;-0.0329
0000840199;7.0940;-14.1809;5.5857;0.0047;-0.0280;-0.0342
0000840208;6.7493;-14.3915;5.6312;0.0025;-0.0269;-0.0328
0000840217;6.8809;-14.3508;5.6407;-0.0041;-0.0238;-0.0320
0000840226;6.8953;-14.3317;5.6455;0.0017;-0.0211;-0.0305
0000840235;6.9863;-14.2527;5.6623;-0.0021;-0.0207;-0.0336
0000840244;6.9719;-14.3676;5.6407;-0.0005;-0.0151;-0.0298
0000840253;7.0078;-14.2024;5.5617;-0.0044;-0.0152;-0.0306
0000840262;7.0485;-14.3125;5.5450;-0.0021;-0.0109;-0.0304
0000840271;7.0030;-14.3365;5.5761;-0.0065;-0.0099;-0.0310
0000840280;7.0246;-14.3077;5.5522;-0.0061;-0.0111;-0.0265
0000840289;7.0916;-14.1593;5.5905;-0.0019;-0.0097;-0.0260
0000840298;6.8738;-14.3461;5.5450;-0.0095;-0.0144;-0.0216
0000840307;7.0198;-14.3556;5.5857;-0.0055;-0.0148;-0.0246
0000840316;6.8570;-14.3939;5.6120;-0.0045;-0.0201;-0.0230
0000840325;7.1323;-14.3892;5.5785;-0.0057;-0.0237;-0.0192
0000840334;6.9815;-14.2455;5.5186;-0.0092;-0.0232;-0.0191
0000840421;6.8905;-14.3173;5.5091;-0.0068;-0.0336;-0.0021
0000840430;6.9384;-14.3485;5.6216;-0.0133;-0.0318;0.0007
0000840439;6.8091;-14.3389;5.6240;-0.0053;-0.0377;-0.0097
0000840448;6.8522;-14.2982;5.6000;-0.0111;-0.0285;-0.0013
0000840457;6.8977;-14.2455;5.5641;-0.0100;-0.0282;-0.0037
0000840466;6.9025;-14.1689;5.5569;-0.0111;-0.0300;-0.0049
0000840475;6.8570;-14.2000;5.6096;-0.0116;-0.0290;-0.0040
0000840484;6.8402;-14.3341;5.5976;-0.0115;-0.0273;-0.0043
0000840493;6.9168;-14.2958;5.5617;-0.0081;-0.0345;-0.0087
0000840502;6.8043;-14.4418;5.5426;-0.0139;-0.0293;-0.0039
0000840511;6.8881;-14.2934;5.6527;-0.0097;-0.0298;-0.0036
0000840520;6.9456;-14.2934;5.6096;-0.0085;-0.0348;-0.0117
0000840529;6.8019;-14.4107;5.7102;-0.0147;-0.0304;-0.0089
0000840538;6.7995;-14.3149;5.6790;-0.0147;-0.0258;-0.0064
0000840547;6.9025;-14.3293;5.6288;-0.0209;-0.0292;-0.0112
0000840556;6.9168;-14.4059;5.5929;-0.0161;-0.0294;-0.0133
0000840565;7.0222;-14.2790;5.5258;-0.0289;-0.0261;-0.0045
0000840574;7.0701;-14.2742;5.6000;-0.0246;-0.0318;-0.0119
0000840583;6.9983;-14.2192;5.4803;-0.0294;-0.0324;-0.0080
0000840592;7.0701;-14.1282;5.5641;-0.0246;-0.0265;-0.0085
0000840601;6.9145;-14.2575;5.5306;-0.0187;-0.0374;-0.0135
0000840610;6.8857;-14.2072;5.5833;-0.0132;-0.0308;-0.0084
0000840619;6.8738;-14.2886;5.5809;-0.0041;-0.0340;-0.0189
0000840628;6.9192;-14.3245;5.5952;-0.0084;-0.0300;-0.0124
0000840637;6.8785;-14.2694;5.5641;-0.0011;-0.0364;-0.0172
0000840646;6.8833;-14.2431;5.6360;-0.0044;-0.0313;-0.0152
0000840655;7.1682;-14.2742;5.5689;-0.0049;-0.0342;-0.0141
0000840664;6.9408;-14.3149;5.5857;-0.0029;-0.0313;-0.0107
0000840673;6.8331;-14.4490;5.6312;-0.0085;-0.0345;-0.0120
0000840682;6.8857;-14.3101;5.6024;-0.0060;-0.0346;-0.0141
0000840691;6.9456;-14.2670;5.5929;-0.0107;-0.0332;-0.0148
0000840700;6.8738;-14.2000;5.5426;-0.0092;-0.0394;-0.0163
0000840709;6.9839;-14.2455;5.6072;-0.0101;-0.0310;-0.0091
0000840718;7.0437;-14.2024;5.4899;-0.0101;-0.0382;-0.0168
0000840727;6.8307;-14.3485;5.6072;-0.0120;-0.0377;-0.0131
0000840736;7.0677;-14.2216;5.6000;-0.0101;-0.0372;-0.0140
0000840745;6.8522;-14.3676;5.6024;-0.0157;-0.0304;-0.0119
0000840754;6.9073;-14.2503;5.6336;-0.0107;-0.0340;-0.0136
0000840763;7.0102;-14.1904;5.4923;-0.0156;-0.0337;-0.0113
0000840772;6.7612;-14.4370;5.6360;-0.0123;-0.0316;-0.0137
0000840781;7.0126;-14.1569;5.4899;-0.0123;-0.0328;-0.0131
0000840790;6.7828;-14.3915;5.6120;-0.0120;-0.0365;-0.0109
0000840799;6.9599;-14.2048;5.5306;-0.0103;-0.0350;-0.0135
0000840808;6.9025;-14.3461;5.4468;-0.0152;-0.0264;-0.0101
0000840817;6.7732;-14.4203;5.5641;-0.0116;-0.0374;-0.0143
0000840826;7.0461;-14.3389;5.5282;-0.0103;-0.0336;-0.0125
0000840835;6.8953;-14.2623;5.5426;-0.0079;-0.0340;-0.0127
0000840844;7.1036;-14.2335;5.5905;-0.0015;-0.0402;-0.0145
0000840851;6.9097;-14.2694;5.5641;-0.0039;-0.0372;-0.0155
0000840859;6.8546;-14.2934;5.5689;-0.0096;-0.0333;-0.0093
0000840867;6.9216;-14.3077;5.5809;-0.0069;-0.0384;-0.0116
0000840875;6.8331;-14.3317;5.6695;-0.0136;-0.0381;-0.0108
0000840883;7.0198;-14.2024;5.6264;-0.0104;-0.0404;-0.0125
0000840891;6.9384;-14.2503;5.6383;-0.0169;-0.0310;-0.0080
0000840899;6.9719;-14.2718;5.5833;-0.0140;-0.0404;-0.0172
0000840907;7.0006;-14.1665;5.6695;-0.0047;-0.0358;-0.0121
0000840915;7.0653;-14.1186;5.6240;-0.0084;-0.0304;-0.0116
0000840923;7.1132;-14.1904;5.6024;-0.0113;-0.0326;-0.0124
0000840931;7.0054;-14.3413;5.6048;-0.0061;-0.0354;-0.0153
0000840939;6.8522;-14.3508;5.6168;-0.0059;-0.0313;-0.0089
