time;acc_x;acc_y;acc_z;gyro_x;gyro_y;gyro_z
0000951701;7.7309;-15.6772;3.4213;-0.0609;0.8513;-0.5135
0000951709;7.8841;-15.4857;3.2537;-0.0734;0.8171;-0.4896
0000951716;7.6614;-15.6748;3.2705;-0.0813;0.7866;-0.4760
0000951724;7.7668;-15.6078;3.3615;-0.0825;0.7488;-0.4719
0000951733;7.9009;-15.4474;3.3184;-0.0847;0.7128;-0.4474
0000951741;7.9272;-15.4211;3.3088;-0.0846;0.6788;-0.4274
0000951753;7.8458;-15.5527;3.3950;-0.0781;0.6145;-0.4080
0000951761;7.8386;-15.5096;3.4500;-0.0795;0.5864;-0.3794
0000951769;7.7883;-15.5623;3.5267;-0.0849;0.5554;-0.3615
0000951780;7.7668;-15.5479;3.4812;-0.0931;0.5064;-0.3445
0000951788;7.7883;-15.6270;3.6152;-0.1061;0.4744;-0.3178
0000951800;7.6136;-15.7323;3.5362;-0.1230;0.4373;-0.2926
0000951808;7.3741;-15.6724;3.5698;-0.1315;0.4108;-0.2659
0000951875;7.7548;-15.3660;3.4740;-0.1191;0.1406;-0.0931
0000951883;7.5393;-15.4833;3.3926;-0.1279;0.1088;-0.0801
0000951895;7.7381;-15.4761;3.3926;-0.1246;0.0496;-0.0532
0000951903;7.8290;-15.3468;3.4285;-0.1187;0.0124;-0.0338
0000951914;7.8769;-15.3516;3.3519;-0.1078;-0.0466;-0.0069
0000951922;7.8817;-15.2199;3.3806;-0.0902;-0.0870;0.0081
0000951930;7.9823;-15.0356;3.3064;-0.0789;-0.1256;0.0274
0000951942;7.8745;-15.2559;3.3926;-0.0514;-0.1895;0.0549
0000951950;7.9344;-15.1314;3.3902;-0.0328;-0.2330;0.0707
0000951961;8.0254;-15.2918;3.3591;-0.0187;-0.2912;0.0957
0000951969;7.8027;-15.5719;3.3112;-0.0196;-0.3222;0.1222
0000951981;7.8243;-15.5168;3.1675;-0.0100;-0.3918;0.1529
0000951989;7.8961;-15.4115;3.1987;-0.0087;-0.4259;0.1776
0000952000;7.7285;-15.4522;3.2226;0.0071;-0.4883;0.1964
0000952008;7.8626;-15.4115;3.3088;0.0200;-0.5260;0.2181
0000952020;7.7309;-15.4713;3.2848;0.0380;-0.5862;0.2466
0000952028;7.7812;-15.4785;3.4860;0.0445;-0.6255;0.2625
0000952036;7.6088;-15.4809;3.5482;0.0510;-0.6606;0.2863
0000952047;7.6758;-15.5863;3.7589;0.0334;-0.6973;0.3051
0000952055;7.5585;-15.6365;3.7924;0.0200;-0.7173;0.3268
0000952067;7.5872;-15.5025;3.7709;-0.0033;-0.7469;0.3453
0000952075;7.2927;-15.5168;3.9121;-0.0175;-0.7623;0.3496
0000952142;7.0892;-15.4641;3.4069;-0.0937;-0.8038;0.3905
0000952150;7.2185;-15.4258;3.3878;-0.0951;-0.8087;0.3970
0000952162;7.3622;-15.3995;3.4093;-0.0891;-0.8147;0.4080
0000952170;7.3047;-15.4115;3.3351;-0.0946;-0.8227;0.4175
0000952178;7.4939;-15.3684;3.3543;-0.0923;-0.8286;0.4235
0000952189;7.4196;-15.4282;3.3998;-0.1023;-0.8537;0.4315
0000952197;7.5729;-15.4211;3.4405;-0.1150;-0.8580;0.4410
0000952209;7.3263;-15.4474;3.4620;-0.1231;-0.8833;0.4538
0000952217;7.4747;-15.3301;3.3591;-0.1199;-0.9014;0.4547
0000952228;7.3358;-15.2846;3.3639;-0.1053;-0.9174;0.4590
0000952236;7.2353;-15.2008;3.3112;-0.0997;-0.9309;0.4594
0000952248;7.1371;-15.3157;3.1819;-0.0754;-0.9401;0.4607
0000952256;7.0246;-15.6126;3.2226;-0.0645;-0.9401;0.4628
0000952267;7.3071;-15.4881;3.2657;-0.0518;-0.9403;0.4735
0000952275;7.2544;-15.5001;3.4285;-0.0553;-0.9469;0.4843
0000952283;7.3861;-15.6748;3.5147;-0.0693;-0.9439;0.5052
0000952295;7.4508;-15.9119;3.6344;-0.1037;-0.9359;0.5416
0000952303;7.6016;-16.0340;3.7852;-0.1319;-0.9470;0.5658
0000952314;7.7644;-16.1417;3.9289;-0.1916;-0.9477;0.6133
0000952322;7.6016;-16.2423;3.9672;-0.2483;-0.9489;0.6411
0000952334;7.5417;-16.1896;3.9289;-0.3451;-0.9792;0.6546
0000952342;7.5106;-16.2255;3.8930;-0.4017;-1.0191;0.6406
0000952410;7.1395;-14.8488;2.1500;-0.1608;-1.2834;0.3782
0000952418;7.1275;-15.0116;2.0255;-0.1059;-1.2894;0.3592
0000952430;7.0509;-15.0643;1.9896;-0.0482;-1.2793;0.3371
0000952438;6.8067;-15.2056;2.0111;-0.0103;-1.2716;0.3196
0000952446;6.5314;-15.3133;2.0399;0.0389;-1.2598;0.3050
0000952457;6.4141;-15.3708;2.0446;0.0965;-1.2339;0.2943
0000952465;6.3183;-15.4570;2.0686;0.1408;-1.2184;0.2807
0000952477;6.3470;-15.4929;2.1979;0.1872;-1.2069;0.2718
0000952485;6.3973;-15.5336;2.2170;0.2045;-1.1993;0.2678
0000952496;6.3327;-15.6916;2.4253;0.2174;-1.1810;0.2698
0000952504;6.4332;-15.7012;2.6145;0.2405;-1.1796;0.2689
0000952516;6.5984;-15.7826;2.9544;0.2505;-1.1519;0.2711
0000952524;6.8450;-15.7155;3.1627;0.2435;-1.1467;0.2821
0000952532;6.9791;-15.9669;3.2848;0.2321;-1.1441;0.2866
0000952543;6.7828;-16.0148;3.4429;0.2026;-1.1381;0.2966
0000952551;7.0294;-15.9669;3.5075;0.1736;-1.1251;0.3080
0000952563;6.8642;-15.8137;3.3399;0.1319;-1.1174;0.3215
0000952571;6.3351;-15.9813;3.1532;0.1178;-1.1138;0.3319
0000952582;6.4380;-15.8209;3.0335;0.1131;-1.1022;0.3455
0000952590;6.3279;-15.6341;2.8970;0.1238;-1.0929;0.3564
0000952602;6.3279;-15.6485;2.9688;0.1415;-1.0740;0.3742
0000952610;6.4021;-15.6365;2.9736;0.1581;-1.0624;0.3810
0000952618;6.3710;-15.6748;3.0071;0.1533;-1.0468;0.3960
0000952686;6.6607;-15.9957;3.3734;-0.1142;-1.0489;0.4565
0000952694;6.4859;-16.1082;3.3399;-0.1439;-1.0615;0.4510
0000952706;6.5314;-15.9095;3.2082;-0.1779;-1.0672;0.4470
0000952714;6.5673;-15.7610;3.0933;-0.1829;-1.0768;0.4413
0000952725;6.4332;-15.6844;2.9664;-0.1879;-1.0721;0.4371
0000952733;6.4787;-15.5479;2.9377;-0.1837;-1.0708;0.4354
0000952745;6.5266;-15.6246;2.9090;-0.1825;-1.0507;0.4345
0000952753;6.5864;-15.5910;2.8060;-0.1860;-1.0452;0.4367
0000952764;6.5649;-15.6126;2.7916;-0.1760;-1.0325;0.4446
0000952772;6.5649;-15.4641;2.6576;-0.1688;-1.0216;0.4498
0000952780;6.4212;-15.5647;2.5259;-0.1555;-1.0171;0.4495
0000952792;6.4667;-15.2894;2.5762;-0.1271;-1.0094;0.4439
0000952800;6.1387;-15.4953;2.5331;-0.1178;-0.9927;0.4441
0000952811;6.1459;-15.4570;2.4972;-0.0902;-0.9860;0.4278
0000952819;6.3015;-15.4019;2.5211;-0.0675;-0.9706;0.4198
0000952831;6.2034;-15.3109;2.4253;-0.0237;-0.9543;0.4058
0000952839;6.1004;-15.4474;2.3942;0.0064;-0.9363;0.4040
0000952850;6.4979;-15.3181;2.4493;0.0520;-0.9185;0.3989
0000952858;6.2848;-15.5144;2.4349;0.0798;-0.9028;0.3897
0000952866;6.2991;-15.5695;2.4421;0.1139;-0.8973;0.3825
0000952878;6.4045;-15.5192;2.5067;0.1450;-0.8733;0.3687
0000952886;6.3638;-15.5958;2.7031;0.1635;-0.8541;0.3656
0000952954;6.2034;-16.0651;3.1915;0.1115;-0.7256;0.3028
0000952962;6.5266;-15.8041;3.0670;0.0969;-0.7181;0.2995
0000952974;6.3997;-15.9502;3.1580;0.0741;-0.7000;0.2915
0000952982;6.5769;-15.8065;3.1029;0.0554;-0.6761;0.2916
0000952993;6.2776;-16.0938;3.1412;0.0316;-0.6610;0.2821
0000953001;6.5577;-15.6581;2.9616;0.0161;-0.6455;0.2702
0000953013;6.2369;-15.7538;2.9113;-0.0021;-0.6143;0.2651
0000953021;6.0956;-15.6341;2.8371;-0.0025;-0.5983;0.2577
0000953029;6.0549;-15.3540;2.7701;0.0176;-0.5870;0.2485
0000953040;6.1723;-15.3660;2.6671;0.0489;-0.5592;0.2427
0000953048;6.2321;-15.3660;2.6121;0.0697;-0.5363;0.2419
0000953060;6.1866;-15.4115;2.6001;0.0930;-0.5197;0.2258
0000953068;6.1004;-15.5216;2.6743;0.0943;-0.4936;0.2302
0000953080;6.0478;-15.7371;2.7246;0.0994;-0.4592;0.2212
0000953088;6.1794;-15.6605;2.7581;0.1042;-0.4367;0.2248
0000953099;5.9616;-15.8185;2.6097;0.1110;-0.4081;0.2209
0000953107;6.0717;-15.6605;2.6719;0.1200;-0.3842;0.2154
0000953115;5.9137;-15.6557;2.5522;0.1296;-0.3615;0.2085
0000953127;6.0166;-15.5910;2.4900;0.1520;-0.3215;0.2045
0000953135;6.0094;-15.6509;2.4373;0.1669;-0.2974;0.1953
0000953147;6.0310;-15.7251;2.5019;0.1815;-0.2739;0.1881
0000953155;6.0023;-15.5575;2.5139;0.2020;-0.2706;0.1697
0000953223;5.8849;-15.6868;2.8850;0.2194;-0.0966;0.0734
0000953231;5.8610;-15.6629;2.9161;0.2236;-0.0806;0.0621
0000953242;5.8012;-15.8760;2.8946;0.2078;-0.0529;0.0473
0000953250;5.8538;-16.0028;3.0526;0.1981;-0.0360;0.0361
0000953258;5.9089;-15.9837;3.1699;0.1755;-0.0061;0.0358
0000953270;5.7772;-15.9909;3.4788;0.1403;0.0302;0.0242
0000953278;5.8227;-15.8975;3.5410;0.1071;0.0621;0.0205
0000953289;5.8538;-15.9358;3.7062;0.0665;0.0883;0.0001
0000953297;5.8945;-16.0483;3.7373;0.0310;0.1136;-0.0136
0000953309;6.1387;-15.8496;3.6871;-0.0165;0.1376;-0.0305
0000953317;5.9759;-15.8975;3.6583;-0.0450;0.1491;-0.0432
0000953328;6.2465;-15.7371;3.5075;-0.0769;0.1605;-0.0618
0000953336;5.7796;-15.9454;3.2513;-0.0889;0.1625;-0.0721
0000953344;6.0885;-15.7850;3.1364;-0.0882;0.1651;-0.0835
0000953356;5.9831;-15.7443;3.0622;-0.0851;0.1736;-0.0994
0000953364;6.1651;-15.6293;2.9281;-0.0851;0.1889;-0.1065
0000953375;6.1938;-15.4929;2.7126;-0.0655;0.2069;-0.1216
0000953383;6.0908;-15.4426;2.7390;-0.0394;0.2166;-0.1318
0000953395;5.9185;-15.3492;2.7007;-0.0093;0.2423;-0.1486
0000953403;6.0262;-15.3995;2.7533;0.0105;0.2601;-0.1516
0000953415;5.9233;-15.4498;2.8060;0.0424;0.2843;-0.1575
0000953423;6.0262;-15.4809;2.8084;0.0509;0.3039;-0.1565
0000953431;6.1579;-15.3684;2.8730;0.0665;0.3130;-0.1704
0000953498;6.3494;-15.7634;3.2920;0.0385;0.4295;-0.2116
0000953506;6.2177;-15.6772;3.4548;0.0285;0.4341;-0.2193
0000953517;6.2201;-15.6605;3.4548;0.0245;0.4338;-0.2349
0000953525;6.3159;-15.6461;3.4237;0.0160;0.4366;-0.2324
0000953537;6.2513;-15.6365;3.4429;0.0033;0.4427;-0.2406
0000953545;6.3422;-15.6030;3.4716;-0.0075;0.4485;-0.2374
0000953556;6.2608;-15.7251;3.4572;-0.0128;0.4437;-0.2457
0000953564;6.3422;-15.6246;3.3854;-0.0184;0.4422;-0.2469
0000953576;6.2560;-15.5503;3.2130;-0.0145;0.4343;-0.2542
0000953584;6.2537;-15.5839;3.2872;-0.0148;0.4389;-0.2514
0000953592;6.4117;-15.3660;3.2082;-0.0165;0.4347;-0.2566
0000953603;6.2776;-15.5264;3.1316;-0.0071;0.4323;-0.2601
0000953611;6.2968;-15.3444;3.1723;0.0016;0.4439;-0.2650
0000953623;6.3039;-15.4019;3.1364;0.0261;0.4501;-0.2651
0000953631;6.3207;-15.3157;3.1412;0.0408;0.4604;-0.2713
0000953642;6.1172;-15.3875;3.2010;0.0652;0.4696;-0.2789
0000953650;6.1004;-15.6054;3.2106;0.0779;0.4775;-0.2831
0000953662;6.1076;-15.4881;3.3375;0.0785;0.4960;-0.2859
0000953670;6.0813;-15.5719;3.3160;0.0747;0.5015;-0.2970
0000953678;6.1603;-15.5719;3.2968;0.0657;0.5152;-0.3022
0000953690;6.1579;-15.5599;3.2825;0.0566;0.5283;-0.3086
0000953698;6.1148;-15.5001;3.2992;0.0589;0.5383;-0.3192
0000953766;6.5146;-15.3492;3.3519;0.1304;0.5682;-0.3357
0000953774;6.4524;-15.4474;3.3758;0.1250;0.5738;-0.3441
0000953785;6.2848;-15.4713;3.4237;0.1306;0.5704;-0.3528
0000953793;6.1675;-15.5312;3.4046;0.1188;0.5782;-0.3575
0000953805;6.2896;-15.5479;3.4692;0.1030;0.5877;-0.3604
0000953813;6.3351;-15.5288;3.5314;0.0934;0.5910;-0.3612
0000953821;6.3710;-15.6389;3.5171;0.0903;0.5890;-0.3649
0000953832;6.2728;-15.5671;3.5291;0.0806;0.5998;-0.3632
0000953840;6.3925;-15.5360;3.4524;0.0841;0.6023;-0.3652
0000953852;6.5122;-15.4187;3.5434;0.0839;0.6129;-0.3599
0000953860;6.5050;-15.3205;3.4884;0.0902;0.6133;-0.3692
0000953871;6.6272;-15.2918;3.3974;0.0963;0.6186;-0.3656
0000953879;6.4117;-15.4258;3.3064;0.1038;0.6191;-0.3722
0000953891;6.6152;-15.3277;3.3854;0.1092;0.6209;-0.3742
0000953899;6.3829;-15.4067;3.3471;0.1220;0.6135;-0.3869
0000953907;6.3925;-15.4330;3.4453;0.1219;0.6190;-0.3812
0000953918;6.3327;-15.5791;3.4596;0.1296;0.6187;-0.3953
0000953926;6.5003;-15.4522;3.4500;0.1235;0.6238;-0.3940
0000953938;6.3398;-15.5168;3.6200;0.1184;0.6219;-0.3961
0000953946;6.4931;-15.5120;3.5698;0.1081;0.6265;-0.3922
0000953958;6.4117;-15.6677;3.7134;0.1007;0.6269;-0.3901
0000953966;6.4620;-15.5839;3.6799;0.0923;0.6314;-0.3944
0000954034;6.5817;-15.5503;3.7110;0.0209;0.6025;-0.3801
0000954042;6.5601;-15.5144;3.6751;0.0249;0.5954;-0.3754
0000954050;6.6918;-15.4618;3.6799;0.0183;0.5853;-0.3651
0000954061;6.6750;-15.5288;3.7421;0.0222;0.5678;-0.3609
0000954069;6.7086;-15.4067;3.7038;0.0141;0.5601;-0.3465
0000954081;6.6774;-15.4330;3.7924;0.0076;0.5520;-0.3408
0000954089;6.7947;-15.2989;3.8188;0.0027;0.5432;-0.3352
0000954100;6.6990;-15.5025;3.8044;-0.0108;0.5325;-0.3224
0000954108;6.7995;-15.5599;3.8211;-0.0140;0.5157;-0.3210
0000954120;6.7828;-15.5695;3.9025;-0.0374;0.5047;-0.3163
0000954128;6.6798;-15.6198;3.7517;-0.0573;0.4976;-0.3119
0000954139;6.7876;-15.5288;3.6296;-0.0665;0.4843;-0.3050
0000954147;6.6750;-15.6150;3.6512;-0.0640;0.4724;-0.3096
0000954155;6.9576;-15.2582;3.7110;-0.0669;0.4628;-0.3028
0000954167;6.7780;-15.2798;3.5291;-0.0593;0.4497;-0.2956
0000954175;6.8474;-15.2487;3.5602;-0.0400;0.4378;-0.2954
0000954186;6.7157;-15.2032;3.5267;-0.0333;0.4295;-0.2883
0000954194;6.8235;-15.2750;3.5027;-0.0205;0.4105;-0.2803
0000954206;6.7708;-15.3851;3.6033;-0.0115;0.3996;-0.2729
0000954214;6.7852;-15.3588;3.6152;-0.0168;0.3985;-0.2655
0000954226;6.8235;-15.2918;3.5362;-0.0119;0.3869;-0.2586
0000954234;6.9336;-15.2343;3.6224;-0.0084;0.3849;-0.2539
0000954302;6.9240;-15.5384;3.7876;-0.0566;0.3308;-0.2101
0000954310;6.9504;-15.6748;3.7685;-0.0697;0.3174;-0.2062
0000954318;7.1108;-15.4378;3.8020;-0.0839;0.3080;-0.1895
0000954329;7.1299;-15.3061;3.7972;-0.0907;0.2903;-0.1797
0000954337;7.2209;-15.3516;3.7326;-0.0955;0.2817;-0.1700
0000954349;7.1371;-15.3971;3.7589;-0.1014;0.2690;-0.1450
0000954357;7.0581;-15.4929;3.7781;-0.1019;0.2419;-0.1432
0000954368;7.0078;-15.4689;3.8044;-0.1135;0.2278;-0.1230
0000954376;6.9695;-15.5312;3.6919;-0.1295;0.2108;-0.1162
0000954388;7.1251;-15.3971;3.6320;-0.1420;0.1892;-0.1047
0000954396;6.9145;-15.6413;3.6224;-0.1452;0.1843;-0.1067
0000954404;6.9887;-15.6006;3.5554;-0.1472;0.1777;-0.1049
0000954415;6.8259;-15.4426;3.5314;-0.1544;0.1974;-0.0973
0000954423;6.5434;-15.6102;3.4668;-0.1523;0.2048;-0.1011
0000954435;6.3997;-15.4498;3.4548;-0.1588;0.2226;-0.0970
0000954443;6.2800;-15.1936;3.3279;-0.1482;0.2272;-0.0925
0000954455;6.5505;-15.1050;3.2370;-0.1085;0.2070;-0.0889
0000954463;6.6391;-15.0452;3.1939;-0.0562;0.1793;-0.0789
0000954474;7.3358;-14.7818;2.9856;0.0396;0.1126;-0.0790
0000954482;7.5058;-14.7626;3.1149;0.0946;0.0442;-0.0707
0000954494;7.9607;-14.9566;3.2010;0.1379;-0.0354;-0.0481
0000954502;8.2265;-15.2199;3.3519;0.1470;-0.0851;-0.0402
0000954510;8.2337;-15.3397;3.5674;0.1512;-0.1270;-0.0304
0000954578;6.1555;-15.7155;3.7254;-0.0465;-0.2406;-0.0246
0000954586;6.4524;-15.4498;3.6057;-0.0474;-0.2305;-0.0326
0000954598;6.3686;-15.3612;3.5243;-0.0348;-0.2121;-0.0398
0000954606;6.3039;-15.3684;3.5554;-0.0226;-0.2045;-0.0466
0000954617;6.6798;-15.2032;3.5362;-0.0304;-0.1751;-0.0317
0000954625;6.6679;-15.1290;3.3950;-0.0321;-0.1627;-0.0179
0000954637;6.7540;-15.0763;3.4333;-0.0358;-0.1286;0.0076
0000954645;6.7014;-15.0332;3.3758;-0.0352;-0.1118;0.0226
0000954656;6.6248;-15.1936;3.3926;-0.0288;-0.0918;0.0486
0000954664;6.8738;-15.1457;3.4644;-0.0193;-0.0793;0.0546
0000954672;6.6894;-15.3636;3.4620;-0.0088;-0.0658;0.0592
0000954684;6.5529;-15.3564;3.5099;0.0064;-0.0508;0.0602
0000954692;6.5218;-15.5049;3.6152;0.0077;-0.0436;0.0588
0000954703;6.7469;-15.4187;3.6583;0.0145;-0.0390;0.0394
0000954711;6.4763;-15.6030;3.7613;0.0272;-0.0414;0.0228
0000954723;6.4667;-15.5479;3.7469;0.0521;-0.0469;-0.0041
0000954731;6.5553;-15.5025;3.7014;0.0653;-0.0484;-0.0225
0000954742;6.6463;-15.4330;3.6152;0.0791;-0.0529;-0.0416
0000954750;6.6990;-15.5408;3.7038;0.0886;-0.0691;-0.0586
0000954762;6.9456;-15.3804;3.7397;0.0905;-0.0851;-0.0578
0000954770;7.1180;-15.2630;3.6512;0.1095;-0.1091;-0.0598
0000954778;7.1084;-15.1721;3.5458;0.1083;-0.1263;-0.0429
0000954846;6.7397;-15.7131;3.7445;0.0799;-0.1560;0.0474
0000954854;6.7205;-15.5264;3.8140;0.0470;-0.1529;0.0622
0000954866;6.5817;-15.6054;3.8331;0.0120;-0.1318;0.0624
0000954874;6.6463;-15.4833;3.7493;0.0148;-0.1224;0.0556
0000954885;6.7253;-15.3109;3.8499;0.0132;-0.0910;0.0534
0000954893;6.5529;-15.4354;3.8116;0.0169;-0.0787;0.0437
0000954905;6.9504;-15.2726;3.8618;0.0065;-0.0553;0.0389
0000954913;6.9168;-15.3133;3.8020;0.0160;-0.0473;0.0346
0000954921;7.0030;-15.3995;3.8331;-0.0024;-0.0306;0.0400
0000954932;6.9001;-15.7036;3.7589;-0.0382;-0.0097;0.0377
0000954940;7.2018;-15.6054;3.7445;-0.0758;-0.0044;0.0400
0000954952;7.2161;-15.7131;3.6895;-0.1384;0.0117;0.0597
0000954960;7.3095;-15.5503;3.4644;-0.1693;0.0076;0.0670
0000954971;7.2472;-15.3133;3.4644;-0.1659;-0.0073;0.0791
0000954979;7.2832;-15.1625;3.4644;-0.1435;-0.0298;0.0731
0000954991;7.5154;-15.0116;3.5769;-0.0994;-0.0711;0.0730
0000954999;7.1994;-15.4306;3.6105;-0.0667;-0.1035;0.0573
0000955010;7.3478;-15.4450;3.8882;-0.0352;-0.1556;0.0365
0000955018;7.2927;-15.4665;4.1037;-0.0361;-0.1872;0.0262
0000955026;7.1012;-15.7419;4.1707;-0.0404;-0.2264;0.0108
0000955038;7.1251;-15.8424;4.3407;-0.0742;-0.2749;-0.0145
0000955046;7.0413;-15.7945;4.3598;-0.1182;-0.3007;-0.0266
0000955114;6.7900;-14.8584;3.0813;-0.2887;-0.2586;0.0384
0000955122;6.7876;-14.6932;2.9592;-0.2317;-0.2503;0.0482
0000955134;6.7109;-14.7028;2.8706;-0.1519;-0.2346;0.0662
0000955142;6.7014;-14.8752;2.9209;-0.1059;-0.2285;0.0814
0000955153;6.8570;-14.9111;3.0430;-0.0398;-0.2292;0.0934
0000955161;6.6511;-15.1314;3.1532;0.0011;-0.2325;0.0975
0000955173;6.6870;-15.2391;3.3734;0.0476;-0.2370;0.1018
0000955181;6.8450;-15.2582;3.4620;0.0525;-0.2357;0.0981
0000955189;6.8211;-15.2271;3.4955;0.0662;-0.2415;0.0974
0000955200;6.6487;-15.2989;3.5865;0.0711;-0.2337;0.0919
0000955208;6.8235;-15.4905;3.6296;0.0689;-0.2348;0.0845
0000955220;6.7325;-15.4258;3.5841;0.0634;-0.2266;0.0831
0000955228;6.7588;-15.5264;3.6368;0.0592;-0.2221;0.0750
0000955239;6.6056;-15.6126;3.4668;0.0512;-0.2194;0.0758
0000955247;6.8618;-15.4163;3.5458;0.0516;-0.2212;0.0729
0000955259;6.9576;-15.4139;3.4213;0.0549;-0.2241;0.0733
0000955267;7.0054;-15.2894;3.3758;0.0632;-0.2176;0.0754
0000955275;7.0509;-15.2798;3.3351;0.0881;-0.2265;0.0697
0000955286;6.9959;-15.3947;3.3782;0.1119;-0.2296;0.0701
0000955294;6.9432;-15.4234;3.3064;0.1219;-0.2317;0.0675
0000955306;6.9073;-15.4761;3.4453;0.1192;-0.2345;0.0765
0000955314;6.8043;-15.4402;3.5961;0.1206;-0.2360;0.0893
0000955381;6.8331;-15.6054;3.6679;0.0637;-0.2737;0.1074
0000955389;6.7086;-15.6772;3.6799;0.0565;-0.2734;0.1066
0000955401;7.1443;-15.3157;3.5362;0.0465;-0.2818;0.1057
0000955409;6.8977;-15.4091;3.5410;0.0556;-0.2839;0.0986
0000955417;6.8378;-15.3684;3.4213;0.0644;-0.2870;0.0921
0000955428;6.8211;-15.2774;3.3974;0.0741;-0.2693;0.0861
0000955436;6.5290;-15.4258;3.5578;0.0897;-0.2639;0.0781
0000955448;6.6559;-15.4187;3.5961;0.0965;-0.2431;0.0775
0000955456;6.4643;-15.5168;3.6152;0.0961;-0.2202;0.0851
0000955467;6.3590;-15.4977;3.6847;0.0803;-0.1958;0.0931
0000955475;6.6343;-15.4522;3.6919;0.0690;-0.1844;0.0997
0000955487;6.6822;-15.5791;3.6679;0.0573;-0.1620;0.1051
0000955495;6.6152;-15.5623;3.5817;0.0530;-0.1637;0.1019
0000955503;6.9216;-15.3468;3.5171;0.0489;-0.1506;0.1096
0000955514;6.9097;-15.2271;3.5027;0.0570;-0.1472;0.1128
0000955522;6.8905;-15.2822;3.4572;0.0709;-0.1519;0.1123
0000955534;6.7780;-15.4187;3.5410;0.0887;-0.1588;0.1162
0000955542;6.9695;-15.3301;3.5554;0.0957;-0.1659;0.1244
0000955553;6.8474;-15.5120;3.6224;0.0943;-0.1783;0.1334
0000955561;6.8594;-15.4618;3.7158;0.0966;-0.1867;0.1323
0000955573;6.9767;-15.5312;3.6775;0.0951;-0.2136;0.1276
0000955581;6.7636;-15.6126;3.7445;0.0898;-0.2186;0.1311
0000955589;6.8666;-15.5863;3.7996;0.0758;-0.2322;0.1295
0000955657;6.7277;-15.4306;3.5051;0.0670;-0.2791;0.1640
0000955665;6.8953;-15.2582;3.6464;0.0655;-0.2714;0.1757
0000955677;6.6750;-15.3708;3.6057;0.0697;-0.2786;0.1819
0000955685;6.7205;-15.2989;3.5937;0.0711;-0.2814;0.1897
0000955697;6.7325;-15.2750;3.5482;0.0757;-0.2757;0.1875
0000955705;6.5122;-15.3947;3.4620;0.0809;-0.2811;0.1861
0000955717;6.5864;-15.3397;3.5721;0.0926;-0.2717;0.1836
0000955725;6.5960;-15.2295;3.4979;0.0963;-0.2638;0.1880
0000955733;6.6008;-15.3588;3.5578;0.1050;-0.2633;0.1793
0000955745;6.5242;-15.4402;3.6679;0.1092;-0.2511;0.1761
0000955753;6.5027;-15.3420;3.7421;0.1110;-0.2401;0.1739
0000955765;6.5050;-15.4570;3.7709;0.1055;-0.2261;0.1683
0000955773;6.3494;-15.4857;3.7517;0.1010;-0.2125;0.1663
0000955785;6.5721;-15.3660;3.7804;0.1034;-0.1976;0.1576
0000955793;6.4404;-15.6174;3.8475;0.1043;-0.1904;0.1518
0000955804;6.3877;-15.5982;3.7804;0.0919;-0.1760;0.1408
0000955812;6.2537;-15.6222;3.8475;0.0890;-0.1751;0.1419
0000955820;6.4691;-15.5336;3.8954;0.0725;-0.1581;0.1374
0000955832;6.2920;-15.6892;3.8523;0.0450;-0.1520;0.1324
0000955840;6.4548;-15.6222;3.9241;0.0329;-0.1515;0.1275
0000955908;6.4165;-15.6102;3.7086;-0.0682;-0.1316;0.1135
0000955916;6.5745;-15.4426;3.7924;-0.0774;-0.1288;0.1167
0000955928;6.6200;-15.3923;3.6990;-0.0810;-0.1354;0.1103
0000955936;6.5242;-15.4857;3.7014;-0.0889;-0.1384;0.1135
0000955948;6.5793;-15.4115;3.7948;-0.0909;-0.1503;0.1053
0000955956;6.3063;-15.7395;3.7086;-0.0947;-0.1474;0.1102
0000955968;6.4141;-15.7227;3.7876;-0.1104;-0.1560;0.1046
0000955976;6.4835;-15.6581;3.7733;-0.1251;-0.1560;0.1039
0000955984;6.4548;-15.7826;3.8618;-0.1419;-0.1533;0.1061
0000955996;6.3351;-15.8712;3.7757;-0.1659;-0.1651;0.0993
0000956004;6.4069;-15.7299;3.9025;-0.1812;-0.1623;0.0979
0000956016;6.6750;-15.6150;3.8547;-0.2052;-0.1700;0.0979
0000956024;6.4667;-15.6868;3.7733;-0.2285;-0.1691;0.1026
0000956036;6.3279;-15.6724;3.7302;-0.2551;-0.1767;0.0951
0000956044;6.3470;-15.6844;3.7733;-0.2689;-0.1845;0.0915
0000956056;6.5242;-15.5671;3.6607;-0.2884;-0.1792;0.0958
0000956064;6.4332;-15.5910;3.5937;-0.3023;-0.1733;0.1041
0000956072;6.3638;-15.6461;3.5745;-0.3104;-0.1719;0.1007
0000956084;6.3901;-15.5791;3.4788;-0.3218;-0.1625;0.1065
0000956092;6.3638;-15.4929;3.4716;-0.3315;-0.1577;0.1059
0000956104;6.1866;-15.7084;3.4357;-0.3348;-0.1588;0.1062
0000956112;6.1842;-15.8448;3.4955;-0.3413;-0.1496;0.1074
0000956180;6.3111;-15.8807;3.3112;-0.4780;-0.0877;0.0747
0000956188;6.0956;-15.9454;3.2513;-0.4959;-0.0735;0.0685
0000956200;6.1196;-15.8376;3.1915;-0.5285;-0.0673;0.0513
0000956208;6.2537;-15.9885;3.1220;-0.5454;-0.0541;0.0529
0000956220;6.1794;-15.9023;2.9544;-0.5638;-0.0502;0.0330
0000956228;6.3375;-15.8712;2.9688;-0.5820;-0.0353;0.0298
0000956236;6.1148;-16.0986;2.8922;-0.5971;-0.0370;0.0085
0000956248;6.1603;-16.1034;2.8036;-0.6328;-0.0177;-0.0023
0000956256;6.2896;-16.1106;2.8132;-0.6480;-0.0164;-0.0060
0000956268;6.0094;-16.1776;2.7342;-0.6911;-0.0005;-0.0168
0000956276;6.1004;-16.2566;2.7054;-0.7099;0.0108;-0.0193
0000956288;6.1435;-16.1776;2.6121;-0.7538;0.0269;-0.0382
0000956296;6.0549;-16.1130;2.5642;-0.7918;0.0332;-0.0695
0000956308;6.2537;-16.0052;2.4038;-0.8294;0.0597;-0.0859
0000956316;6.2537;-16.0292;2.3942;-0.8366;0.0823;-0.0957
0000956328;6.1292;-16.1106;2.2386;-0.8592;0.1075;-0.1083
0000956336;6.1459;-16.0316;2.2362;-0.8752;0.1302;-0.1144
0000956344;6.0382;-16.1441;2.0925;-0.9064;0.1408;-0.1247
0000956356;6.2752;-16.1776;2.0159;-0.9276;0.1644;-0.1279
0000956364;6.3686;-16.1609;1.9824;-0.9398;0.1715;-0.1187
0000956376;6.3614;-16.2159;1.8172;-0.9871;0.1736;-0.1182
0000956384;6.3159;-16.4099;1.6568;-1.0100;0.1763;-0.1011
0000956452;6.6200;-15.9765;0.9290;-1.2039;0.0765;-0.1427
0000956460;6.6008;-15.8329;0.6943;-1.2371;0.0593;-0.1427
0000956472;6.4093;-15.8424;0.6536;-1.2737;0.0544;-0.1491
0000956480;6.5769;-15.5168;0.3496;-1.2805;0.0679;-0.1532
0000956492;6.5290;-15.1266;0.3065;-1.2774;0.0675;-0.1767
0000956500;6.4308;-15.0787;0.3735;-1.2760;0.0779;-0.1648
0000956508;6.4452;-14.8728;0.2849;-1.2680;0.0959;-0.1488
0000956520;6.2991;-14.9255;0.1460;-1.2573;0.1102;-0.1334
0000956528;6.3805;-14.9470;0.2203;-1.2454;0.1091;-0.1375
0000956540;6.7157;-14.9183;0.0814;-1.2191;0.0927;-0.1162
0000956548;6.9216;-15.0069;0.0575;-1.1910;0.0879;-0.0849
0000956560;7.1467;-15.2463;0.0120;-1.1618;0.0608;-0.0282
0000956568;7.5346;-15.2080;-0.1844;-1.1485;0.0326;0.0072
0000956580;7.4795;-15.3660;-0.3663;-1.1387;-0.0168;0.0374
0000956588;7.7261;-15.2630;-0.3184;-1.1044;-0.0650;0.0366
0000956600;7.4843;-14.9781;-0.4621;-1.0773;-0.1302;0.0330
0000956608;7.3119;-14.8081;-0.5387;-1.0588;-0.1833;0.0294
0000956616;6.7588;-14.6286;-0.8906;-1.0459;-0.2192;0.0266
0000956628;6.4212;-14.2766;-0.8882;-0.9721;-0.2617;0.0215
0000956636;6.0071;-14.1689;-0.8906;-0.9206;-0.2801;0.0092
0000956648;5.8155;-14.3221;-0.9720;-0.8745;-0.2894;-0.0053
0000956656;5.7724;-14.2144;-0.9050;-0.8470;-0.2790;-0.0071
0000956725;6.7612;-14.2623;-1.0702;-0.8282;-0.1041;0.0000
0000956734;6.4428;-14.2862;-1.1708;-0.8158;-0.0722;0.0248
0000956747;6.3997;-13.9726;-1.4413;-0.7777;-0.0640;0.0357
0000956756;6.1052;-14.0851;-1.6664;-0.7428;-0.0528;0.0438
0000956768;6.1196;-14.1234;-1.6999;-0.6799;-0.0637;0.0188
0000956777;6.5481;-14.1378;-1.6520;-0.6387;-0.0729;-0.0091
0000956790;6.3494;-14.6860;-1.8411;-0.6111;-0.0925;-0.0413
0000956799;6.6894;-14.7339;-1.7478;-0.5934;-0.0987;-0.0506
0000956812;7.0605;-14.8560;-2.0375;-0.5668;-0.1120;-0.0376
0000956821;7.1228;-14.7746;-2.0016;-0.5585;-0.0959;-0.0217
0000956830;7.0126;-14.5472;-1.9010;-0.5197;-0.0761;-0.0116
0000956843;6.2177;-14.6429;-2.0973;-0.4919;-0.0791;-0.0525
0000956852;5.9711;-14.3796;-1.7119;-0.4517;-0.0542;-0.0954
0000956865;5.6024;-14.2742;-1.8938;-0.3643;-0.0316;-0.1888
0000956874;5.7940;-14.1880;-1.7789;-0.3086;-0.0201;-0.2437
0000956887;6.0118;-14.1210;-2.0758;-0.2627;0.0135;-0.2527
0000956896;6.6008;-14.2814;-2.2434;-0.2180;0.0440;-0.2157
0000956909;7.0916;-14.3676;-2.3798;-0.2069;0.0905;-0.1142
0000956918;7.1682;-14.5663;-2.1596;-0.1665;0.0938;-0.0424
0000956931;7.1371;-14.4706;-2.2434;-0.1511;0.0801;0.0520
0000956940;6.9264;-14.3892;-2.0518;-0.1057;0.0424;0.0881
0000957009;6.6104;-14.5376;-2.4565;0.1529;-0.1123;0.1338
0000957018;5.9185;-14.4418;-2.1548;0.2108;-0.0637;0.0508
0000957027;4.9057;-14.6549;-1.7765;0.2341;0.0029;-0.0373
0000957040;3.8642;-14.9446;-1.6041;0.2666;0.1206;-0.1707
0000957049;3.5937;-14.7818;-1.6281;0.2515;0.2120;-0.2224
0000957062;4.1396;-14.7890;-2.0590;0.2156;0.3343;-0.2369
0000957071;4.9560;-14.9398;-2.5091;0.1907;0.4078;-0.2132
0000957084;6.2441;-15.4474;-2.7629;0.1711;0.4322;-0.1787
0000957093;7.4268;-15.8161;-2.7869;0.1611;0.3984;-0.1605
0000957106;8.4827;-15.6653;-1.9680;0.1872;0.2912;-0.1267
0000957115;9.0980;-15.5767;-1.9896;0.2531;0.1952;-0.1007
0000957128;9.1530;-15.0188;-1.8866;0.3517;0.0576;-0.0452
0000957137;8.6263;-14.8991;-1.8723;0.4293;-0.0234;0.0120
0000957146;7.7979;-14.7531;-2.0758;0.5020;-0.0883;0.0561
0000957159;6.7516;-15.0691;-2.4157;0.5776;-0.1311;0.1146
0000957168;5.9017;-15.3827;-2.0686;0.5868;-0.1248;0.1286
0000957181;4.7166;-15.9262;-1.5682;0.5510;-0.1025;0.0871
0000957190;4.6256;-15.7730;-1.1492;0.5136;-0.0734;0.0161
0000957206;5.6455;-14.8273;-0.9625;0.4455;0.0408;-0.0621
0000957215;6.3351;-14.4035;-1.2546;0.4491;0.1162;-0.0898
0000957284;7.7548;-15.8807;-1.6855;0.8303;0.1992;0.0064
0000957293;8.7269;-16.1321;-1.4868;0.9249;0.0805;0.0901
0000957302;9.7229;-16.2614;-1.3384;1.0130;-0.0469;0.2004
0000957314;10.8290;-16.4673;-0.9912;1.1146;-0.2545;0.3090
0000957323;10.8888;-16.3931;-0.6129;1.1655;-0.3850;0.3701
0000957336;9.5864;-16.6924;-0.4932;1.1636;-0.5372;0.3898
0000957345;7.9224;-16.9222;-0.3184;1.1398;-0.6277;0.3673
0000957357;6.5003;-16.9390;-0.1317;1.1129;-0.7013;0.3188
0000957366;5.7509;-17.1281;-0.0455;1.0860;-0.7358;0.2876
0000957379;5.9089;-17.1592;-0.0072;1.0817;-0.7557;0.2678
0000957388;6.6607;-16.9605;0.0622;1.1198;-0.7393;0.2758
0000957400;6.8043;-17.2526;0.1077;1.1906;-0.6949;0.2731
0000957409;7.0294;-17.5232;0.3687;1.2285;-0.6654;0.2721
0000957418;6.6367;-17.8607;0.6249;1.2637;-0.6234;0.2770
0000957431;5.8873;-18.1672;0.7302;1.2333;-0.5714;0.3014
0000957440;5.6671;-18.3444;0.6967;1.1790;-0.5460;0.3107
0000957452;5.2433;-18.4306;0.9098;1.1391;-0.5096;0.3044
0000957461;5.3271;-18.3540;0.8595;1.1134;-0.4900;0.2739
0000957474;5.1787;-18.2773;0.9577;1.1107;-0.4283;0.2318
0000957483;5.2002;-18.4521;0.8380;1.1159;-0.3872;0.1905
0000957495;5.2960;-18.2606;1.0678;1.1258;-0.3202;0.1581
0000957504;5.2960;-18.7107;1.4461;1.1313;-0.2750;0.1500
0000957513;5.4755;-18.9693;1.5347;1.1277;-0.2530;0.1588
0000957582;5.1475;-18.1385;2.9066;0.7486;-0.2392;0.3316
0000957591;4.9488;-18.1457;2.6121;0.7566;-0.2184;0.3036
0000957603;4.7932;-18.3180;2.6288;0.7966;-0.1901;0.2626
0000957612;4.5873;-18.6939;2.8276;0.8110;-0.1679;0.2364
0000957625;4.9632;-19.2422;2.7988;0.7885;-0.1515;0.1741
0000957634;4.9177;-19.7186;2.9951;0.7701;-0.1490;0.1307
0000957646;5.0326;-20.2334;3.3639;0.6873;-0.1402;0.0755
0000957655;5.1164;-20.4273;3.2154;0.5895;-0.1339;0.0409
0000957664;5.0566;-20.5830;3.4716;0.5015;-0.1394;0.0071
0000957677;5.4253;-20.3387;3.5123;0.3200;-0.1423;-0.0508
0000957686;5.5450;-20.1137;3.5985;0.1845;-0.1286;-0.0698
0000957698;6.2944;-19.3859;3.2825;0.0215;-0.1250;-0.0842
0000957707;6.2920;-19.0770;3.1220;-0.0773;-0.1132;-0.0845
0000957720;6.3111;-18.4473;3.0287;-0.1748;-0.1218;-0.0835
0000957729;6.3279;-18.1073;2.8754;-0.2398;-0.1334;-0.0729
0000957741;6.2249;-17.5280;2.8611;-0.2992;-0.1664;-0.0510
0000957750;6.1962;-17.0300;2.7198;-0.3312;-0.1972;-0.0330
0000957763;6.0118;-16.5272;2.4876;-0.3836;-0.2406;-0.0232
0000957772;6.1268;-15.8281;2.2458;-0.3993;-0.2659;-0.0201
0000957784;5.8730;-15.5647;2.1261;-0.4077;-0.3135;-0.0212
0000957793;6.1339;-15.1553;2.0734;-0.4130;-0.3387;-0.0216
0000957802;6.1914;-14.8991;1.9537;-0.4093;-0.3625;-0.0462
0000957871;6.6870;-14.2431;1.9609;-0.1903;-0.3078;-0.4183
0000957880;6.6607;-14.0588;2.2434;-0.1765;-0.3214;-0.5264
0000957892;6.3015;-14.0468;2.5402;-0.1359;-0.3781;-0.6460
0000957901;6.0023;-14.0061;2.5474;-0.1087;-0.4584;-0.6840
0000957914;6.2896;-13.7355;2.2984;-0.0414;-0.6403;-0.6655
0000957923;6.8761;-13.1633;1.4485;0.0262;-0.7650;-0.5953
0000957935;7.8578;-12.9143;0.1676;0.1320;-0.8877;-0.4746
0000957944;8.7221;-12.7443;-0.2346;0.2340;-0.9742;-0.4046
0000957957;9.7468;-12.6534;-0.3184;0.5051;-1.0876;-0.3042
0000957966;9.9288;-12.7276;0.0958;0.7113;-1.1377;-0.2238
0000957975;10.0437;-13.3668;0.9601;0.9935;-1.1350;-0.0969
0000957987;9.1889;-15.0476;2.5450;1.2408;-1.0688;0.0778
0000957996;8.3701;-16.3261;3.3495;1.2393;-1.0114;0.1803
0000958009;6.7181;-17.4681;3.4716;1.0381;-0.9908;0.2250
0000958018;6.0334;-17.5902;3.3806;0.8063;-0.9880;0.1809
0000958030;5.4468;-17.1712;2.8778;0.5428;-1.0210;0.0033
0000958039;5.2289;-16.5272;2.4876;0.4319;-1.0531;-0.1645
0000958052;5.6336;-15.3780;1.7861;0.4787;-1.0986;-0.4194
0000958061;5.8778;-14.9255;1.7693;0.6195;-1.1026;-0.5442
0000958073;6.6990;-14.5376;1.8651;0.8263;-1.0710;-0.6077
0000958082;7.0294;-14.7674;1.9130;0.9586;-1.0204;-0.6017
0000958091;7.3430;-15.2343;2.2338;1.0155;-0.9454;-0.5678
0000958159;5.5929;-17.0395;3.0263;0.8673;-0.5800;-0.3876
0000958168;5.3965;-17.9637;4.2593;1.1489;-0.4562;-0.3397
0000958180;4.9799;-19.4577;6.7516;1.5651;-0.3036;-0.2730
0000958189;5.0350;-20.3914;7.3406;1.6125;-0.2266;-0.1739
0000958202;5.7221;-20.0826;7.3789;1.2235;-0.1879;-0.0494
0000958211;6.1794;-18.8663;6.9097;0.7753;-0.1587;-0.0024
0000958223;6.2513;-17.2957;5.8419;0.3268;-0.1154;0.0207
0000958232;6.2728;-15.8257;5.0254;0.1462;-0.1326;-0.0032
0000958245;6.3853;-13.9582;4.2329;0.1085;-0.1789;-0.0777
0000958254;6.5386;-12.8353;4.0606;0.2368;-0.1872;-0.1475
0000958263;6.5338;-12.3948;4.1946;0.4167;-0.1470;-0.2153
0000958275;6.3327;-12.3780;4.5514;0.6735;-0.0629;-0.3103
0000958284;6.5864;-12.6174;4.7836;0.8226;0.0310;-0.3425
0000958297;6.8666;-13.4051;5.3271;0.9270;0.2153;-0.3468
0000958306;6.5027;-14.0635;5.5186;0.8946;0.3537;-0.3507
0000958318;6.6295;-14.2766;5.7030;0.7418;0.5252;-0.3696
0000958327;6.8498;-14.0540;5.6455;0.6117;0.6267;-0.4024
0000958340;7.3119;-13.7547;5.5881;0.4904;0.7056;-0.4547
0000958349;7.4316;-13.4482;5.6024;0.4796;0.7250;-0.4919
0000958358;7.7524;-13.3596;5.6743;0.5016;0.7153;-0.5281
0000958370;8.2887;-13.4530;5.5833;0.5868;0.6734;-0.5733
0000958379;8.8107;-13.4674;5.6264;0.6235;0.6420;-0.5986
0000958448;8.8370;-14.6477;6.2130;0.6065;0.4497;-0.4478
0000958457;8.6263;-14.7842;6.2130;0.5713;0.4169;-0.4173
0000958469;8.8538;-14.6358;6.1148;0.5341;0.3722;-0.3808
0000958478;9.1267;-14.8800;5.9496;0.5177;0.3292;-0.3569
0000958491;9.2249;-15.1529;5.6886;0.4886;0.2328;-0.3155
0000958500;9.6822;-14.9350;5.9879;0.4835;0.1482;-0.2883
0000958509;9.8258;-15.0332;6.1292;0.4838;0.0735;-0.2523
0000958521;10.0748;-15.1122;6.2297;0.4676;-0.0304;-0.2074
0000958530;10.2113;-15.0236;6.3351;0.4454;-0.0906;-0.1759
0000958543;9.8234;-14.8991;6.7780;0.3945;-0.1547;-0.1147
0000958552;9.4140;-14.7363;6.7301;0.3315;-0.1848;-0.0610
0000958564;9.1530;-14.5137;6.6415;0.2298;-0.2182;-0.0035
0000958573;8.9830;-14.0204;6.3590;0.1675;-0.2292;0.0155
0000958586;8.6766;-13.5536;5.9065;0.1222;-0.2009;0.0193
0000958595;8.5114;-13.3213;5.6264;0.1356;-0.1659;0.0072
0000958607;8.1355;-12.9383;5.6120;0.1700;-0.1085;-0.0183
0000958616;7.9176;-12.9311;5.7030;0.1916;-0.0550;-0.0420
0000958625;7.6782;-12.9263;5.7197;0.2162;0.0057;-0.0745
0000958638;7.4675;-12.9167;5.9089;0.2306;0.0949;-0.1108
0000958647;7.2089;-13.1178;6.1220;0.2333;0.1536;-0.1363
0000958660;7.3382;-13.3932;6.5481;0.2141;0.2170;-0.1468
0000958669;7.8219;-13.4482;6.9288;0.1887;0.2505;-0.1306
0000958739;8.9759;-13.5488;6.2896;0.0667;0.1456;0.0088
0000958748;8.5641;-13.7020;6.3470;0.0875;0.1446;0.0189
0000958761;7.8937;-13.8385;6.4165;0.1282;0.1234;0.0140
0000958770;7.5848;-13.8385;6.3925;0.1300;0.1300;0.0127
0000958779;7.5609;-13.9366;6.5864;0.1215;0.1462;-0.0161
0000958791;7.2281;-14.0492;6.5864;0.0718;0.1751;-0.0441
0000958800;7.4939;-13.9414;6.5769;0.0254;0.2060;-0.0633
0000958813;7.6495;-13.7403;6.5745;-0.0389;0.2590;-0.0682
0000958822;7.7237;-13.7188;6.4883;-0.0649;0.2843;-0.0565
0000958834;8.0685;-13.6829;6.3327;-0.0666;0.3142;-0.0340
0000958843;8.3606;-13.4195;6.2968;-0.0709;0.3367;-0.0059
0000958856;8.2791;-13.3285;6.3614;-0.0509;0.3468;0.0155
0000958865;7.9009;-13.7403;6.2848;-0.0413;0.3603;0.0361
0000958874;7.8793;-13.5679;6.4452;-0.0262;0.3521;0.0390
0000958886;7.7357;-13.7762;6.6463;-0.0180;0.3548;0.0514
0000958895;7.9918;-13.6086;6.7971;-0.0120;0.3584;0.0554
0000958908;7.8650;-13.6541;6.9312;-0.0218;0.3576;0.0605
0000958917;7.8530;-13.8529;7.0773;-0.0183;0.3395;0.0518
0000958929;8.4515;-13.7691;7.2688;-0.0196;0.3242;0.0621
0000958938;8.6622;-13.8313;7.1970;-0.0420;0.2971;0.0754
0000959007;9.1315;-13.5703;6.6535;-0.3255;-0.0593;0.2916
0000959016;8.8633;-13.6805;6.3446;-0.3519;-0.0942;0.3226
0000959025;8.6000;-13.7619;6.2441;-0.3584;-0.1230;0.3680
0000959037;8.4180;-13.7260;6.1148;-0.3701;-0.1637;0.4201
0000959046;8.3749;-13.7427;6.1268;-0.3657;-0.1895;0.4574
0000959059;8.2696;-13.7954;6.0597;-0.3648;-0.2212;0.4955
0000959068;7.9607;-14.1521;6.0908;-0.3607;-0.2435;0.5089
0000959080;7.8841;-14.2647;6.0573;-0.3648;-0.2666;0.5264
0000959089;7.7740;-14.2934;6.0094;-0.3829;-0.2839;0.5363
0000959102;7.7883;-14.4299;5.9831;-0.4278;-0.3088;0.5489
0000959111;7.6878;-14.4322;5.9592;-0.4656;-0.3211;0.5540
0000959123;7.5274;-14.0995;5.8179;-0.5251;-0.3317;0.5404
0000959132;7.2927;-13.8744;5.6719;-0.5505;-0.3255;0.5273
0000959141;7.1730;-13.4554;5.4420;-0.5432;-0.3184;0.5020
0000959154;7.0174;-13.4434;5.1882;-0.4882;-0.2986;0.4820
0000959163;6.6415;-13.4913;5.0781;-0.4335;-0.2850;0.4740
0000959175;6.5936;-13.7571;5.0039;-0.3276;-0.2739;0.4562
0000959184;6.1076;-14.1473;5.1475;-0.2689;-0.2406;0.4489
0000959197;5.9927;-14.5735;5.3941;-0.2268;-0.2084;0.4182
0000959206;5.9592;-14.8728;5.4372;-0.2394;-0.1840;0.3937
0000959218;6.1411;-14.8704;5.5641;-0.2988;-0.1436;0.3611
0000959227;5.8897;-15.2726;5.5976;-0.3513;-0.1160;0.3327
0000959296;5.5426;-13.4674;4.6376;-0.2106;0.0978;0.1484
0000959305;5.7102;-13.4147;4.4508;-0.1343;0.1200;0.1310
0000959314;5.7245;-13.8361;4.4556;-0.0730;0.1454;0.1152
0000959326;5.8538;-14.2383;4.4245;0.0005;0.1693;0.0951
0000959335;5.9448;-14.7698;4.6424;0.0384;0.1828;0.0690
0000959348;6.0406;-14.9925;4.8530;0.0314;0.2102;0.0428
0000959357;6.1100;-15.3013;5.0230;0.0039;0.2241;0.0300
0000959369;6.5242;-15.1002;5.0709;-0.0524;0.2382;0.0228
0000959378;6.4117;-15.0787;4.9943;-0.0949;0.2406;0.0065
0000959387;6.7397;-14.6789;5.0996;-0.1155;0.2370;0.0033
0000959400;6.8642;-14.2263;4.9991;-0.1210;0.2238;-0.0135
0000959409;7.0102;-13.8936;5.0278;-0.1011;0.2061;-0.0294
0000959421;6.8857;-13.7882;5.0733;-0.0513;0.1788;-0.0564
0000959430;6.7516;-13.7044;5.1930;0.0001;0.1639;-0.0758
0000959443;6.5864;-13.8792;5.2002;0.0669;0.1480;-0.1013
0000959452;6.4739;-13.9893;5.2768;0.1037;0.1348;-0.1206
0000959464;6.7397;-14.0947;5.2888;0.1342;0.1320;-0.1272
0000959473;6.6463;-14.2431;5.3774;0.1319;0.1278;-0.1175
0000959486;6.7924;-14.3939;5.4061;0.1156;0.1292;-0.0955
0000959495;7.1347;-14.5113;5.4013;0.1010;0.1095;-0.0849
0000959504;7.2018;-14.4562;5.4995;0.0843;0.0871;-0.0675
0000959516;7.2281;-14.4682;5.5737;0.0714;0.0592;-0.0561
0000959525;7.1970;-14.4370;5.4779;0.0558;0.0388;-0.0493
0000959594;6.6702;-14.6166;5.5881;0.1243;-0.0990;-0.0861
0000959603;6.2632;-14.8417;5.5761;0.1115;-0.0923;-0.0850
0000959615;6.3877;-14.8057;5.5522;0.0761;-0.0783;-0.0862
0000959624;6.3686;-14.5998;5.5043;0.0522;-0.0678;-0.0907
0000959637;6.4332;-14.4634;5.4420;0.0273;-0.0540;-0.0947
0000959646;6.3111;-14.5113;5.4372;0.0226;-0.0429;-0.1014
0000959655;6.3542;-14.4370;5.4684;0.0264;-0.0381;-0.1059
0000959667;6.5697;-14.2886;5.5067;0.0370;-0.0376;-0.1062
0000959676;6.4069;-14.4586;5.5091;0.0478;-0.0448;-0.1172
0000959689;6.6511;-14.4490;5.5881;0.0585;-0.0402;-0.1182
0000959698;6.8091;-14.4706;5.5282;0.0565;-0.0382;-0.1180
0000959710;6.8690;-14.5208;5.5857;0.0489;-0.0478;-0.1159
0000959719;6.9959;-14.4849;5.6431;0.0392;-0.0520;-0.1124
0000959732;7.0509;-14.3317;5.5809;0.0248;-0.0674;-0.1104
0000959741;6.8690;-14.4777;5.7174;0.0294;-0.0758;-0.1148
0000959753;6.9647;-14.2910;5.5785;0.0233;-0.0846;-0.1124
0000959762;6.9240;-14.3101;5.6527;0.0258;-0.0823;-0.1106
0000959771;6.9312;-14.2240;5.6000;0.0328;-0.0846;-0.1114
0000959784;6.8785;-14.2503;5.6671;0.0332;-0.0866;-0.1087
0000959793;6.7157;-14.3030;5.6503;0.0218;-0.0794;-0.1039
0000959805;6.6990;-14.3580;5.6455;0.0211;-0.0725;-0.0962
0000959814;6.9073;-14.2096;5.7102;0.0240;-0.0773;-0.1042
0000959883;7.2353;-14.2407;5.4971;0.0348;-0.0530;-0.0783
0000959892;7.2353;-14.2527;5.6144;0.0286;-0.0517;-0.0715
0000959904;7.3358;-14.1042;5.6360;0.0290;-0.0622;-0.0678
0000959913;7.1754;-14.2694;5.5665;0.0236;-0.0548;-0.0610
0000959926;7.2042;-14.2216;5.6288;0.0269;-0.0621;-0.0532
0000959935;6.9336;-14.3676;5.6096;0.0321;-0.0725;-0.0560
0000959944;7.0677;-14.3892;5.5761;0.0290;-0.0703;-0.0529
0000959956;7.0557;-14.3341;5.6719;0.0250;-0.0753;-0.0513
0000959965;6.8450;-14.5160;5.6886;0.0164;-0.0675;-0.0469
0000959978;6.9839;-14.3987;5.7197;0.0067;-0.0689;-0.0412
0000959987;6.9815;-14.5041;5.7102;0.0029;-0.0699;-0.0397
0000959999;7.1611;-14.2551;5.7174;-0.0047;-0.0650;-0.0349
0000960008;7.0988;-14.3101;5.7174;-0.0112;-0.0596;-0.0278
0000960021;6.9623;-14.2766;5.6360;-0.0175;-0.0622;-0.0238
0000960030;6.9983;-14.2694;5.6623;-0.0131;-0.0653;-0.0249
0000960042;7.0581;-14.1114;5.6982;-0.0132;-0.0652;-0.0282
0000960051;6.9983;-14.2335;5.5761;-0.0157;-0.0580;-0.0228
0000960060;6.9839;-14.1497;5.7126;-0.0137;-0.0582;-0.0278
0000960073;6.9336;-14.3413;5.6695;-0.0083;-0.0540;-0.0324
0000960082;7.0413;-14.1928;5.5689;-0.0052;-0.0446;-0.0281
0000960094;6.8929;-14.2718;5.6431;-0.0077;-0.0416;-0.0218
0000960103;7.0390;-14.3077;5.6216;-0.0088;-0.0397;-0.0261
0000960173;7.0342;-14.3532;5.5809;-0.0390;-0.0421;0.0007
0000960182;7.1299;-14.1521;5.5067;-0.0321;-0.0477;-0.0029
0000960195;6.9839;-14.1928;5.5545;-0.0226;-0.0357;0.0031
0000960204;7.0749;-14.2240;5.5474;-0.0115;-0.0418;-0.0019
0000960216;7.0390;-14.1928;5.6048;0.0023;-0.0410;-0.0048
0000960225;7.0629;-14.3006;5.6096;0.0017;-0.0317;0.0004
0000960238;7.0342;-14.3269;5.5450;0.0021;-0.0312;0.0072
0000960247;7.1994;-14.2144;5.6599;0.0031;-0.0304;-0.0003
0000960256;7.1467;-14.2072;5.5713;-0.0016;-0.0268;0.0024
0000960268;6.9576;-14.4418;5.5354;-0.0085;-0.0274;0.0021
0000960277;6.8259;-14.5065;5.6144;-0.0133;-0.0224;-0.0009
0000960290;6.9887;-14.1425;5.6360;-0.0175;-0.0188;0.0000
0000960299;7.1491;-14.1282;5.5689;-0.0155;-0.0199;-0.0024
0000960311;6.9528;-14.3939;5.6120;-0.0041;-0.0234;-0.0115
0000960320;6.8761;-14.3389;5.6312;-0.0039;-0.0201;-0.0163
0000960333;6.9599;-14.3868;5.5952;-0.0027;-0.0145;-0.0117
0000960342;7.0437;-14.2192;5.5617;-0.0028;-0.0183;-0.0151
0000960354;6.9815;-14.4155;5.6407;-0.0048;-0.0137;-0.0123
0000960363;7.0533;-14.2982;5.6024;-0.0133;-0.0072;-0.0040
0000960372;7.0246;-14.3197;5.6120;-0.0104;-0.0165;-0.0128
0000960385;6.9599;-14.2910;5.6096;-0.0139;-0.0081;-0.0064
0000960394;6.9528;-14.2168;5.5952;-0.0149;-0.0072;-0.0116
0000960463;6.9216;-14.4275;5.6886;-0.0406;0.0144;-0.0056
0000960472;7.0988;-14.2024;5.6623;-0.0409;0.0131;-0.0119
0000960485;6.9121;-14.2838;5.6695;-0.0402;0.0203;-0.0009
0000960494;7.0964;-14.2886;5.5929;-0.0420;0.0220;0.0040
0000960506;7.1898;-14.1737;5.6527;-0.0304;0.0143;0.0075
0000960515;7.4460;-14.0659;5.6336;-0.0348;0.0157;0.0246
0000960528;7.2257;-14.1641;5.6096;-0.0313;-0.0020;0.0289
0000960537;7.1060;-14.4610;5.5857;-0.0248;-0.0253;0.0272
0000960546;7.2568;-14.2335;5.5617;-0.0350;-0.0313;0.0345
0000960558;7.2161;-14.2551;5.5306;-0.0302;-0.0538;0.0313
0000960567;6.9384;-14.4035;5.5641;-0.0204;-0.0665;0.0338
0000960580;6.8666;-14.3149;5.4947;-0.0147;-0.0745;0.0366
0000960589;7.0126;-14.1378;5.4540;-0.0049;-0.0837;0.0365
0000960601;6.9456;-14.2718;5.4444;-0.0055;-0.0809;0.0414
0000960610;7.0390;-14.1833;5.4708;0.0055;-0.0843;0.0298
0000960623;6.8618;-14.2790;5.4803;0.0056;-0.0713;0.0284
0000960632;6.9073;-14.3892;5.5522;0.0052;-0.0701;0.0284
0000960641;6.9528;-14.1785;5.3965;-0.0112;-0.0674;0.0320
0000960653;6.9623;-14.2455;5.4731;-0.0120;-0.0670;0.0356
0000960662;6.9145;-14.2886;5.4133;-0.0144;-0.0641;0.0386
0000960675;6.7109;-14.2814;5.5043;-0.0060;-0.0790;0.0388
0000960684;6.8570;-14.1785;5.4109;0.0009;-0.0790;0.0364
0000960754;6.7876;-14.1569;5.5138;0.0329;-0.0493;-0.0060
0000960763;6.5050;-14.4155;5.4636;0.0314;-0.0424;0.0005
0000960776;6.8163;-14.3101;5.5234;0.0369;-0.0421;-0.0049
0000960785;6.9336;-14.1737;5.5593;0.0346;-0.0452;-0.0103
0000960797;6.9360;-14.3413;5.6623;0.0482;-0.0592;-0.0244
0000960806;6.8091;-14.3868;5.6958;0.0420;-0.0538;-0.0245
0000960815;6.9911;-14.2287;5.7509;0.0461;-0.0653;-0.0322
0000960828;6.8235;-14.3772;5.7628;0.0372;-0.0622;-0.0358
0000960837;6.8570;-14.3317;5.8730;0.0143;-0.0434;-0.0284
0000960849;6.7014;-14.4275;5.8347;-0.0039;-0.0308;-0.0364
0000960858;6.8235;-14.3101;5.7700;-0.0095;-0.0248;-0.0550
0000960871;6.8139;-14.1928;5.8849;-0.0273;-0.0167;-0.0637
0000960880;6.6655;-14.2431;5.8371;-0.0324;-0.0105;-0.0622
0000960892;6.8091;-14.1569;5.7916;-0.0354;-0.0089;-0.0737
0000960901;6.8546;-14.0731;5.7748;-0.0204;-0.0179;-0.0866
0000960914;6.9049;-14.1330;5.7557;-0.0055;-0.0230;-0.0843
0000960923;6.9192;-14.1162;5.8347;-0.0008;-0.0207;-0.0797
0000960935;7.1036;-14.2263;5.8251;0.0100;-0.0253;-0.0767
0000960944;7.0749;-14.2527;5.7437;0.0045;-0.0250;-0.0654
0000960953;7.0629;-14.3293;5.8251;-0.0063;-0.0192;-0.0476
0000960966;6.9935;-14.4322;5.8442;-0.0288;-0.0236;-0.0390
0000960975;6.8426;-14.5328;5.9328;-0.0484;-0.0172;-0.0316
0000961045;6.6319;-14.3724;5.7820;-0.0846;0.0452;-0.0982
0000961054;6.8642;-14.1521;5.7269;-0.1037;0.0632;-0.1043
0000961067;6.7038;-14.3437;5.6767;-0.1070;0.0719;-0.1168
0000961076;7.0006;-14.0683;5.6216;-0.1108;0.0753;-0.1180
0000961088;7.0294;-14.0611;5.5929;-0.1058;0.0846;-0.1190
0000961097;6.8091;-14.1689;5.5569;-0.0931;0.0809;-0.1223
0000961110;7.1515;-14.1402;5.5378;-0.0783;0.0703;-0.1266
0000961119;7.0868;-14.1066;5.4612;-0.0758;0.0727;-0.1182
0000961128;7.0461;-14.4131;5.4109;-0.0723;0.0658;-0.1158
0000961140;7.2520;-14.2431;5.5162;-0.0725;0.0502;-0.1146
0000961149;7.2185;-14.3221;5.4588;-0.0847;0.0462;-0.1081
0000961162;7.1204;-14.2934;5.5234;-0.0871;0.0349;-0.1034
0000961171;7.2496;-14.2862;5.5378;-0.0886;0.0285;-0.1026
0000961183;7.2880;-14.1569;5.5378;-0.0801;0.0195;-0.0967
0000961192;7.2903;-14.1497;5.5569;-0.0654;0.0024;-0.0967
0000961205;7.3358;-14.3485;5.4660;-0.0578;-0.0031;-0.0886
0000961214;7.4364;-14.2886;5.5976;-0.0588;-0.0035;-0.0785
0000961226;7.2975;-14.2575;5.5162;-0.0545;-0.0088;-0.0723
0000961235;7.2951;-14.3724;5.4971;-0.0489;-0.0164;-0.0695
0000961244;7.2999;-14.3125;5.5929;-0.0568;-0.0209;-0.0605
0000961257;7.4077;-14.2335;5.6144;-0.0609;-0.0318;-0.0544
0000961266;7.4268;-14.3939;5.5186;-0.0641;-0.0386;-0.0449
0000961336;7.1347;-14.6166;5.5426;-0.0089;-0.0941;0.0100
0000961345;7.1587;-14.5783;5.4540;-0.0289;-0.0873;0.0195
0000961358;7.3502;-14.3508;5.5067;-0.0404;-0.0894;0.0248
0000961367;7.1132;-14.2599;5.5138;-0.0464;-0.0879;0.0294
0000961379;7.1946;-14.1761;5.4588;-0.0396;-0.0937;0.0236
0000961388;7.1395;-14.1306;5.4444;-0.0369;-0.0910;0.0310
0000961401;7.0437;-14.1521;5.4899;-0.0205;-0.0978;0.0269
0000961410;7.0174;-14.0875;5.4157;-0.0049;-0.0965;0.0269
0000961419;6.8714;-14.2958;5.4947;0.0003;-0.0981;0.0173
0000961431;6.9887;-14.1521;5.4396;0.0053;-0.0962;0.0127
0000961440;6.8283;-14.4490;5.3798;0.0028;-0.0870;0.0164
0000961453;6.9815;-14.1856;5.4277;0.0039;-0.0881;0.0045
0000961462;6.9504;-14.2982;5.3798;0.0003;-0.0757;0.0048
0000961474;6.8546;-14.3461;5.3582;0.0044;-0.0695;0.0056
0000961483;6.9839;-14.3054;5.4444;0.0068;-0.0644;0.0037
0000961496;6.9336;-14.3197;5.4085;0.0113;-0.0526;0.0024
0000961505;6.9336;-14.3604;5.4851;0.0109;-0.0418;0.0053
0000961514;7.1299;-14.2479;5.4923;0.0103;-0.0370;0.0059
0000961526;7.0629;-14.6046;5.4372;0.0049;-0.0342;0.0104
0000961535;7.0605;-14.5304;5.4468;0.0056;-0.0292;0.0093
0000961548;6.9935;-14.5017;5.4971;-0.0043;-0.0306;0.0083
0000961557;6.8546;-14.6262;5.3941;-0.0148;-0.0246;0.0105
0000961627;6.7636;-14.3939;5.6264;0.0318;-0.0127;0.0009
0000961636;7.0988;-14.2120;5.5450;0.0312;-0.0112;0.0012
0000961650;6.7636;-14.3724;5.5474;0.0296;-0.0181;-0.0068
0000961659;7.0246;-14.2766;5.6120;0.0212;-0.0113;-0.0037
0000961668;7.0581;-14.2455;5.6168;0.0199;-0.0238;-0.0069
0000961681;6.9647;-14.3293;5.6192;0.0095;-0.0084;-0.0077
0000961690;6.9528;-14.3963;5.6096;0.0116;-0.0205;-0.0149
0000961702;6.8881;-14.3365;5.6407;0.0053;-0.0107;-0.0145
0000961711;6.8785;-14.3604;5.5713;0.0051;-0.0081;-0.0145
0000961724;7.1467;-14.2240;5.6144;0.0095;-0.0088;-0.0165
0000961733;6.9528;-14.4873;5.6096;0.0013;0.0008;-0.0136
0000961745;7.1299;-14.2838;5.5809;0.0068;-0.0121;-0.0181
0000961754;6.9408;-14.3963;5.5162;-0.0023;-0.0120;-0.0144
0000961767;7.0078;-14.3556;5.5210;-0.0009;-0.0238;-0.0184
0000961776;6.9695;-14.2287;5.6000;0.0001;-0.0224;-0.0108
0000961785;7.0390;-14.2359;5.5138;0.0103;-0.0334;-0.0132
0000961797;7.2377;-14.1809;5.4923;0.0069;-0.0336;-0.0129
0000961806;7.2185;-14.2766;5.4755;0.0133;-0.0404;-0.0167
0000961819;7.1323;-14.2527;5.5545;0.0157;-0.0480;-0.0151
0000961828;7.0413;-14.3413;5.4923;0.0113;-0.0438;-0.0103
0000961840;6.9001;-14.4634;5.5785;0.0049;-0.0480;-0.0175
0000961849;6.8666;-14.3772;5.6096;0.0037;-0.0498;-0.0159
0000961918;6.8546;-14.4634;5.6000;-0.0017;-0.0638;-0.0250
0000961927;7.0677;-14.2431;5.6551;0.0017;-0.0638;-0.0288
0000961939;6.9504;-14.3101;5.6168;-0.0049;-0.0598;-0.0326
0000961948;7.0078;-14.2455;5.6120;-0.0137;-0.0536;-0.0276
0000961957;6.9432;-14.2718;5.6168;-0.0253;-0.0502;-0.0246
0000961970;7.1970;-14.1880;5.6814;-0.0354;-0.0500;-0.0226
0000961979;6.9887;-14.1569;5.6336;-0.0354;-0.0478;-0.0242
0000961991;6.9695;-14.1761;5.6192;-0.0400;-0.0436;-0.0284
0000962000;6.9192;-14.1856;5.6790;-0.0432;-0.0458;-0.0353
0000962013;7.0437;-14.2766;5.6455;-0.0440;-0.0357;-0.0316
0000962022;7.1395;-14.2048;5.5665;-0.0414;-0.0369;-0.0334
0000962034;7.0054;-14.2862;5.5641;-0.0358;-0.0346;-0.0348
0000962043;7.0366;-14.2766;5.5881;-0.0394;-0.0305;-0.0272
0000962056;7.2185;-14.1880;5.4420;-0.0401;-0.0269;-0.0280
0000962065;7.0390;-14.3221;5.5378;-0.0433;-0.0266;-0.0300
0000962077;7.2951;-14.3413;5.5522;-0.0445;-0.0300;-0.0261
0000962086;7.0988;-14.4945;5.5354;-0.0466;-0.0393;-0.0254
0000962095;7.0797;-14.2958;5.5450;-0.0542;-0.0353;-0.0230
0000962108;7.1012;-14.4203;5.5761;-0.0512;-0.0429;-0.0229
0000962117;7.2640;-14.2551;5.4612;-0.0469;-0.0520;-0.0180
0000962129;7.0342;-14.3676;5.4372;-0.0448;-0.0582;-0.0181
0000962138;7.1587;-14.2790;5.5162;-0.0400;-0.0598;-0.0096
0000962207;7.3861;-14.5137;5.5067;-0.0512;-0.0769;-0.0115
0000962216;7.4915;-14.4442;5.4061;-0.0705;-0.0827;0.0064
0000962228;7.5561;-14.4203;5.6000;-0.0805;-0.0922;0.0317
0000962237;7.4292;-14.1737;5.4851;-0.0758;-0.0934;0.0550
0000962250;7.1539;-14.2168;5.5210;-0.0669;-0.0957;0.0630
0000962259;6.9959;-14.1761;5.5354;-0.0602;-0.0890;0.0695
0000962271;7.0078;-14.1904;5.6048;-0.0418;-0.0862;0.0560
0000962280;7.0198;-14.2670;5.5330;-0.0297;-0.0746;0.0554
0000962289;7.0509;-14.2120;5.5450;-0.0165;-0.0681;0.0377
0000962302;7.1994;-14.2527;5.5474;-0.0285;-0.0445;0.0384
0000962311;7.0533;-14.3892;5.5617;-0.0365;-0.0416;0.0294
0000962323;7.0677;-14.3149;5.5952;-0.0596;-0.0173;0.0409
0000962332;7.0988;-14.2311;5.6407;-0.0670;-0.0096;0.0388
0000962345;6.9312;-14.1737;5.5569;-0.0614;0.0027;0.0506
0000962354;6.9432;-14.2814;5.5713;-0.0450;0.0000;0.0466
0000962366;6.8498;-14.2838;5.5857;-0.0264;0.0097;0.0500
0000962375;6.9049;-14.3173;5.4947;-0.0215;0.0260;0.0498
0000962384;6.9456;-14.4227;5.5522;-0.0139;0.0265;0.0360
0000962397;6.7852;-14.5544;5.4540;-0.0183;0.0329;0.0290
0000962406;6.8642;-14.5137;5.4923;-0.0388;0.0437;0.0310
0000962418;6.6870;-14.4753;5.5067;-0.0496;0.0537;0.0292
0000962427;6.7636;-14.6310;5.5067;-0.0486;0.0516;0.0197
0000962496;6.9528;-14.4466;5.3582;-0.0059;0.0502;0.0200
0000962505;7.1323;-14.4059;5.3822;-0.0076;0.0305;0.0180
0000962517;6.9719;-14.4227;5.3726;-0.0213;0.0188;0.0288
0000962526;7.1635;-14.3652;5.5258;-0.0242;0.0115;0.0220
0000962535;7.1204;-14.2742;5.5138;-0.0260;0.0059;0.0204
0000962548;7.0725;-14.2766;5.4109;-0.0188;-0.0047;0.0167
0000962557;6.9935;-14.2431;5.3582;-0.0183;0.0021;0.0211
0000962569;7.0940;-14.1856;5.3175;-0.0041;0.0008;0.0207
0000962578;7.1132;-14.3796;5.3654;0.0053;-0.0115;0.0207
0000962591;7.0006;-14.2575;5.4372;0.0143;-0.0161;0.0216
0000962600;6.8378;-14.4825;5.4133;0.0101;-0.0213;0.0253
0000962612;7.0533;-14.3197;5.5210;0.0032;-0.0228;0.0293
0000962621;6.8738;-14.4849;5.4109;0.0011;-0.0276;0.0193
0000962630;6.7612;-14.5376;5.4947;-0.0097;-0.0278;0.0236
0000962643;6.8690;-14.2790;5.4636;-0.0069;-0.0261;0.0183
0000962652;6.9647;-14.2694;5.4564;0.0049;-0.0334;0.0115
0000962664;6.9288;-14.1928;5.5282;0.0120;-0.0342;0.0032
0000962673;6.7756;-14.3317;5.5498;0.0077;-0.0248;0.0117
0000962686;6.7253;-14.3485;5.5138;0.0140;-0.0250;0.0036
0000962695;6.7181;-14.4059;5.5138;0.0069;-0.0216;0.0027
0000962707;6.5434;-14.4634;5.5809;-0.0024;-0.0180;0.0049
0000962716;6.7708;-14.4322;5.5258;0.0033;-0.0260;-0.0048
0000962785;6.8546;-14.4322;5.4755;0.0143;-0.0293;-0.0152
0000962794;6.8402;-14.3676;5.4731;0.0165;-0.0349;-0.0173
0000962803;6.7900;-14.3987;5.5378;0.0144;-0.0393;-0.0229
0000962815;6.9839;-14.4203;5.4588;0.0085;-0.0456;-0.0281
0000962824;6.7995;-14.4562;5.5402;0.0007;-0.0408;-0.0230
0000962837;6.7086;-14.5160;5.6096;-0.0039;-0.0445;-0.0238
0000962846;7.0820;-14.2718;5.5881;-0.0051;-0.0516;-0.0301
0000962858;6.8307;-14.3461;5.5234;-0.0101;-0.0493;-0.0328
0000962867;6.7636;-14.4131;5.4875;-0.0079;-0.0533;-0.0402
0000962880;6.7708;-14.3341;5.4540;0.0000;-0.0462;-0.0441
0000962889;6.7852;-14.3101;5.5641;0.0063;-0.0446;-0.0416
0000962901;6.8881;-14.2048;5.5593;0.0097;-0.0457;-0.0448
0000962910;6.8091;-14.2766;5.5593;0.0100;-0.0412;-0.0461
0000962919;6.7588;-14.3365;5.5306;0.0167;-0.0441;-0.0524
0000962932;6.8905;-14.4346;5.5713;0.0095;-0.0385;-0.0477
0000962941;6.8019;-14.3413;5.5617;0.0041;-0.0416;-0.0465
0000962953;6.7804;-14.4610;5.5234;0.0111;-0.0506;-0.0496
0000962962;6.9336;-14.2886;5.6336;0.0033;-0.0521;-0.0504
0000962975;6.9743;-14.1928;5.5306;0.0067;-0.0550;-0.0474
0000962984;6.7684;-14.4346;5.6144;0.0077;-0.0550;-0.0465
0000962996;6.9623;-14.3868;5.6527;0.0073;-0.0632;-0.0408
0000963005;6.9791;-14.3101;5.6479;0.0075;-0.0666;-0.0437
0000963073;6.9001;-14.2982;5.5450;-0.0306;-0.0663;-0.0372
0000963080;6.8163;-14.2263;5.6048;-0.0221;-0.0706;-0.0444
0000963088;6.8570;-14.3245;5.5186;-0.0226;-0.0711;-0.0361
0000963100;6.8426;-14.3580;5.4923;-0.0123;-0.0729;-0.0460
0000963108;7.0461;-14.3508;5.6024;-0.0044;-0.0842;-0.0452
0000963119;6.8354;-14.4107;5.4875;-0.0056;-0.0769;-0.0484
0000963127;7.0246;-14.4059;5.6168;0.0065;-0.0793;-0.0501
0000963139;6.9360;-14.4251;5.6647;0.0016;-0.0723;-0.0453
0000963147;6.8977;-14.3772;5.7437;-0.0031;-0.0610;-0.0440
0000963158;7.0078;-14.3892;5.7341;-0.0091;-0.0582;-0.0426
0000963166;6.8139;-14.4993;5.6719;-0.0236;-0.0514;-0.0456
0000963178;7.0294;-14.2862;5.6647;-0.0385;-0.0398;-0.0397
