time;acc_x;acc_y;acc_z;gyro_x;gyro_y;gyro_z
0000929008;6.0741;-16.0962;1.1037;-0.0221;-0.0983;0.0047
0000929016;6.2513;-16.0124;1.1037;-0.0089;-0.1039;-0.0055
0000929023;6.2944;-16.1058;1.1684;-0.0144;-0.1030;-0.0036
0000929031;6.1818;-16.1728;1.0702;-0.0217;-0.0945;-0.0009
0000929098;6.1627;-16.1106;1.1684;-0.0212;-0.0847;-0.0155
0000929106;6.1699;-16.1680;1.2186;-0.0218;-0.0771;-0.0119
0000929118;6.2249;-16.0076;1.1349;-0.0220;-0.0729;-0.0147
0000929126;6.2728;-16.1369;1.1660;-0.0269;-0.0669;-0.0113
0000929137;6.2752;-16.0795;1.1660;-0.0252;-0.0586;-0.0199
0000929145;6.2776;-16.1656;1.0989;-0.0308;-0.0433;-0.0167
0000929153;6.4332;-16.2064;1.1229;-0.0225;-0.0410;-0.0176
0000929165;6.3686;-16.1992;1.1181;-0.0278;-0.0289;-0.0129
0000929173;6.2656;-16.1537;1.1037;-0.0277;-0.0141;-0.0228
0000929184;6.3829;-16.0986;1.0295;-0.0228;-0.0037;-0.0220
0000929192;6.3422;-16.1441;1.0271;-0.0257;-0.0015;-0.0276
0000929204;6.3159;-16.1968;1.0271;-0.0256;0.0043;-0.0329
0000929212;6.3422;-16.0675;1.0343;-0.0208;0.0061;-0.0345
0000929223;6.2106;-16.0459;1.0367;-0.0230;0.0199;-0.0457
0000929231;6.2752;-16.2614;1.0391;-0.0213;0.0292;-0.0388
0000929243;6.3351;-16.0459;1.0702;-0.0212;0.0408;-0.0430
0000929251;6.2632;-16.1896;1.0942;-0.0218;0.0492;-0.0456
0000929259;6.2656;-16.2423;1.1253;-0.0268;0.0561;-0.0444
0000929270;6.3063;-16.2638;1.0511;-0.0262;0.0701;-0.0426
0000929278;6.3111;-16.1920;1.0702;-0.0262;0.0759;-0.0440
0000929290;6.2896;-16.0866;1.0391;-0.0131;0.0782;-0.0498
0000929298;6.2968;-16.1106;1.1061;-0.0196;0.0874;-0.0472
0000929365;5.9975;-16.0651;1.1420;-0.0305;0.0489;-0.0636
0000929373;6.1004;-16.0675;1.2641;-0.0265;0.0384;-0.0655
0000929385;5.9879;-16.1034;1.1492;-0.0352;0.0268;-0.0586
0000929393;5.9113;-16.1249;1.2186;-0.0333;0.0188;-0.0564
0000929404;6.0238;-16.0388;1.2115;-0.0357;-0.0004;-0.0554
0000929412;6.0023;-16.1321;1.2258;-0.0432;-0.0037;-0.0508
0000929420;6.0094;-16.0914;1.1779;-0.0405;-0.0213;-0.0542
0000929432;6.1411;-16.1393;1.1947;-0.0478;-0.0282;-0.0521
0000929440;6.1699;-16.2111;1.2258;-0.0356;-0.0433;-0.0465
0000929451;6.0932;-16.2662;1.2091;-0.0326;-0.0585;-0.0461
0000929459;5.9496;-16.2734;1.1516;-0.0345;-0.0613;-0.0381
0000929471;6.0382;-16.1752;1.0846;-0.0280;-0.0746;-0.0389
0000929479;6.0956;-16.1226;1.0534;-0.0289;-0.0787;-0.0308
0000929490;6.2513;-16.2135;1.1420;-0.0282;-0.0898;-0.0233
0000929498;6.3087;-16.0100;1.0726;-0.0268;-0.0946;-0.0184
0000929510;6.1603;-16.2016;1.1372;-0.0209;-0.1022;-0.0196
0000929518;5.9400;-16.3261;1.0774;-0.0204;-0.1082;-0.0160
0000929529;6.1387;-16.1800;1.0750;-0.0230;-0.1147;-0.0127
0000929537;6.1770;-16.0819;1.0750;-0.0131;-0.1210;-0.0153
0000929545;6.1339;-16.1872;1.0654;-0.0145;-0.1235;-0.0057
0000929557;6.1363;-16.2710;1.0127;-0.0107;-0.1282;-0.0088
0000929565;6.2608;-16.2471;0.9673;-0.0068;-0.1243;-0.0021
0000929632;6.1100;-16.1297;1.0511;0.0218;-0.1224;-0.0096
0000929640;6.2896;-16.1944;0.9720;0.0171;-0.1162;-0.0088
0000929652;6.2944;-16.2040;1.1301;0.0187;-0.1236;-0.0101
0000929660;6.2489;-16.1321;1.0534;0.0265;-0.1306;-0.0109
0000929671;6.1411;-16.1321;1.0151;0.0213;-0.1230;0.0004
0000929679;6.1914;-16.1417;1.0942;0.0224;-0.1243;0.0059
0000929691;6.2632;-16.0842;1.0080;0.0280;-0.1227;0.0085
0000929699;6.2537;-16.0795;1.0630;0.0211;-0.1144;0.0105
0000929707;6.3997;-16.0962;1.0774;0.0213;-0.1186;0.0095
0000929718;6.3087;-15.9813;0.9720;0.0172;-0.1082;0.0071
0000929726;6.3351;-16.0603;1.0415;0.0133;-0.1083;0.0075
0000929738;6.1124;-16.0842;1.0630;0.0137;-0.1077;0.0000
0000929746;6.2752;-16.1202;1.1133;0.0061;-0.1120;0.0047
0000929757;6.4165;-15.9789;1.0080;-0.0011;-0.1057;0.0064
0000929765;6.2010;-16.1417;1.1253;-0.0091;-0.0985;0.0067
0000929777;6.2369;-16.0819;1.1085;-0.0093;-0.0986;0.0031
0000929785;6.2704;-16.1154;1.0702;-0.0059;-0.0985;0.0011
0000929793;6.2513;-16.0364;1.1540;-0.0165;-0.0935;0.0056
0000929804;6.3542;-16.1202;1.0918;-0.0168;-0.0863;-0.0032
0000929812;6.2393;-16.0555;1.1803;-0.0222;-0.0799;-0.0039
0000929824;6.3853;-16.0842;1.0774;-0.0228;-0.0698;-0.0041
0000929832;6.4524;-15.9717;1.1540;-0.0181;-0.0667;-0.0064
0000929899;6.3542;-16.2399;1.0439;-0.0245;-0.0191;-0.0136
0000929907;6.4141;-16.2518;1.1301;-0.0203;-0.0072;-0.0105
0000929919;6.2345;-16.3261;1.1157;-0.0141;-0.0016;-0.0204
0000929927;6.4093;-16.1609;1.1540;-0.0124;-0.0040;-0.0256
0000929938;6.3279;-16.1561;1.1947;-0.0049;0.0003;-0.0203
0000929946;6.2752;-16.0699;1.1205;-0.0136;0.0043;-0.0169
0000929958;6.1986;-16.1297;1.0918;-0.0155;0.0043;-0.0136
0000929966;6.2800;-16.0579;1.0870;-0.0216;0.0021;-0.0124
0000929974;6.1292;-16.1704;1.2234;-0.0136;-0.0047;-0.0148
0000929985;6.2058;-16.0364;1.1636;-0.0193;-0.0076;-0.0104
0000929993;6.3614;-16.0412;1.1229;-0.0240;-0.0075;-0.0099
0000930005;6.0478;-16.0388;1.1803;-0.0273;-0.0135;-0.0079
0000930013;6.1124;-16.0675;1.0846;-0.0336;-0.0073;-0.0017
0000930024;6.1435;-16.2159;1.0558;-0.0330;-0.0135;0.0039
0000930032;6.0837;-16.2542;1.0080;-0.0224;-0.0176;0.0051
0000930044;6.2704;-16.1824;1.0894;-0.0143;-0.0249;0.0016
0000930052;6.0190;-16.5200;1.0127;-0.0053;-0.0252;0.0052
0000930063;6.1842;-16.2878;0.9936;0.0141;-0.0352;-0.0051
0000930071;6.0286;-16.4841;0.9792;0.0252;-0.0349;-0.0059
0000930079;6.1076;-16.4458;0.9625;0.0350;-0.0370;-0.0051
0000930091;6.1938;-16.3859;0.9098;0.0556;-0.0521;-0.0151
0000930099;6.0262;-16.4769;0.9385;0.0749;-0.0546;-0.0185
0000930166;6.0908;-16.0579;1.0511;0.1095;-0.1198;-0.0240
0000930174;5.9352;-16.2135;1.0487;0.1070;-0.1155;-0.0145
0000930186;6.0310;-16.1130;1.1660;0.1138;-0.1304;-0.0199
0000930194;6.1483;-16.1441;1.2378;0.1176;-0.1406;-0.0196
0000930205;6.2656;-16.0124;1.2258;0.1119;-0.1431;-0.0177
0000930213;6.2632;-16.0052;1.1899;0.1037;-0.1343;-0.0148
0000930225;6.1004;-16.0771;1.2402;0.1087;-0.1430;-0.0183
0000930233;6.4596;-15.9214;1.2594;0.0983;-0.1411;-0.0163
0000930241;6.3111;-15.9765;1.2330;0.0930;-0.1395;-0.0189
0000930252;6.4476;-15.8903;1.2522;0.0810;-0.1367;-0.0165
0000930260;6.4811;-15.9262;1.2857;0.0707;-0.1356;-0.0197
0000930272;6.2728;-16.0866;1.3120;0.0689;-0.1414;-0.0173
0000930280;6.1339;-16.0771;1.2905;0.0636;-0.1352;-0.0116
0000930291;6.2489;-16.1010;1.2833;0.0597;-0.1408;-0.0152
0000930299;6.3063;-16.0124;1.3216;0.0513;-0.1371;-0.0084
0000930311;6.2968;-16.1321;1.3575;0.0465;-0.1390;-0.0065
0000930319;5.9951;-16.2447;1.4365;0.0381;-0.1420;-0.0028
0000930330;6.3207;-15.9406;1.4126;0.0330;-0.1448;-0.0045
0000930338;6.2177;-16.0459;1.4293;0.0361;-0.1516;0.0004
0000930346;6.4452;-15.9957;1.3551;0.0302;-0.1537;0.0027
0000930358;6.2848;-16.1441;1.3216;0.0217;-0.1523;0.0081
0000930366;6.4667;-15.9837;1.3288;0.0179;-0.1547;0.0075
0000930434;6.4811;-15.9550;1.4796;0.0187;-0.1696;0.0045
0000930442;6.4955;-15.9861;1.4461;0.0161;-0.1640;0.0071
0000930453;6.4356;-16.0459;1.4676;0.0135;-0.1628;0.0043
0000930461;6.3375;-16.1082;1.4916;0.0129;-0.1623;0.0049
0000930473;6.4404;-16.0890;1.5155;0.0068;-0.1609;0.0071
0000930481;6.4620;-16.0603;1.4365;0.0111;-0.1583;0.0091
0000930489;6.4500;-16.0890;1.4724;0.0089;-0.1560;0.0115
0000930500;6.5218;-16.0723;1.4605;0.0068;-0.1495;0.0163
0000930508;6.3734;-16.1178;1.4461;0.0051;-0.1516;0.0080
0000930520;6.5529;-15.9023;1.4246;0.0076;-0.1502;0.0092
0000930528;6.6343;-15.8520;1.4820;0.0068;-0.1486;0.0111
0000930539;6.3949;-16.0340;1.5467;0.0007;-0.1452;0.0007
0000930547;6.4500;-16.0340;1.4581;0.0019;-0.1406;0.0068
0000930559;6.4356;-15.9669;1.5060;-0.0052;-0.1368;0.0065
0000930567;6.3207;-16.0364;1.5323;-0.0055;-0.1371;0.0023
0000930575;6.3973;-15.9789;1.5227;-0.0125;-0.1327;0.0069
0000930586;6.4667;-15.8903;1.4964;-0.0149;-0.1350;0.0016
0000930594;6.2800;-16.1202;1.5299;-0.0196;-0.1298;0.0101
0000930606;6.4620;-16.0555;1.4868;-0.0177;-0.1306;0.0048
0000930614;6.4141;-16.0866;1.5060;-0.0207;-0.1212;0.0087
0000930681;6.2968;-16.0771;1.4437;-0.0301;-0.1057;0.0111
0000930689;6.2632;-16.2135;1.4246;-0.0305;-0.0997;0.0152
0000930701;6.4212;-16.0316;1.4030;-0.0328;-0.0982;0.0179
0000930709;6.3829;-15.9382;1.5036;-0.0348;-0.0941;0.0157
0000930720;6.2824;-16.1441;1.4605;-0.0308;-0.0859;0.0181
0000930728;6.1914;-16.1728;1.3695;-0.0305;-0.0845;0.0171
0000930736;6.4284;-16.0819;1.4892;-0.0282;-0.0855;0.0085
0000930748;6.3446;-16.0268;1.5467;-0.0278;-0.0718;0.0129
0000930756;6.3853;-16.0723;1.4222;-0.0256;-0.0733;0.0107
0000930767;6.3877;-16.0148;1.4102;-0.0334;-0.0596;0.0117
0000930775;6.4021;-16.0483;1.4389;-0.0312;-0.0585;0.0067
0000930787;6.2991;-16.0555;1.4389;-0.0321;-0.0481;0.0119
0000930795;6.2345;-16.1680;1.4653;-0.0296;-0.0430;0.0105
0000930806;6.4069;-16.0316;1.5131;-0.0296;-0.0348;0.0091
0000930814;6.3470;-16.0483;1.4820;-0.0324;-0.0384;0.0072
0000930826;6.3039;-16.0890;1.4629;-0.0308;-0.0309;0.0069
0000930834;6.3877;-16.0340;1.4389;-0.0365;-0.0195;0.0083
0000930842;6.2680;-16.0364;1.4676;-0.0374;-0.0165;0.0060
0000930853;6.2728;-16.1872;1.4365;-0.0372;-0.0136;0.0053
0000930861;6.2513;-16.1848;1.4868;-0.0356;-0.0143;-0.0011
0000930873;6.1962;-16.0842;1.4605;-0.0365;-0.0092;0.0016
0000930881;6.3183;-15.9574;1.4317;-0.0417;-0.0012;0.0039
0000930948;6.1675;-16.0747;1.4820;-0.0392;0.0064;-0.0001
0000930956;6.0669;-16.2494;1.4054;-0.0378;0.0085;0.0044
0000930968;6.0956;-16.2375;1.4341;-0.0364;0.0044;-0.0016
0000930976;6.2896;-16.1178;1.3599;-0.0322;0.0005;-0.0040
0000930987;6.2130;-16.0842;1.3599;-0.0361;0.0051;-0.0035
0000930995;6.2560;-16.0555;1.4246;-0.0308;0.0012;-0.0076
0000931003;6.3351;-16.0076;1.4629;-0.0334;0.0041;-0.0048
0000931015;6.2776;-16.0531;1.3695;-0.0342;0.0061;-0.0065
0000931023;6.1627;-16.0100;1.3910;-0.0321;0.0055;-0.0053
0000931034;6.2896;-16.0172;1.3815;-0.0357;0.0133;-0.0028
0000931042;6.1651;-16.2518;1.4605;-0.0353;0.0131;-0.0044
0000931054;6.1004;-16.1154;1.3647;-0.0372;0.0172;0.0024
0000931062;6.2824;-16.1345;1.3647;-0.0426;0.0184;-0.0017
0000931073;6.2584;-15.9047;1.4437;-0.0470;0.0181;0.0037
0000931081;6.0142;-16.2375;1.4198;-0.0410;0.0160;-0.0035
0000931089;6.0621;-16.2471;1.4150;-0.0378;0.0159;-0.0089
0000931101;6.1651;-16.0795;1.3934;-0.0385;0.0192;-0.0073
0000931109;6.3039;-16.0771;1.4365;-0.0376;0.0171;-0.0075
0000931120;6.1100;-16.2590;1.4461;-0.0317;0.0152;-0.0108
0000931128;6.2297;-16.0747;1.3623;-0.0333;0.0179;-0.0109
0000931140;5.8945;-16.2135;1.4150;-0.0330;0.0205;-0.0100
0000931148;6.1938;-16.1513;1.3431;-0.0350;0.0226;-0.0080
0000931216;5.9304;-16.2710;1.4174;-0.0184;0.0177;-0.0116
0000931224;6.0621;-16.2399;1.3216;-0.0228;0.0230;-0.0149
0000931236;5.9233;-16.2231;1.3144;-0.0185;0.0191;-0.0155
0000931244;5.9616;-16.1273;1.2546;-0.0244;0.0137;-0.0228
0000931252;6.0238;-16.1609;1.3862;-0.0203;0.0028;-0.0208
0000931263;5.8873;-16.1680;1.4030;-0.0213;-0.0005;-0.0176
0000931271;5.9328;-16.2207;1.4102;-0.0250;0.0029;-0.0144
0000931283;6.0621;-16.1537;1.4078;-0.0277;-0.0024;-0.0145
0000931291;6.1363;-16.0723;1.3862;-0.0245;-0.0108;-0.0143
0000931302;5.8275;-16.2830;1.4126;-0.0217;-0.0137;-0.0133
0000931310;6.3279;-15.9238;1.3743;-0.0216;-0.0131;-0.0099
0000931322;6.0669;-16.0723;1.3479;-0.0222;-0.0125;-0.0097
0000931330;6.0190;-16.1968;1.2689;-0.0189;-0.0213;-0.0143
0000931341;6.0501;-16.1489;1.2881;-0.0242;-0.0189;-0.0123
0000931349;6.1363;-16.0340;1.3048;-0.0176;-0.0289;-0.0132
0000931361;6.0813;-16.0076;1.3096;-0.0189;-0.0312;-0.0149
0000931369;6.1866;-15.9502;1.4006;-0.0184;-0.0372;-0.0143
0000931377;5.8466;-16.2016;1.2761;-0.0224;-0.0312;-0.0113
0000931388;6.1292;-16.1609;1.3001;-0.0229;-0.0352;-0.0159
0000931396;6.0789;-16.0555;1.3360;-0.0172;-0.0441;-0.0196
0000931409;6.0430;-16.0124;1.4222;-0.0221;-0.0425;-0.0105
0000931417;6.1148;-16.0627;1.3096;-0.0286;-0.0414;-0.0117
0000931484;5.9999;-16.2782;1.3144;-0.0213;-0.0438;-0.0125
0000931492;6.0621;-16.2758;1.2977;-0.0152;-0.0458;-0.0216
0000931504;6.1124;-16.0914;1.2713;-0.0137;-0.0524;-0.0195
0000931512;6.0956;-16.0747;1.3336;-0.0165;-0.0482;-0.0207
0000931523;6.2249;-16.0388;1.2857;-0.0191;-0.0501;-0.0252
0000931531;6.0861;-16.1417;1.2522;-0.0193;-0.0484;-0.0233
0000931543;6.1531;-16.1010;1.3360;-0.0123;-0.0562;-0.0253
0000931551;6.3111;-16.0005;1.3024;-0.0144;-0.0474;-0.0184
0000931559;6.0094;-16.2327;1.3048;-0.0099;-0.0544;-0.0215
0000931570;6.3111;-16.0028;1.2833;-0.0149;-0.0513;-0.0273
0000931578;6.1316;-16.1513;1.3144;-0.0111;-0.0548;-0.0226
0000931590;6.1770;-16.1417;1.2426;-0.0163;-0.0540;-0.0226
0000931598;6.2584;-16.0483;1.3599;-0.0136;-0.0532;-0.0281
0000931609;6.1244;-16.1321;1.2833;-0.0148;-0.0501;-0.0204
0000931617;6.0789;-16.1728;1.2258;-0.0136;-0.0506;-0.0229
0000931629;6.2153;-16.1824;1.3719;-0.0087;-0.0505;-0.0184
0000931637;6.2632;-16.0124;1.2833;-0.0007;-0.0546;-0.0274
0000931648;6.0238;-16.1585;1.3264;-0.0060;-0.0505;-0.0217
0000931656;6.1842;-16.0651;1.2091;-0.0053;-0.0477;-0.0203
0000931664;6.3566;-15.9526;1.2785;-0.0093;-0.0446;-0.0201
0000931676;6.1004;-16.0795;1.2761;-0.0136;-0.0457;-0.0195
0000931684;6.1842;-16.0866;1.2737;-0.0172;-0.0430;-0.0188
0000931752;6.2968;-16.0316;1.2522;-0.0157;-0.0482;-0.0209
0000931760;6.2010;-16.1920;1.3695;-0.0107;-0.0538;-0.0217
0000931772;6.3542;-16.0364;1.2258;-0.0127;-0.0494;-0.0148
0000931780;6.3590;-16.1417;1.2186;-0.0109;-0.0529;-0.0234
0000931792;6.2345;-16.0938;1.2354;-0.0183;-0.0440;-0.0180
0000931800;6.1507;-16.1920;1.2234;-0.0172;-0.0425;-0.0192
0000931811;6.1962;-16.1034;1.2785;-0.0175;-0.0446;-0.0189
0000931819;6.2489;-16.1656;1.2713;-0.0193;-0.0430;-0.0161
0000931831;6.0741;-16.1968;1.2378;-0.0193;-0.0440;-0.0161
0000931839;6.2082;-16.1082;1.2761;-0.0204;-0.0462;-0.0155
0000931847;6.0765;-16.1633;1.3001;-0.0129;-0.0508;-0.0184
0000931858;6.3446;-16.0531;1.2330;-0.0131;-0.0512;-0.0163
0000931866;6.0741;-16.2135;1.3096;-0.0099;-0.0525;-0.0215
0000931878;6.1220;-16.2949;1.3958;-0.0061;-0.0625;-0.0245
0000931886;6.0142;-16.1824;1.2929;-0.0111;-0.0556;-0.0184
0000931897;6.2106;-16.1561;1.2426;-0.0097;-0.0625;-0.0205
0000931905;6.3494;-16.0795;1.2641;-0.0105;-0.0653;-0.0167
0000931917;6.0765;-16.1872;1.2929;-0.0129;-0.0624;-0.0111
0000931925;6.2130;-16.1537;1.2737;-0.0131;-0.0576;-0.0121
0000931937;6.3351;-16.0076;1.2737;-0.0057;-0.0638;-0.0132
0000931945;6.0573;-16.1800;1.2785;-0.0125;-0.0568;-0.0087
0000932013;6.4931;-16.0172;1.1851;-0.0236;-0.0678;-0.0084
0000932021;6.3303;-16.0172;1.2426;-0.0225;-0.0707;-0.0149
0000932029;6.2776;-15.9645;1.2163;-0.0293;-0.0691;-0.0139
0000932040;6.2920;-16.0603;1.2594;-0.0332;-0.0698;-0.0144
0000932048;6.2369;-16.1489;1.2282;-0.0348;-0.0714;-0.0179
0000932060;6.2704;-16.0412;1.2498;-0.0304;-0.0710;-0.0168
0000932068;6.0310;-16.2471;1.2881;-0.0272;-0.0761;-0.0205
0000932079;6.2082;-16.1321;1.2857;-0.0272;-0.0779;-0.0173
0000932087;6.1842;-16.0699;1.3144;-0.0276;-0.0766;-0.0116
0000932099;6.1770;-16.1130;1.3144;-0.0278;-0.0809;-0.0143
0000932107;6.2896;-16.0914;1.2689;-0.0280;-0.0837;-0.0147
0000932118;6.5457;-15.9190;1.2306;-0.0274;-0.0841;-0.0137
0000932126;6.4667;-15.8185;1.2641;-0.0312;-0.0841;-0.0153
0000932138;6.1986;-16.1585;1.2234;-0.0410;-0.0806;-0.0133
0000932146;6.2393;-16.1154;1.2186;-0.0322;-0.0850;-0.0167
0000932154;6.1316;-16.1656;1.3264;-0.0386;-0.0827;-0.0172
0000932165;6.3111;-16.0986;1.2737;-0.0320;-0.0842;-0.0172
0000932173;6.3710;-16.1633;1.2977;-0.0366;-0.0819;-0.0127
0000932185;6.2297;-16.2423;1.2737;-0.0310;-0.0766;-0.0140
0000932193;6.3303;-16.1896;1.2306;-0.0285;-0.0783;-0.0192
0000932205;6.3542;-16.1154;1.2713;-0.0302;-0.0783;-0.0169
0000932213;6.2920;-16.0459;1.3120;-0.0245;-0.0747;-0.0167
0000932281;6.3183;-16.1609;1.2426;-0.0348;-0.0657;-0.0176
0000932289;6.2034;-16.1441;1.2761;-0.0281;-0.0701;-0.0232
0000932300;6.1890;-16.2183;1.3551;-0.0300;-0.0604;-0.0151
0000932308;6.2177;-16.2087;1.3599;-0.0285;-0.0621;-0.0200
0000932320;6.2776;-16.2231;1.2953;-0.0282;-0.0546;-0.0141
0000932328;6.2249;-16.2949;1.2594;-0.0281;-0.0542;-0.0203
0000932336;6.3877;-16.0220;1.3072;-0.0298;-0.0565;-0.0187
0000932347;6.3446;-16.1465;1.3048;-0.0281;-0.0481;-0.0152
0000932355;6.2848;-16.0579;1.3144;-0.0252;-0.0485;-0.0179
0000932367;6.3327;-16.1106;1.2689;-0.0245;-0.0532;-0.0211
0000932375;6.2728;-16.2303;1.2953;-0.0258;-0.0490;-0.0151
0000932386;6.2656;-16.1704;1.2450;-0.0317;-0.0404;-0.0136
0000932394;6.3949;-16.1082;1.2067;-0.0332;-0.0416;-0.0169
0000932406;6.4189;-15.9669;1.2617;-0.0317;-0.0398;-0.0149
0000932414;6.2752;-16.0196;1.2522;-0.0281;-0.0413;-0.0195
0000932425;6.2345;-16.1130;1.2498;-0.0300;-0.0398;-0.0124
0000932433;6.3422;-16.1537;1.2234;-0.0193;-0.0416;-0.0148
0000932445;6.2968;-16.1992;1.3575;-0.0175;-0.0424;-0.0209
0000932453;6.1220;-16.1848;1.2833;-0.0177;-0.0420;-0.0145
0000932461;6.2297;-16.0675;1.2857;-0.0188;-0.0369;-0.0124
0000932473;6.2560;-16.0938;1.2498;-0.0192;-0.0342;-0.0124
0000932481;6.1339;-16.1082;1.3120;-0.0204;-0.0332;-0.0151
0000932547;6.2752;-16.1656;1.2833;-0.0179;-0.0338;-0.0144
0000932555;6.2824;-16.0316;1.2498;-0.0129;-0.0402;-0.0163
0000932567;6.3279;-16.0842;1.1995;-0.0155;-0.0445;-0.0193
0000932575;6.1890;-16.1728;1.3503;-0.0230;-0.0360;-0.0163
0000932587;6.3303;-16.0890;1.4293;-0.0242;-0.0378;-0.0213
0000932595;6.3183;-16.0364;1.4293;-0.0199;-0.0441;-0.0240
0000932606;6.3590;-16.1561;1.4844;-0.0238;-0.0368;-0.0217
0000932614;6.2848;-16.2638;1.5012;-0.0175;-0.0428;-0.0278
0000932626;6.3398;-16.2710;1.5921;-0.0172;-0.0417;-0.0324
0000932634;6.5314;-16.1968;1.6520;-0.0204;-0.0354;-0.0294
0000932642;6.3805;-16.2949;1.7358;-0.0212;-0.0334;-0.0274
0000932653;6.5697;-16.2399;1.8627;-0.0107;-0.0310;-0.0308
0000932661;6.6128;-16.3189;1.8914;-0.0025;-0.0357;-0.0438
0000932673;6.6966;-16.2686;1.9632;-0.0004;-0.0260;-0.0442
0000932681;6.7516;-16.3979;2.0877;0.0064;-0.0199;-0.0458
0000932692;6.9336;-16.1297;2.2194;0.0124;-0.0093;-0.0577
0000932700;6.9863;-16.0699;2.3391;0.0172;-0.0017;-0.0697
0000932712;7.1826;-16.1154;2.2625;0.0290;0.0036;-0.0981
0000932720;7.0797;-16.3021;2.3487;0.0344;0.0167;-0.1082
0000932732;7.0868;-16.0914;2.3080;0.0385;0.0456;-0.1210
0000932740;7.3861;-15.9885;2.2817;0.0449;0.0690;-0.1226
0000932748;7.3861;-15.9813;2.3200;0.0498;0.0945;-0.1227
0000932814;7.4675;-16.0914;2.1907;0.1883;0.3447;-0.1296
0000932822;7.4412;-16.0316;2.2649;0.2054;0.3873;-0.1234
0000932833;7.7405;-15.7419;2.2386;0.2457;0.4414;-0.1144
0000932841;7.5992;-15.8376;2.3296;0.2613;0.4911;-0.1100
0000932853;7.6878;-15.7874;2.3559;0.2972;0.5608;-0.1086
0000932861;7.6351;-15.7778;2.3296;0.3277;0.6002;-0.1122
0000932872;7.6351;-15.5695;2.3798;0.3500;0.6595;-0.1159
0000932880;7.5346;-15.5575;2.2913;0.3604;0.6947;-0.1318
0000932888;7.1778;-15.5096;2.2290;0.3547;0.7361;-0.1379
0000932900;6.9264;-15.4115;2.2673;0.3553;0.7617;-0.1739
0000932908;6.6511;-15.5360;2.3080;0.3384;0.7755;-0.1931
0000932919;6.4428;-15.5360;2.1739;0.3404;0.7762;-0.2274
0000932927;6.1028;-15.8616;2.1883;0.3357;0.7564;-0.2569
0000932939;6.0525;-15.9789;2.0039;0.3473;0.7228;-0.2968
0000932947;6.0693;-16.1680;1.9944;0.3734;0.6876;-0.3198
0000932958;5.7964;-16.0938;1.9992;0.3941;0.6500;-0.3204
0000932966;5.7197;-16.1417;2.0901;0.4070;0.6283;-0.3042
0000932974;5.6120;-16.0220;1.9776;0.4213;0.6054;-0.2767
0000932986;5.3870;-15.5863;1.7119;0.4402;0.5613;-0.2220
0000932994;5.3822;-15.3277;1.6065;0.4346;0.5371;-0.1623
0000933006;5.1571;-15.0045;1.4030;0.4037;0.4835;-0.0586
0000933014;5.0039;-14.7555;1.1013;0.3764;0.4489;-0.0033
0000933080;4.2353;-15.9669;1.8818;0.2158;0.0993;0.1628
0000933088;4.3263;-15.9358;1.8196;0.2541;0.0537;0.1951
0000933100;4.4819;-15.5360;1.8196;0.3052;-0.0116;0.2290
0000933108;4.3239;-15.2343;1.7310;0.3116;-0.0381;0.2553
0000933116;4.3934;-14.8560;1.5443;0.2918;-0.0689;0.2759
0000933128;4.0103;-14.5184;1.4940;0.2763;-0.1111;0.3016
0000933136;3.9648;-14.4753;1.6065;0.2582;-0.1336;0.3220
0000933148;4.0079;-14.5903;1.8100;0.2495;-0.1641;0.3347
0000933156;4.0869;-14.9183;1.7095;0.2445;-0.1644;0.3356
0000933168;4.6304;-14.7291;1.7190;0.2622;-0.1724;0.3232
0000933176;5.0757;-14.8225;1.8244;0.2956;-0.1783;0.3035
0000933188;5.6383;-14.8584;1.9441;0.3697;-0.1680;0.2649
0000933196;5.9089;-14.6334;2.0782;0.4283;-0.1549;0.2386
0000933204;6.1028;-14.3700;1.8914;0.4848;-0.1362;0.2144
0000933216;6.2393;-13.8265;2.0375;0.5572;-0.1236;0.1958
0000933224;6.0118;-13.4674;1.9848;0.5804;-0.1106;0.1897
0000933236;5.7365;-13.1801;1.9273;0.6049;-0.1150;0.1799
0000933244;5.4923;-12.9861;1.9417;0.6009;-0.1279;0.1684
0000933256;5.2050;-12.7276;1.5419;0.6091;-0.1732;0.1547
0000933264;4.9297;-12.8880;1.6735;0.6347;-0.1984;0.1300
0000933276;4.8243;-13.2016;2.0255;0.6813;-0.2041;0.1035
0000933284;5.2553;-13.2040;2.4469;0.7242;-0.1913;0.0890
0000933292;5.7341;-13.3692;2.5163;0.7857;-0.1821;0.0601
0000933356;5.8466;-11.3892;1.5323;0.8212;-0.1877;-0.1156
0000933364;5.4684;-11.7555;1.6975;0.7254;-0.2497;-0.1400
0000933376;5.6024;-11.8633;2.0087;0.5987;-0.3481;-0.1607
0000933384;5.5976;-12.3517;2.1069;0.5416;-0.3866;-0.1422
0000933396;5.6623;-13.1514;2.4588;0.4732;-0.3957;-0.0673
0000933404;5.8993;-13.4794;2.5450;0.4660;-0.3861;-0.0177
0000933416;5.7581;-13.8959;2.6001;0.4792;-0.3353;0.0517
0000933424;5.7892;-13.9558;2.4948;0.4834;-0.2851;0.0614
0000933435;5.8873;-13.8983;2.4134;0.4792;-0.2289;-0.0028
0000933443;6.0741;-13.8912;2.3439;0.4418;-0.1965;-0.0641
0000933451;6.2441;-13.9366;2.5786;0.3922;-0.1792;-0.1243
0000933463;6.8450;-14.1641;2.7940;0.3154;-0.1410;-0.1931
0000933471;7.2856;-14.2910;3.1053;0.2770;-0.1047;-0.2069
0000933483;7.8386;-14.7650;3.1963;0.2839;-0.0502;-0.2025
0000933491;7.8195;-14.7962;3.1173;0.3104;-0.0268;-0.2033
0000933503;7.3526;-14.7866;2.9688;0.3516;-0.0188;-0.2240
0000933511;7.0605;-14.3125;3.3064;0.3508;-0.0048;-0.1953
0000933523;6.4380;-14.5376;3.4979;0.2655;-0.0036;-0.1423
0000933531;6.3686;-14.5256;3.7350;0.1990;-0.0184;-0.1049
0000933539;6.3159;-14.8943;3.7254;0.1507;-0.0152;-0.0550
0000933551;6.2417;-15.1673;3.6966;0.1088;-0.0449;-0.0354
0000933559;6.2249;-15.5503;3.8020;0.1026;-0.0685;-0.0376
0000933623;7.2137;-16.1465;4.4197;0.0606;-0.1533;-0.2473
0000933631;7.1706;-15.8807;4.6711;0.0506;-0.1374;-0.2525
0000933643;6.7995;-16.2830;4.5945;-0.0536;-0.1299;-0.2801
0000933651;7.0054;-16.2231;4.7932;-0.0286;-0.1266;-0.3144
0000933663;7.0988;-16.0914;4.8171;-0.0137;-0.1254;-0.3158
0000933671;7.0940;-16.9581;4.7597;-0.1135;-0.1576;-0.3567
0000933683;6.9695;-16.2183;4.9847;0.0097;-0.1494;-0.3102
0000933691;6.8378;-16.3644;4.8028;-0.0369;-0.1621;-0.2891
0000933703;6.5362;-15.9957;4.7692;-0.0176;-0.1667;-0.2621
0000933711;6.5625;-16.0220;4.9919;-0.0738;-0.1684;-0.2403
0000933719;6.4404;-15.9837;4.7357;-0.0923;-0.1696;-0.2249
0000933731;6.7445;-16.3979;5.1499;-0.1720;-0.1515;-0.2173
0000933739;7.1515;-16.4721;4.8171;-0.1835;-0.1543;-0.2526
0000933751;7.4005;-16.0603;4.3981;-0.2188;-0.1609;-0.2501
0000933759;7.5274;-16.1944;4.2186;-0.2240;-0.1456;-0.2763
0000933771;7.5800;-16.0675;4.9273;-0.2108;-0.1575;-0.2918
0000933779;7.5705;-16.0388;4.7788;-0.2461;-0.1455;-0.2903
0000933791;7.1587;-15.3349;4.7022;-0.2840;-0.1314;-0.2370
0000933799;6.9360;-15.3325;4.7214;-0.3659;-0.1499;-0.2168
0000933811;6.6822;-15.4187;4.6064;-0.4302;-0.1643;-0.1997
0000933819;6.7349;-15.3420;4.6783;-0.5112;-0.1657;-0.1781
0000933883;7.1898;-16.0100;4.3838;-0.4974;-0.2172;-0.1065
0000933891;7.3071;-15.5384;4.3646;-0.5289;-0.1949;-0.0885
0000933899;7.3047;-15.3397;4.2210;-0.5845;-0.1871;-0.0755
0000933911;6.8426;-15.3157;4.4293;-0.7057;-0.1769;-0.0292
0000933919;6.7014;-15.8376;4.2090;-0.8155;-0.1759;-0.0197
0000933931;6.8474;-16.8265;4.0486;-0.8695;-0.1789;0.0167
0000933939;7.0605;-17.3556;4.1013;-0.8628;-0.1767;0.0306
0000933951;7.3550;-18.4617;4.4987;-0.8380;-0.1765;0.0258
0000933959;7.5417;-18.5215;4.6064;-0.7643;-0.1677;0.0380
0000933971;7.7907;-18.0379;4.7764;-0.6680;-0.1564;0.0580
0000933979;8.0589;-17.6812;4.6376;-0.6967;-0.1443;0.0689
0000933991;8.0110;-17.7602;4.8291;-0.7149;-0.0897;0.0769
0000933999;7.8961;-17.9206;5.0111;-0.7509;-0.0621;0.0947
0000934007;7.7812;-18.6796;5.1667;-0.8017;-0.0273;0.0921
0000934020;7.6088;-19.6061;5.1739;-0.7694;0.0216;0.0330
0000934029;8.0972;-20.0778;5.3750;-0.7081;0.0613;0.0076
0000934042;8.0948;-20.1592;5.2505;-0.5969;0.1254;-0.0322
0000934051;8.2432;-20.1065;5.2553;-0.5562;0.1605;-0.0581
0000934064;8.1044;-20.2382;5.1834;-0.4956;0.2018;-0.0753
0000934073;8.0397;-20.0874;5.0039;-0.4297;0.2282;-0.0697
0000934086;7.3191;-20.1400;4.5825;-0.3171;0.2451;-0.0657
0000934095;7.4651;-19.3284;4.3191;-0.2022;0.2543;-0.0659
0000934160;6.5625;-16.1992;2.4708;-0.0426;0.1949;-0.1054
0000934169;6.8929;-15.3947;2.2003;0.0056;0.2025;-0.0886
0000934178;7.1036;-14.7363;2.1045;-0.0228;0.1957;-0.0658
0000934191;6.6798;-14.3700;1.9345;-0.0810;0.1808;-0.0328
0000934200;6.5577;-14.4849;1.5874;-0.1552;0.1783;-0.0100
0000934213;6.6870;-14.0540;1.4557;-0.1693;0.1605;0.0085
0000934222;6.5625;-14.1593;1.4389;-0.2045;0.1339;-0.0052
0000934235;6.7469;-14.0252;1.3168;-0.2188;0.1208;0.0402
0000934244;6.5457;-13.8337;1.0989;-0.2060;0.1062;0.0277
0000934257;6.1196;-13.3453;1.2905;-0.2269;0.0793;0.0199
0000934266;6.2752;-13.0843;1.2498;-0.2779;0.0498;0.0141
0000934275;6.3255;-12.7779;1.1372;-0.3252;0.0316;0.0095
0000934288;6.8785;-12.7300;1.1612;-0.4566;0.0215;0.0345
0000934297;6.6535;-13.1154;1.2761;-0.5235;0.0204;0.0609
0000934310;6.6008;-13.5464;1.1277;-0.6018;0.0077;0.0826
0000934319;6.3614;-14.1785;1.1827;-0.6418;-0.0051;0.1023
0000934332;6.2752;-14.3556;1.4341;-0.6379;-0.0193;0.1148
0000934341;6.2153;-14.3341;1.3408;-0.6294;-0.0497;0.1049
0000934354;6.3829;-14.2120;1.4653;-0.7153;-0.0799;0.1033
0000934363;6.3614;-14.6070;1.5921;-0.7465;-0.1035;0.1167
0000934372;6.3686;-15.0452;1.5850;-0.7967;-0.1112;0.1202
0000934385;6.4907;-15.7491;1.7382;-0.8382;-0.1376;0.1128
0000934394;6.3231;-16.3189;1.7573;-0.8553;-0.1471;0.1015
0000934459;7.2999;-18.7131;2.2266;-0.7045;-0.2000;0.0205
0000934468;7.2951;-18.8807;1.9920;-0.6434;-0.1904;0.0108
0000934481;7.3981;-18.7490;1.8316;-0.5905;-0.1812;0.0152
0000934490;7.3167;-18.5048;1.8483;-0.5456;-0.1845;0.0140
0000934506;7.0366;-18.1528;1.9201;-0.5033;-0.2002;0.0060
0000934515;6.7325;-17.9038;1.6424;-0.4802;-0.2084;-0.0051
0000934528;6.6152;-17.5375;1.6161;-0.4313;-0.2168;-0.0135
0000934537;6.7325;-17.1832;1.1947;-0.3952;-0.2241;-0.0179
0000934546;7.0437;-16.8336;1.1229;-0.3722;-0.2358;-0.0201
0000934558;7.1802;-16.1249;1.1851;-0.3449;-0.2380;0.0045
0000934567;6.8618;-15.8712;1.1085;-0.3321;-0.2344;0.0314
0000934580;6.4643;-15.2511;0.9290;-0.3685;-0.2196;0.0629
0000934589;6.3566;-15.2104;0.7566;-0.4098;-0.2233;0.0906
0000934601;6.2632;-15.1960;0.7278;-0.4353;-0.2329;0.1112
0000934610;6.1435;-14.9757;0.6321;-0.4459;-0.2583;0.1232
0000934623;6.1196;-14.7986;0.4118;-0.4742;-0.2743;0.1703
0000934632;6.3039;-14.6286;0.2873;-0.4899;-0.2729;0.2052
0000934702;6.0741;-14.8321;-0.0886;-0.7099;-0.3064;0.2633
0000934711;6.3590;-15.1673;-0.2682;-0.7410;-0.3164;0.2511
0000934724;6.5577;-15.6748;-0.2825;-0.7661;-0.3132;0.2322
0000934733;6.6679;-16.1752;-0.3424;-0.7581;-0.3038;0.2168
0000934742;6.8618;-16.7594;-0.1772;-0.7324;-0.2737;0.2262
0000934754;7.2185;-16.9581;-0.1891;-0.7065;-0.2663;0.2237
0000934763;6.9623;-17.4465;-0.0670;-0.6973;-0.2506;0.2152
0000934776;6.5003;-17.7339;0.2035;-0.6459;-0.2966;0.1964
0000934785;5.7365;-18.0379;0.4525;-0.6210;-0.3507;0.1691
0000934797;4.9129;-18.1504;0.9337;-0.5766;-0.4659;0.1196
0000934806;4.4987;-18.4066;0.8930;-0.5431;-0.5345;0.0885
0000934819;3.5602;-18.8208;0.8045;-0.4310;-0.6402;0.0648
0000934828;3.4979;-18.6006;-0.1700;-0.3058;-0.6311;0.0979
0000934840;3.3710;-17.9900;-0.4573;-0.2160;-0.5882;0.1548
0000934849;3.9193;-17.3556;-0.5507;-0.1887;-0.5726;0.2242
0000934858;4.4652;-16.3476;-0.4262;-0.1560;-0.5339;0.3301
0000934871;4.6759;-15.6820;-1.5251;-0.1243;-0.5071;0.4686
0000934880;4.5514;-15.0595;-1.7861;-0.1424;-0.5217;0.5267
0000934892;4.4245;-14.7124;-2.0782;-0.2116;-0.5628;0.5874
0000934901;4.8100;-14.6334;-2.5402;-0.2814;-0.5601;0.6169
0000934914;5.2984;-15.0907;-2.7797;-0.3934;-0.5380;0.6358
0000934923;5.7796;-15.2822;-2.8730;-0.4294;-0.5107;0.6382
0000934992;5.7293;-14.3772;-2.8156;-0.4557;-0.3489;0.7617
0000935001;5.6838;-14.5065;-2.9161;-0.4891;-0.3295;0.7693
0000935014;5.3367;-15.0452;-2.3631;-0.5161;-0.2983;0.7345
0000935023;5.2888;-15.3827;-2.3559;-0.5219;-0.2655;0.7167
0000935035;4.8985;-16.0076;-1.9441;-0.5149;-0.2502;0.6956
0000935044;4.5155;-16.4314;-1.7047;-0.5103;-0.2489;0.6859
0000935053;4.2114;-16.6301;-1.6376;-0.4791;-0.2565;0.6775
0000935066;3.8786;-16.9629;-1.8747;-0.4326;-0.2651;0.6582
0000935075;3.9480;-17.1473;-2.0758;-0.3924;-0.2675;0.6487
0000935087;4.6424;-17.3292;-1.8890;-0.3203;-0.2840;0.6460
0000935096;4.8914;-17.5256;-1.5921;-0.2670;-0.2671;0.6801
0000935109;4.9847;-17.5902;-1.1492;-0.1617;-0.2264;0.7356
0000935118;4.4652;-17.3556;-1.2426;-0.0799;-0.2112;0.7524
0000935130;3.8307;-16.7355;-1.2689;-0.0640;-0.2108;0.7361
0000935139;3.5314;-16.9557;-1.2737;-0.0965;-0.2121;0.6859
0000935152;3.4309;-17.3292;-1.1349;-0.1086;-0.2249;0.6121
0000935161;3.5626;-17.5758;-1.3336;-0.0905;-0.2397;0.5875
0000935173;3.8140;-17.5639;-1.1013;-0.0473;-0.2282;0.6017
0000935182;3.7589;-17.4202;-1.3384;0.0099;-0.2153;0.6388
0000935191;4.0917;-17.2718;-1.2426;0.0418;-0.1701;0.6606
0000935204;4.1707;-16.9869;-1.1971;0.0851;-0.1098;0.6314
0000935213;4.0510;-17.0754;-1.6257;0.0921;-0.0492;0.5809
0000935283;4.4125;-15.8137;-1.4700;0.0207;-0.0362;0.0667
0000935292;4.1611;-16.4601;-1.4006;-0.0129;-0.0557;0.0570
0000935305;4.4628;-16.7953;-1.3671;-0.0418;-0.0574;0.0408
0000935314;4.5921;-17.0228;-1.7023;-0.0360;-0.0522;0.0076
0000935326;4.6783;-16.7666;-1.5179;-0.0047;-0.0677;-0.0561
0000935335;4.6591;-16.3380;-1.6352;0.0320;-0.0785;-0.1010
0000935348;4.6519;-15.7155;-1.8292;0.0585;-0.0787;-0.1144
0000935357;4.4580;-15.4426;-1.9417;0.0637;-0.0657;-0.0886
0000935366;4.3096;-15.4641;-1.7741;0.0477;-0.0429;-0.0566
0000935378;4.4819;-15.4522;-1.6017;0.0093;0.0173;0.0188
0000935387;4.2760;-15.8352;-1.7693;-0.0009;0.0561;0.0389
0000935400;4.4005;-16.0675;-1.6257;-0.0281;0.0859;0.0173
0000935409;4.1922;-16.2303;-1.6281;-0.0193;0.0949;-0.0172
0000935421;4.0773;-16.3093;-1.5850;-0.0044;0.1152;-0.0329
0000935430;4.0031;-16.1321;-1.5467;0.0039;0.1398;-0.0242
0000935443;3.7685;-16.0914;-1.5419;-0.0232;0.1759;0.0041
0000935452;3.7397;-16.0819;-1.6089;-0.0434;0.1941;0.0169
0000935464;3.4764;-16.3237;-1.8723;-0.0453;0.2174;0.0362
0000935473;3.7038;-16.1441;-1.6520;-0.0518;0.2302;0.0565
0000935482;3.7493;-16.3332;-1.7478;-0.0654;0.2357;0.0600
0000935495;3.6512;-16.3309;-1.8340;-0.0200;0.2523;0.0741
0000935504;3.6966;-16.1178;-1.6185;-0.0013;0.2631;0.0789
0000935574;3.8906;-15.2726;-1.9465;0.0059;0.3770;0.0927
0000935583;3.5291;-15.3085;-1.9920;-0.0045;0.3942;0.0721
0000935596;3.6583;-15.2702;-1.8172;-0.0302;0.4219;0.0582
0000935605;3.6152;-15.1697;-1.9034;-0.0506;0.4333;0.0396
0000935617;3.6200;-15.4522;-1.8747;-0.0717;0.4501;0.0218
0000935626;3.3184;-15.4450;-1.8268;-0.0714;0.4667;0.0169
0000935639;3.3974;-15.1481;-1.8555;-0.0809;0.4583;0.0008
0000935648;3.3782;-15.1433;-1.9680;-0.1135;0.4574;-0.0181
0000935657;3.2801;-15.1026;-1.9178;-0.1368;0.4458;-0.0524
0000935669;3.4046;-15.1529;-1.8747;-0.1500;0.4281;-0.0525
0000935678;3.3303;-15.3588;-1.9752;-0.1531;0.4183;-0.0464
0000935691;3.2872;-15.5336;-1.9010;-0.1892;0.4000;-0.0753
0000935700;3.2825;-15.5719;-1.7549;-0.1873;0.4021;-0.0657
0000935712;3.2705;-15.6796;-1.6616;-0.1632;0.3814;-0.0713
0000935721;3.0047;-15.7969;-1.8411;-0.1685;0.3633;-0.0837
0000935734;2.9353;-15.6461;-1.6328;-0.1804;0.3148;-0.1151
0000935743;2.6073;-15.7898;-1.5993;-0.1887;0.2821;-0.1152
0000935755;2.5905;-15.7634;-1.6831;-0.1880;0.2377;-0.1271
0000935764;2.6624;-15.7562;-1.6903;-0.1752;0.2049;-0.1340
0000935777;2.7677;-15.8616;-1.8986;-0.1737;0.1812;-0.1274
0000935786;3.0311;-15.6437;-1.9537;-0.1643;0.1657;-0.1356
0000935795;3.1101;-15.6437;-1.9393;-0.1589;0.1659;-0.1210
0000935865;3.5482;-15.1577;-2.2146;-0.2531;0.2232;-0.1848
0000935874;3.5075;-15.3325;-2.3176;-0.2639;0.2157;-0.1986
0000935887;3.5482;-15.4570;-2.3822;-0.2761;0.2106;-0.2157
0000935896;3.6416;-15.5288;-2.3056;-0.2781;0.2052;-0.2374
0000935908;3.7804;-15.4546;-2.2841;-0.2757;0.1908;-0.2498
0000935917;3.7565;-15.3851;-2.3128;-0.2734;0.1907;-0.2543
0000935930;3.7709;-15.3875;-2.3942;-0.3042;0.1849;-0.2610
0000935939;3.9552;-15.3205;-2.4469;-0.3246;0.1789;-0.2678
0000935950;3.8882;-15.4641;-2.4708;-0.3509;0.1825;-0.2786
0000935959;4.1252;-15.4905;-2.4780;-0.3597;0.1703;-0.2887
0000935973;4.1683;-15.4833;-2.4900;-0.3657;0.1801;-0.3067
0000935982;4.2665;-15.3995;-2.4205;-0.3757;0.1787;-0.3104
0000935991;4.3383;-15.4450;-2.5666;-0.3780;0.1863;-0.3154
0000936004;4.2617;-15.4187;-2.5522;-0.4032;0.1901;-0.3214
0000936013;4.3670;-15.3205;-2.7054;-0.4126;0.1943;-0.3284
0000936025;4.2665;-15.4330;-2.7869;-0.4129;0.1989;-0.3465
0000936034;4.2856;-15.2559;-2.6815;-0.4233;0.1988;-0.3681
0000936047;4.3934;-15.4929;-2.8204;-0.4438;0.2068;-0.3736
0000936056;4.6567;-15.5240;-2.7797;-0.4688;0.2224;-0.3561
0000936068;4.5370;-15.3899;-2.9377;-0.4514;0.2332;-0.3738
0000936077;4.7094;-15.2989;-2.9736;-0.4580;0.2441;-0.3844
0000936146;5.1499;-15.6796;-3.2848;-0.5832;0.3248;-0.3834
0000936155;4.9105;-15.6724;-3.3351;-0.5772;0.3320;-0.3874
0000936167;4.9632;-15.5647;-3.4333;-0.5818;0.3300;-0.3985
0000936176;4.8028;-15.4306;-3.6344;-0.6005;0.3280;-0.4005
0000936185;4.7956;-15.4330;-3.6990;-0.6261;0.3087;-0.3948
0000936198;4.5993;-15.7682;-3.7900;-0.6391;0.2912;-0.3756
0000936207;4.5059;-16.0100;-3.8810;-0.6366;0.2695;-0.3573
0000936219;4.4963;-15.8376;-4.0558;-0.6347;0.2384;-0.3365
0000936228;4.7166;-15.7562;-4.0677;-0.6446;0.2082;-0.3219
0000936241;4.7262;-15.9597;-4.1539;-0.6718;0.1808;-0.2875
0000936250;5.0039;-15.7347;-4.1875;-0.6635;0.1556;-0.2870
0000936262;4.6136;-15.6341;-4.5059;-0.6690;0.1043;-0.3003
0000936271;4.7549;-15.5886;-4.6352;-0.6803;0.0663;-0.2980
0000936284;4.6591;-15.8017;-4.7645;-0.6887;-0.0008;-0.2887
0000936293;4.5681;-15.8831;-4.7669;-0.6801;-0.0408;-0.2738
0000936305;4.6328;-16.0483;-4.8028;-0.6608;-0.0953;-0.2738
0000936314;4.9081;-15.8568;-4.9033;-0.6376;-0.1427;-0.2802
0000936323;4.9823;-15.9023;-4.9009;-0.6090;-0.1789;-0.2930
0000936336;5.2768;-15.7850;-4.9608;-0.5738;-0.2193;-0.2988
0000936345;5.5498;-15.6054;-4.8890;-0.5464;-0.2332;-0.3110
0000936357;5.9328;-15.5647;-5.1715;-0.5136;-0.2493;-0.3188
0000936366;6.1268;-15.5384;-5.3917;-0.5024;-0.2583;-0.3304
0000936435;5.3606;-15.0452;-5.9975;-0.4151;-0.5065;-0.3234
0000936444;5.7652;-15.1002;-6.1579;-0.3868;-0.5173;-0.3324
0000936456;6.2441;-15.6222;-6.0525;-0.3401;-0.5049;-0.3537
0000936465;6.4620;-16.0842;-5.7676;-0.2581;-0.4852;-0.3904
0000936478;6.7133;-15.7491;-5.6647;-0.1486;-0.4513;-0.4037
0000936487;6.5864;-15.6461;-5.5952;-0.0931;-0.4273;-0.3890
0000936499;6.4643;-15.3301;-5.6168;-0.0695;-0.3900;-0.3433
0000936508;6.2369;-15.1649;-5.6527;-0.0731;-0.3552;-0.3015
0000936521;6.2249;-14.9590;-5.4899;-0.0897;-0.3291;-0.2622
0000936530;6.2177;-15.1673;-5.4300;-0.0969;-0.3123;-0.2378
0000936539;6.0238;-15.2894;-5.2984;-0.1143;-0.2990;-0.2077
0000936551;6.0789;-15.4929;-5.0566;-0.0859;-0.2978;-0.1904
0000936560;6.0885;-15.3660;-5.2218;-0.1112;-0.2803;-0.1675
0000936573;6.0501;-15.5264;-5.1858;-0.0842;-0.2611;-0.1392
0000936582;5.9687;-15.5671;-5.4588;-0.0544;-0.2563;-0.1243
0000936594;6.0094;-15.2080;-5.4827;-0.0368;-0.2305;-0.0878
0000936603;5.8347;-15.3277;-5.4827;-0.0277;-0.2133;-0.0648
0000936616;6.0980;-15.0739;-5.7030;-0.0048;-0.1869;-0.0268
0000936625;5.8634;-15.1242;-5.6000;0.0101;-0.1711;-0.0161
0000936637;5.9089;-15.0404;-5.6383;0.0540;-0.1712;-0.0481
0000936646;5.9975;-14.6765;-5.5809;0.0624;-0.1769;-0.0667
0000936715;5.5474;-15.6988;-4.5538;0.0564;-0.4137;-0.1986
0000936724;5.6982;-15.7945;-4.3838;0.0857;-0.4299;-0.2060
0000936736;5.4899;-16.0747;-4.4580;0.1375;-0.4502;-0.2062
0000936745;5.7988;-15.9885;-4.3263;0.1727;-0.4369;-0.2113
0000936754;5.6599;-15.8400;-4.4197;0.2125;-0.4211;-0.2068
0000936767;5.8179;-15.4570;-4.3646;0.2427;-0.3619;-0.2034
0000936776;5.9496;-15.2774;-4.4245;0.2554;-0.3272;-0.1953
0000936788;5.8371;-15.0883;-4.4915;0.2474;-0.2659;-0.1799
0000936797;5.8849;-14.8536;-4.4317;0.2370;-0.2389;-0.1795
0000936810;5.4803;-15.0069;-4.5753;0.2045;-0.2253;-0.1879
0000936819;5.4827;-14.7626;-4.5059;0.1777;-0.2176;-0.1836
0000936831;5.0949;-14.8800;-4.6807;0.1581;-0.2313;-0.1793
0000936840;4.9536;-14.9973;-4.8961;0.1545;-0.2523;-0.1873
0000936853;4.8100;-15.2247;-4.9512;0.1492;-0.2907;-0.1864
0000936862;5.0135;-15.2463;-5.1044;0.1490;-0.3139;-0.2010
0000936874;5.2289;-15.3827;-5.1643;0.1502;-0.3488;-0.2078
0000936883;5.4468;-15.4234;-5.1451;0.1644;-0.3721;-0.2154
0000936892;5.3965;-15.5216;-5.2146;0.1757;-0.3860;-0.2148
0000936905;5.5474;-15.4761;-5.2960;0.2097;-0.4233;-0.2104
0000936914;5.3175;-15.6054;-5.1427;0.2342;-0.4447;-0.2141
0000936926;5.3247;-15.5168;-5.0733;0.2613;-0.4894;-0.2146
0000936935;5.1427;-15.4809;-5.2385;0.2836;-0.5216;-0.2272
0000937004;6.3901;-15.7874;-4.6663;0.3776;-0.5472;-0.2104
0000937013;6.5362;-15.8592;-4.7166;0.4069;-0.5181;-0.2052
0000937025;6.4691;-16.0172;-4.8411;0.4438;-0.4655;-0.2152
0000937034;6.3518;-15.8376;-4.6352;0.4738;-0.4393;-0.2218
0000937047;6.2752;-15.5671;-4.5107;0.4971;-0.4163;-0.2434
0000937056;6.1986;-15.3995;-4.5083;0.4960;-0.4002;-0.2534
0000937068;6.0741;-15.4282;-4.4676;0.4811;-0.3905;-0.2567
0000937077;6.1004;-15.4570;-4.4987;0.4738;-0.3854;-0.2575
0000937086;5.9113;-15.3085;-4.3646;0.4646;-0.3671;-0.2478
0000937099;6.1699;-15.3851;-4.2210;0.4563;-0.3455;-0.2340
0000937108;6.2225;-15.4737;-4.1061;0.4666;-0.3120;-0.2208
0000937120;6.0885;-15.4450;-4.0869;0.4736;-0.2844;-0.2256
0000937129;6.2034;-15.4522;-4.0103;0.4734;-0.2741;-0.2277
0000937142;6.4380;-15.6389;-3.8140;0.4559;-0.2425;-0.2132
0000937151;6.5434;-15.8736;-3.7757;0.4596;-0.2260;-0.2102
0000937163;6.6774;-16.1465;-3.5674;0.4686;-0.1853;-0.1966
0000937172;6.3782;-16.4075;-3.5578;0.4916;-0.1725;-0.1982
0000937185;6.5769;-16.4625;-3.4046;0.5288;-0.1496;-0.2012
0000937194;6.2201;-16.7403;-3.2250;0.5540;-0.1324;-0.2008
0000937206;6.0741;-16.5296;-3.2370;0.5842;-0.1183;-0.1928
0000937215;5.9664;-16.4841;-3.3279;0.6079;-0.1152;-0.1885
0000937224;5.9328;-16.3524;-3.2346;0.6259;-0.0997;-0.1667
0000937291;5.9137;-16.0651;-2.7725;0.6370;-0.0949;-0.1525
0000937300;6.1675;-15.7945;-2.8252;0.6262;-0.1033;-0.1514
0000937312;6.0885;-15.7323;-2.9832;0.6372;-0.1146;-0.1422
0000937321;5.8323;-15.7251;-2.9233;0.6468;-0.1231;-0.1438
0000937334;6.0693;-15.6054;-2.8204;0.6334;-0.1326;-0.1360
0000937343;5.9256;-15.7491;-2.6360;0.6195;-0.1407;-0.1351
0000937355;6.0693;-15.8664;-2.6935;0.6102;-0.1583;-0.1504
0000937364;6.2106;-15.7562;-2.5307;0.5895;-0.1677;-0.1504
0000937378;6.1076;-15.6222;-2.5594;0.5624;-0.1755;-0.1410
0000937387;5.9256;-15.5025;-2.5714;0.5423;-0.1929;-0.1394
0000937400;5.9280;-15.3157;-2.4062;0.5008;-0.2028;-0.1283
0000937409;5.9352;-15.1792;-2.3846;0.4690;-0.2098;-0.1296
0000937418;5.9687;-15.4234;-2.3511;0.4470;-0.2220;-0.1362
0000937430;6.2010;-15.6078;-2.1141;0.4042;-0.2229;-0.1456
0000937439;6.2513;-15.5982;-1.9800;0.3764;-0.2105;-0.1384
0000937452;6.5338;-15.9885;-1.7861;0.3680;-0.1988;-0.1376
0000937461;6.5577;-16.1082;-1.7214;0.3629;-0.1733;-0.1170
0000937473;6.6008;-16.3021;-1.6352;0.3689;-0.1410;-0.0942
0000937482;6.5362;-16.4386;-1.5634;0.3685;-0.1111;-0.0733
0000937549;6.6248;-16.2782;-1.1899;0.3805;-0.0136;-0.0296
0000937558;6.4572;-16.3285;-1.1756;0.3958;-0.0293;-0.0474
0000937570;6.3207;-16.2351;-1.1588;0.4073;-0.0481;-0.0536
0000937579;6.3135;-16.1728;-1.2546;0.4112;-0.0557;-0.0501
0000937592;6.2345;-15.9262;-1.3527;0.4105;-0.0834;-0.0461
0000937601;6.0956;-15.8640;-1.2258;0.3997;-0.0942;-0.0390
0000937610;6.2560;-15.8065;-1.3479;0.3901;-0.1086;-0.0368
0000937622;6.3375;-15.6748;-1.3551;0.3505;-0.1085;-0.0187
0000937631;6.5673;-15.5575;-1.4413;0.3273;-0.1082;-0.0143
0000937644;6.5410;-15.7802;-1.4389;0.2846;-0.0933;0.0071
0000937653;6.5888;-15.7227;-1.3743;0.2554;-0.0773;0.0257
0000937665;6.8331;-15.8592;-1.3743;0.2454;-0.0530;0.0412
0000937674;6.7708;-16.0100;-1.4198;0.2390;-0.0197;0.0570
0000937687;6.9240;-15.8855;-1.5347;0.2619;0.0342;0.0540
0000937696;6.9192;-15.3923;-1.3144;0.2735;0.1203;0.0558
0000937708;6.4045;-15.1768;-1.3096;0.2494;0.1764;-0.0044
0000937717;6.6559;-15.5575;-1.3551;0.1976;0.1777;-0.0774
0000937726;7.0533;-15.9693;-1.2785;0.1412;0.1799;-0.1156
0000937739;7.1443;-16.8648;-1.0391;0.0839;0.2018;-0.0849
0000937748;6.9767;-17.0922;-0.8859;0.0990;0.2338;-0.0220
0000937760;6.5074;-17.0036;-0.7494;0.1553;0.2650;0.0338
0000937769;6.1316;-16.8121;-0.8523;0.2062;0.2802;0.0350
0000937836;6.0669;-16.2901;-0.5722;0.2765;0.2060;0.0040
0000937845;6.0190;-16.0244;-0.6393;0.2807;0.1988;-0.0131
0000937857;5.8466;-16.0028;-0.6057;0.2831;0.1812;-0.0342
0000937866;5.6958;-15.9286;-0.6440;0.2737;0.1641;-0.0402
0000937875;5.3941;-15.8305;-0.6273;0.2634;0.1406;-0.0540
0000937888;5.4995;-15.7538;-0.8188;0.2313;0.1014;-0.0671
0000937897;5.4827;-15.8113;-0.8045;0.2038;0.0766;-0.0802
0000937909;5.4588;-15.9238;-0.8475;0.1724;0.0360;-0.0951
0000937918;5.7174;-16.0292;-0.8140;0.1470;0.0135;-0.1070
0000937931;5.8107;-16.0340;-0.7733;0.1262;-0.0212;-0.1192
0000937940;6.0334;-15.9478;-0.7183;0.1164;-0.0417;-0.1214
0000937952;5.7197;-16.1585;-0.6895;0.1155;-0.0589;-0.1299
0000937961;5.7150;-16.0962;-0.6249;0.1077;-0.0782;-0.1358
0000937974;5.7676;-16.0842;-0.7470;0.0879;-0.1108;-0.1510
0000937983;5.8251;-15.9837;-0.6632;0.0679;-0.1303;-0.1483
0000937995;5.8347;-16.0483;-0.6752;0.0425;-0.1510;-0.1375
0000938004;5.9496;-16.1202;-0.6488;0.0244;-0.1672;-0.1330
0000938013;5.9903;-16.1465;-0.5052;0.0084;-0.1656;-0.1186
0000938026;6.0358;-16.2662;-0.4477;-0.0015;-0.1747;-0.1170
0000938035;6.2632;-16.1417;-0.4405;-0.0033;-0.1664;-0.1123
0000938047;6.5290;-16.0124;-0.4286;0.0007;-0.1548;-0.1232
0000938056;6.4117;-16.2854;-0.3496;-0.0025;-0.1440;-0.1134
0000938123;6.7612;-16.3117;-0.4812;0.0236;-0.0859;-0.1136
0000938132;6.9073;-16.2997;-0.4669;0.0123;-0.0705;-0.1013
0000938144;6.8881;-16.1154;-0.4357;0.0060;-0.0626;-0.0929
0000938153;7.1204;-16.0388;-0.5746;-0.0021;-0.0505;-0.0867
0000938166;7.2975;-16.0866;-0.5339;-0.0151;-0.0297;-0.0850
0000938175;6.9576;-16.2399;-0.5459;-0.0225;-0.0184;-0.0906
0000938187;7.2999;-16.1752;-0.6153;-0.0218;0.0043;-0.0934
0000938196;7.0054;-16.3261;-0.5698;-0.0163;0.0088;-0.1055
0000938205;7.1084;-16.2423;-0.5650;-0.0129;0.0248;-0.0963
0000938218;6.8283;-16.4075;-0.5459;-0.0071;0.0341;-0.0934
0000938227;6.9360;-16.2279;-0.6153;-0.0085;0.0489;-0.0755
0000938239;6.6487;-16.2973;-0.6608;-0.0065;0.0600;-0.0614
0000938248;6.6367;-16.1680;-0.5507;-0.0072;0.0650;-0.0569
0000938261;6.3662;-16.2183;-0.5626;-0.0193;0.0586;-0.0537
0000938270;6.2680;-16.3428;-0.5746;-0.0164;0.0520;-0.0464
0000938282;6.1172;-16.3524;-0.5578;-0.0199;0.0430;-0.0474
0000938291;6.3949;-16.2040;-0.5794;-0.0211;0.0294;-0.0489
0000938304;6.3638;-16.2518;-0.4788;-0.0125;0.0119;-0.0390
0000938313;6.4643;-16.2375;-0.5387;-0.0101;0.0077;-0.0300
0000938325;6.4284;-16.2494;-0.4932;-0.0095;-0.0025;-0.0302
0000938334;6.4189;-16.4099;-0.5459;-0.0080;-0.0060;-0.0260
0000938343;6.4189;-16.1704;-0.6249;-0.0176;-0.0027;-0.0249
0000938410;6.4165;-16.3859;-0.4166;0.0049;-0.0589;-0.0508
0000938419;6.3303;-16.3237;-0.4166;0.0083;-0.0618;-0.0429
0000938431;6.4141;-16.1752;-0.4812;0.0083;-0.0771;-0.0449
0000938440;6.5003;-16.1561;-0.4166;-0.0069;-0.0693;-0.0432
0000938453;6.7301;-16.0340;-0.4621;-0.0127;-0.0719;-0.0516
0000938462;6.6415;-16.1226;-0.5195;-0.0164;-0.0741;-0.0596
0000938474;6.7181;-16.1489;-0.4693;-0.0220;-0.0773;-0.0548
0000938483;6.8857;-16.0316;-0.6081;-0.0301;-0.0691;-0.0530
0000938496;6.6295;-16.2973;-0.5674;-0.0238;-0.0710;-0.0528
0000938505;6.7181;-16.1752;-0.5962;-0.0238;-0.0675;-0.0497
0000938517;6.8738;-16.1393;-0.5890;-0.0207;-0.0626;-0.0397
0000938526;6.7924;-16.3644;-0.5219;-0.0180;-0.0570;-0.0377
0000938539;6.9815;-16.1800;-0.4621;-0.0213;-0.0413;-0.0294
0000938548;7.0725;-16.0986;-0.5938;-0.0211;-0.0324;-0.0341
0000938557;6.9623;-16.2327;-0.6177;-0.0201;-0.0234;-0.0318
0000938569;7.0390;-16.1680;-0.6369;-0.0246;-0.0141;-0.0310
0000938578;6.7253;-16.3644;-0.4812;-0.0191;-0.0117;-0.0340
0000938591;6.7900;-16.2686;-0.5195;-0.0221;-0.0031;-0.0268
0000938600;6.6128;-16.2854;-0.6033;-0.0211;-0.0073;-0.0272
0000938612;6.7181;-16.2231;-0.4812;-0.0230;-0.0036;-0.0161
0000938621;6.6655;-16.2854;-0.4956;-0.0274;-0.0031;-0.0107
0000938688;6.5912;-16.2375;-0.5267;-0.0269;-0.0140;-0.0116
0000938697;6.5505;-16.0938;-0.5650;-0.0316;-0.0128;-0.0059
0000938709;6.6080;-16.2734;-0.5914;-0.0342;-0.0149;-0.0033
0000938718;6.5553;-16.2207;-0.4693;-0.0405;-0.0189;-0.0079
0000938731;6.5745;-16.1848;-0.6416;-0.0445;-0.0236;-0.0061
0000938740;6.7325;-16.1609;-0.6201;-0.0444;-0.0261;-0.0116
0000938752;6.6559;-16.1704;-0.5435;-0.0458;-0.0296;-0.0104
0000938761;6.6367;-16.2183;-0.5555;-0.0326;-0.0397;-0.0207
0000938774;6.5888;-16.2806;-0.5938;-0.0346;-0.0364;-0.0132
0000938783;6.6559;-16.2782;-0.6033;-0.0318;-0.0394;-0.0115
0000938792;6.5936;-16.3931;-0.4956;-0.0328;-0.0388;-0.0103
0000938804;6.7708;-16.1656;-0.4956;-0.0317;-0.0342;-0.0092
0000938813;6.7493;-16.1656;-0.5818;-0.0205;-0.0392;-0.0155
0000938827;6.6942;-16.1178;-0.5746;-0.0304;-0.0309;-0.0196
0000938836;6.7924;-16.2327;-0.6345;-0.0242;-0.0376;-0.0196
0000938849;6.6391;-16.3117;-0.5986;-0.0328;-0.0369;-0.0211
0000938858;6.7445;-16.2231;-0.6560;-0.0241;-0.0469;-0.0196
0000938870;6.6272;-16.3907;-0.5555;-0.0215;-0.0470;-0.0103
0000938879;6.8594;-16.1417;-0.6440;-0.0183;-0.0554;-0.0064
0000938892;6.7588;-16.2494;-0.6967;-0.0175;-0.0446;-0.0065
0000938901;6.7684;-16.2686;-0.6752;-0.0232;-0.0370;0.0064
0000938969;6.4763;-16.4506;-0.4645;-0.0052;-0.0309;-0.0032
0000938978;6.6295;-16.1297;-0.5986;-0.0017;-0.0388;-0.0021
0000938991;6.6367;-16.1752;-0.4980;0.0043;-0.0356;-0.0004
0000939000;6.6128;-16.3332;-0.5818;-0.0020;-0.0281;-0.0029
0000939009;6.6559;-16.2207;-0.4717;0.0051;-0.0376;-0.0035
0000939021;6.6655;-16.3141;-0.6129;0.0068;-0.0337;-0.0057
0000939030;6.7828;-16.1896;-0.5578;0.0032;-0.0321;-0.0067
0000939043;6.5745;-16.3811;-0.4741;0.0065;-0.0262;0.0029
0000939052;6.5098;-16.3141;-0.5435;0.0109;-0.0334;-0.0017
0000939064;6.5888;-16.3452;-0.5890;0.0084;-0.0320;-0.0027
0000939073;6.5817;-16.2471;-0.6297;0.0145;-0.0310;-0.0049
0000939086;6.5817;-16.3739;-0.6273;0.0121;-0.0349;-0.0063
0000939095;6.6367;-16.2423;-0.5914;0.0084;-0.0273;-0.0025
0000939107;6.5864;-16.2949;-0.5866;0.0076;-0.0242;-0.0041
0000939116;6.6535;-16.2949;-0.6225;0.0089;-0.0293;-0.0137
0000939129;6.5697;-16.3931;-0.6057;0.0135;-0.0294;-0.0165
0000939138;6.5601;-16.2471;-0.5674;0.0111;-0.0242;-0.0156
0000939147;6.5936;-16.1872;-0.6009;0.0084;-0.0285;-0.0103
0000939159;6.7373;-16.2087;-0.5387;0.0084;-0.0296;-0.0092
0000939168;6.7947;-16.1369;-0.6416;0.0073;-0.0346;-0.0091
0000939181;6.5721;-16.3787;-0.5555;-0.0011;-0.0313;-0.0027
0000939190;6.7588;-16.1321;-0.5770;0.0088;-0.0398;-0.0075
0000939258;6.5098;-16.2040;-0.5315;-0.0031;-0.0304;-0.0135
0000939267;6.5505;-16.2279;-0.4836;-0.0013;-0.0372;-0.0183
0000939280;6.5649;-16.1704;-0.4453;-0.0045;-0.0360;-0.0168
0000939289;6.6032;-16.2447;-0.4286;-0.0052;-0.0342;-0.0121
0000939301;6.4907;-16.3213;-0.5890;-0.0085;-0.0358;-0.0159
0000939310;6.7900;-16.2638;-0.5459;-0.0083;-0.0317;-0.0147
0000939323;6.6726;-16.2782;-0.5339;-0.0065;-0.0338;-0.0187
0000939332;6.7421;-16.2399;-0.5507;-0.0051;-0.0316;-0.0165
0000939344;6.6990;-16.3069;-0.5004;0.0000;-0.0296;-0.0171
0000939353;6.6463;-16.2231;-0.4908;-0.0064;-0.0204;-0.0115
0000939362;6.6200;-16.3117;-0.4166;-0.0025;-0.0256;-0.0208
0000939375;6.7636;-16.3189;-0.5076;-0.0023;-0.0199;-0.0179
0000939384;6.8259;-16.1130;-0.5674;-0.0091;-0.0099;-0.0120
0000939396;6.8211;-16.1585;-0.5555;-0.0077;-0.0072;-0.0133
0000939405;6.9049;-16.1848;-0.5938;-0.0031;-0.0075;-0.0213
0000939418;6.5673;-16.4649;-0.5746;0.0041;0.0036;-0.0181
0000939427;6.7708;-16.2542;-0.4501;0.0164;-0.0003;-0.0253
0000939439;6.8043;-16.2566;-0.5578;0.0077;0.0075;-0.0317
0000939448;6.6415;-16.3787;-0.5076;0.0097;0.0128;-0.0357
0000939461;6.6942;-16.2135;-0.5339;0.0081;0.0165;-0.0402
0000939470;6.6655;-16.2806;-0.6129;0.0092;0.0125;-0.0482
0000939540;6.4739;-16.1920;-0.6129;0.0256;-0.0133;-0.0436
0000939549;6.3997;-16.2590;-0.5890;0.0176;-0.0129;-0.0388
0000939558;6.6008;-16.0603;-0.5148;0.0197;-0.0225;-0.0533
0000939571;6.5170;-16.1872;-0.6273;0.0107;-0.0349;-0.0492
0000939580;6.4117;-16.2734;-0.5004;0.0051;-0.0356;-0.0440
0000939592;6.6702;-16.1537;-0.4429;0.0061;-0.0404;-0.0364
0000939601;6.6439;-16.1082;-0.4166;0.0061;-0.0501;-0.0426
0000939614;6.5841;-16.1800;-0.5100;-0.0119;-0.0444;-0.0293
0000939623;6.6056;-16.0220;-0.4262;-0.0136;-0.0572;-0.0398
0000939635;6.6918;-16.1106;-0.4022;-0.0180;-0.0605;-0.0338
0000939644;6.6870;-16.1896;-0.4118;-0.0244;-0.0638;-0.0254
0000939657;6.6056;-16.3141;-0.3687;-0.0244;-0.0717;-0.0200
0000939666;6.8187;-15.9981;-0.3376;-0.0266;-0.0757;-0.0145
0000939678;6.8618;-16.0388;-0.3232;-0.0289;-0.0699;-0.0068
0000939687;6.7229;-16.1920;-0.4118;-0.0290;-0.0771;-0.0064
0000939696;6.9168;-15.9933;-0.3663;-0.0452;-0.0701;0.0011
0000939709;6.9264;-16.0771;-0.3232;-0.0610;-0.0636;0.0028
0000939718;6.8785;-16.2566;-0.3687;-0.0675;-0.0601;0.0127
0000939730;6.9719;-16.1872;-0.3879;-0.0638;-0.0541;0.0173
0000939739;6.9336;-16.2782;-0.2418;-0.0588;-0.0561;0.0205
0000939752;7.0054;-16.1656;-0.3687;-0.0506;-0.0484;0.0207
0000939761;6.9528;-16.0388;-0.3759;-0.0541;-0.0397;0.0310
0000939831;6.6176;-16.2734;-0.6057;-0.0621;-0.0226;0.0453
0000939840;6.5266;-16.3165;-0.5650;-0.0614;-0.0281;0.0493
0000939853;6.5960;-16.2399;-0.6177;-0.0589;-0.0269;0.0532
0000939862;6.6152;-16.3165;-0.6057;-0.0536;-0.0397;0.0490
0000939874;6.4428;-16.2542;-0.6033;-0.0522;-0.0384;0.0533
0000939883;6.4021;-16.3620;-0.6656;-0.0500;-0.0406;0.0569
0000939892;6.5122;-16.1920;-0.7159;-0.0545;-0.0361;0.0601
0000939905;6.3638;-16.3692;-0.6440;-0.0512;-0.0424;0.0518
0000939914;6.4045;-16.3668;-0.5315;-0.0524;-0.0370;0.0517
0000939926;6.4835;-16.4290;-0.6177;-0.0425;-0.0400;0.0518
0000939935;6.4404;-16.3668;-0.6273;-0.0341;-0.0482;0.0401
0000939948;6.4572;-16.2734;-0.6728;-0.0326;-0.0445;0.0477
0000939957;6.3327;-16.2518;-0.7135;-0.0266;-0.0534;0.0512
0000939969;6.4452;-16.2255;-0.6967;-0.0274;-0.0534;0.0542
0000939978;6.5434;-16.2447;-0.6680;-0.0293;-0.0564;0.0588
0000939991;6.4811;-16.3644;-0.6440;-0.0322;-0.0601;0.0520
0000940000;6.4380;-16.4099;-0.6105;-0.0236;-0.0663;0.0460
0000940012;6.5721;-16.3548;-0.7566;-0.0147;-0.0659;0.0418
0000940021;6.5266;-16.3261;-0.5507;-0.0115;-0.0614;0.0498
0000940030;6.4189;-16.4003;-0.6369;0.0044;-0.0717;0.0362
0000940043;6.4811;-16.3979;-0.6321;0.0075;-0.0703;0.0409
0000940052;6.5936;-16.3069;-0.6584;0.0088;-0.0629;0.0380
0000940121;6.4500;-16.3668;-0.5842;0.0232;-0.0546;0.0330
0000940130;6.5242;-16.4577;-0.5100;0.0167;-0.0462;0.0378
0000940143;6.4548;-16.3668;-0.5195;0.0176;-0.0476;0.0377
0000940152;6.3542;-16.4434;-0.5626;0.0176;-0.0432;0.0390
0000940164;6.6750;-16.2494;-0.5578;0.0192;-0.0466;0.0344
0000940173;6.4117;-16.3883;-0.6105;0.0139;-0.0392;0.0416
0000940186;6.5625;-16.1465;-0.5770;0.0144;-0.0350;0.0390
0000940195;6.4093;-16.2303;-0.5387;0.0203;-0.0361;0.0325
0000940204;6.5410;-16.1848;-0.5626;0.0181;-0.0450;0.0332
0000940216;6.3494;-16.3907;-0.5531;0.0073;-0.0306;0.0380
0000940225;6.4907;-16.1130;-0.6273;0.0116;-0.0400;0.0336
0000940239;6.3470;-16.3428;-0.4334;0.0072;-0.0314;0.0353
0000940248;6.3710;-16.1752;-0.5531;0.0127;-0.0384;0.0288
0000940261;6.4260;-16.2542;-0.5363;0.0085;-0.0361;0.0313
0000940270;6.3470;-16.1273;-0.5171;0.0047;-0.0360;0.0264
0000940282;6.2944;-16.1752;-0.4693;0.0008;-0.0330;0.0237
0000940291;6.0956;-16.3524;-0.4980;-0.0025;-0.0397;0.0204
0000940304;6.4643;-16.1513;-0.5267;-0.0061;-0.0396;0.0195
0000940313;6.3422;-16.1656;-0.4764;-0.0149;-0.0365;0.0189
0000940322;6.4380;-16.1345;-0.4788;-0.0097;-0.0412;0.0155
0000940334;6.4093;-16.1321;-0.3879;0.0001;-0.0470;0.0072
0000940343;6.3159;-16.2758;-0.4860;-0.0104;-0.0394;0.0131
0000940412;6.4093;-16.1776;-0.5363;-0.0273;-0.0261;-0.0003
0000940421;6.2584;-16.1609;-0.5315;-0.0312;-0.0236;-0.0036
0000940433;6.2968;-16.2183;-0.5100;-0.0333;-0.0250;-0.0055
0000940442;6.3566;-16.1920;-0.4717;-0.0357;-0.0252;-0.0097
0000940455;6.3853;-16.1896;-0.5722;-0.0354;-0.0264;-0.0047
0000940464;6.3231;-16.2016;-0.4980;-0.0322;-0.0276;-0.0037
0000940476;6.4069;-16.2878;-0.5171;-0.0474;-0.0228;-0.0031
0000940485;6.3327;-16.2375;-0.5148;-0.0512;-0.0265;-0.0111
0000940498;6.2728;-16.3093;-0.5004;-0.0566;-0.0209;-0.0129
0000940507;6.3662;-16.2734;-0.4357;-0.0545;-0.0252;-0.0209
0000940519;6.2010;-16.2901;-0.5818;-0.0524;-0.0260;-0.0253
0000940528;6.1723;-16.3524;-0.5291;-0.0516;-0.0298;-0.0301
0000940537;6.2369;-16.2087;-0.5291;-0.0576;-0.0276;-0.0296
0000940550;6.2728;-16.2925;-0.5219;-0.0620;-0.0312;-0.0297
0000940559;6.2920;-16.2159;-0.5650;-0.0546;-0.0422;-0.0361
0000940571;6.3135;-16.2830;-0.5195;-0.0461;-0.0473;-0.0353
0000940580;6.2273;-16.3141;-0.4717;-0.0445;-0.0460;-0.0409
0000940593;6.2776;-16.2710;-0.7111;-0.0398;-0.0544;-0.0425
0000940602;6.1459;-16.4793;-0.5243;-0.0313;-0.0670;-0.0450
0000940614;6.2680;-16.1633;-0.6416;-0.0373;-0.0624;-0.0330
0000940623;6.3422;-16.2423;-0.7230;-0.0393;-0.0689;-0.0241
0000940692;6.5434;-16.3572;-0.5387;-0.0218;-0.0401;-0.0265
0000940701;6.5745;-16.1393;-0.5100;-0.0167;-0.0357;-0.0205
0000940713;6.5122;-16.1321;-0.5339;-0.0181;-0.0330;-0.0161
0000940722;6.5027;-16.2662;-0.5986;-0.0119;-0.0362;-0.0192
0000940735;6.5481;-16.2111;-0.6201;-0.0124;-0.0313;-0.0155
0000940744;6.5122;-16.3620;-0.5650;-0.0176;-0.0308;-0.0136
0000940756;6.6894;-16.1417;-0.5890;-0.0160;-0.0249;-0.0196
0000940765;6.4955;-16.3069;-0.5626;-0.0218;-0.0144;-0.0163
0000940774;6.4643;-16.3596;-0.6608;-0.0112;-0.0217;-0.0253
0000940787;6.4667;-16.1920;-0.5602;-0.0161;-0.0085;-0.0136
0000940796;6.5242;-16.2830;-0.6871;-0.0095;-0.0133;-0.0203
0000940808;6.2991;-16.1680;-0.5914;-0.0095;-0.0160;-0.0163
0000940817;6.3758;-16.1968;-0.6919;-0.0116;-0.0153;-0.0128
0000940830;6.2824;-16.2183;-0.6584;-0.0119;-0.0189;-0.0124
0000940839;6.4955;-16.2710;-0.6776;-0.0085;-0.0224;-0.0127
0000940851;6.2991;-16.2231;-0.5004;-0.0080;-0.0250;-0.0132
0000940860;6.4165;-16.2255;-0.6057;-0.0127;-0.0248;-0.0187
0000940873;6.4452;-16.1154;-0.5650;-0.0075;-0.0260;-0.0238
0000940882;6.1699;-16.4123;-0.5507;-0.0084;-0.0269;-0.0240
0000940894;6.1124;-16.4266;-0.5387;-0.0020;-0.0361;-0.0301
0000940903;6.2896;-16.2830;-0.6369;-0.0055;-0.0314;-0.0321
0000940972;6.2728;-16.3404;-0.6416;0.0055;-0.0426;-0.0377
0000940981;6.4979;-16.2183;-0.5076;0.0039;-0.0436;-0.0373
0000940990;6.4739;-16.1944;-0.5578;0.0012;-0.0432;-0.0425
0000941002;6.5218;-16.3237;-0.5986;-0.0003;-0.0408;-0.0381
0000941011;6.3422;-16.4123;-0.6105;-0.0025;-0.0348;-0.0341
0000941024;6.5242;-16.1848;-0.5339;0.0023;-0.0377;-0.0337
0000941033;6.4859;-16.3428;-0.6297;0.0116;-0.0393;-0.0382
0000941045;6.3949;-16.3668;-0.5938;0.0107;-0.0357;-0.0372
0000941054;6.3758;-16.3117;-0.5818;0.0084;-0.0378;-0.0422
0000941067;6.3422;-16.3189;-0.5722;0.0060;-0.0344;-0.0329
0000941076;6.4452;-16.1130;-0.6321;0.0019;-0.0380;-0.0314
0000941088;6.5577;-16.1776;-0.5746;0.0033;-0.0349;-0.0226
0000941097;6.5050;-16.1776;-0.5602;-0.0021;-0.0369;-0.0215
0000941110;6.4596;-16.2375;-0.5842;0.0008;-0.0360;-0.0249
0000941119;6.6224;-16.2710;-0.5650;-0.0024;-0.0354;-0.0203
0000941128;6.5769;-16.1920;-0.4788;0.0047;-0.0352;-0.0200
0000941140;6.6104;-16.1656;-0.5483;0.0039;-0.0321;-0.0234
0000941149;6.5218;-16.1896;-0.4860;-0.0040;-0.0269;-0.0133
0000941162;6.4404;-16.1249;-0.5243;-0.0009;-0.0278;-0.0205
0000941171;6.4284;-16.3093;-0.5052;-0.0016;-0.0305;-0.0140
0000941183;6.3829;-16.2782;-0.5746;-0.0021;-0.0312;-0.0135
0000941192;6.4332;-16.3261;-0.5076;-0.0057;-0.0230;-0.0089
0000941261;6.4572;-16.2662;-0.6321;-0.0216;-0.0207;-0.0181
0000941270;6.4308;-16.3285;-0.6393;-0.0205;-0.0257;-0.0175
0000941282;6.4811;-16.3476;-0.5267;-0.0115;-0.0260;-0.0181
0000941291;6.4212;-16.3668;-0.5890;-0.0084;-0.0293;-0.0161
0000941304;6.4284;-16.3165;-0.6321;-0.0024;-0.0294;-0.0164
0000941313;6.1794;-16.2949;-0.5459;-0.0045;-0.0344;-0.0233
0000941325;6.3638;-16.1800;-0.6009;-0.0115;-0.0313;-0.0207
0000941334;6.5553;-16.1082;-0.5938;-0.0200;-0.0316;-0.0212
0000941343;6.3518;-16.2518;-0.5914;-0.0209;-0.0338;-0.0250
0000941356;6.2944;-16.3452;-0.5411;-0.0225;-0.0378;-0.0220
0000941365;6.3997;-16.1848;-0.5411;-0.0305;-0.0414;-0.0246
0000941377;6.4045;-16.2925;-0.4956;-0.0330;-0.0361;-0.0141
0000941386;6.3303;-16.3428;-0.5626;-0.0298;-0.0441;-0.0216
0000941399;6.3542;-16.4290;-0.5219;-0.0317;-0.0430;-0.0157
0000941408;6.6439;-16.1178;-0.5986;-0.0265;-0.0438;-0.0183
0000941420;6.5146;-16.1656;-0.5914;-0.0325;-0.0410;-0.0133
0000941429;6.6415;-16.1178;-0.5698;-0.0388;-0.0412;-0.0157
0000941442;6.5553;-16.2064;-0.6440;-0.0374;-0.0401;-0.0192
0000941451;6.4452;-16.2351;-0.5914;-0.0397;-0.0358;-0.0147
0000941465;6.3638;-16.3668;-0.5363;-0.0361;-0.0346;-0.0218
0000941474;6.2920;-16.4386;-0.5100;-0.0320;-0.0402;-0.0264
0000941543;6.4069;-16.2782;-0.5411;-0.0248;-0.0324;-0.0131
0000941552;6.3901;-16.2279;-0.5890;-0.0288;-0.0292;-0.0073
0000941564;6.5314;-16.2471;-0.6321;-0.0290;-0.0245;-0.0076
0000941573;6.5218;-16.2183;-0.6680;-0.0286;-0.0268;-0.0091
0000941582;6.5050;-16.2566;-0.5363;-0.0297;-0.0234;-0.0073
0000941595;6.5434;-16.2542;-0.5842;-0.0230;-0.0316;-0.0139
0000941604;6.3829;-16.2255;-0.6129;-0.0233;-0.0280;-0.0073
0000941616;6.3805;-16.2997;-0.5746;-0.0137;-0.0329;-0.0133
0000941625;6.4452;-16.2734;-0.6369;-0.0229;-0.0292;-0.0084
0000941638;6.3997;-16.2303;-0.6009;-0.0213;-0.0309;-0.0099
0000941647;6.2848;-16.3763;-0.6201;-0.0180;-0.0341;-0.0115
0000941659;6.4260;-16.3596;-0.5578;-0.0199;-0.0358;-0.0147
0000941668;6.6415;-16.1609;-0.6584;-0.0196;-0.0304;-0.0076
0000941682;6.5434;-16.2159;-0.6009;-0.0183;-0.0292;-0.0113
0000941691;6.3327;-16.3309;-0.6033;-0.0133;-0.0368;-0.0187
0000941704;6.4572;-16.2566;-0.6345;-0.0175;-0.0310;-0.0099
0000941713;6.2489;-16.2997;-0.6871;-0.0144;-0.0357;-0.0165
0000941783;6.4356;-16.3069;-0.5339;0.0008;-0.0358;-0.0144
0000941792;6.3877;-16.2399;-0.6153;-0.0005;-0.0302;-0.0155
0000941801;6.4332;-16.3045;-0.5938;0.0084;-0.0350;-0.0177
0000941814;6.5290;-16.2782;-0.6201;0.0081;-0.0321;-0.0185
0000941823;6.5027;-16.2135;-0.5626;0.0107;-0.0274;-0.0145
0000941835;6.3877;-16.2279;-0.5866;0.0135;-0.0350;-0.0164
0000941844;6.5505;-16.1513;-0.5531;0.0071;-0.0272;-0.0125
0000941857;6.2608;-16.4601;-0.5866;0.0116;-0.0313;-0.0189
0000941866;6.3973;-16.1800;-0.6512;0.0032;-0.0285;-0.0148
0000941878;6.4787;-16.1896;-0.6129;0.0085;-0.0333;-0.0199
0000941887;6.4907;-16.2925;-0.5387;0.0175;-0.0338;-0.0233
0000941900;6.4596;-16.2734;-0.4980;0.0145;-0.0280;-0.0225
0000941907;6.6439;-16.0938;-0.5315;0.0056;-0.0261;-0.0208
0000941918;6.4763;-16.1369;-0.5698;0.0017;-0.0254;-0.0242
0000941926;6.3949;-16.2901;-0.5267;-0.0052;-0.0217;-0.0213
0000941934;6.3638;-16.2231;-0.4429;-0.0001;-0.0313;-0.0324
0000941946;6.4260;-16.3261;-0.5435;0.0021;-0.0349;-0.0318
0000941954;6.4260;-16.2231;-0.4980;0.0048;-0.0305;-0.0317
0000941965;6.3159;-16.2878;-0.5531;0.0132;-0.0394;-0.0360
0000941973;6.3255;-16.2734;-0.5435;0.0056;-0.0426;-0.0313
0000941985;6.2369;-16.2207;-0.5650;0.0032;-0.0526;-0.0320
0000941993;6.5122;-16.0483;-0.6081;0.0015;-0.0517;-0.0252
