time;acc_x;acc_y;acc_z;gyro_x;gyro_y;gyro_z
0000350137;-2.6504;-6.2632;4.3622;0.1450;-0.1059;-0.2005
0000350145;-2.7031;-6.2680;4.2258;0.1227;-0.1041;-0.1973
0000350152;-2.5666;-6.2082;4.3383;0.1107;-0.1107;-0.1940
0000350160;-2.3607;-6.1411;4.2665;0.0945;-0.1174;-0.1964
0000350169;-2.3487;-6.2249;4.4173;0.0743;-0.1127;-0.1912
0000350177;-2.4924;-6.3087;4.5059;0.0594;-0.1122;-0.1889
0000350189;-2.4588;-6.1962;4.6040;0.0260;-0.0981;-0.1777
0000350197;-2.3583;-6.1531;4.4796;0.0151;-0.1011;-0.1775
0000350205;-2.3559;-6.2345;4.5586;0.0036;-0.1103;-0.1767
0000350272;-2.3391;-6.8402;4.7166;-0.0152;-0.1239;-0.0821
0000350280;-2.3942;-6.9073;4.8267;-0.0246;-0.1049;-0.0596
0000350292;-2.7007;-7.0964;4.8435;-0.0320;-0.1095;-0.0205
0000350300;-2.6145;-7.1994;4.7956;-0.0352;-0.1179;-0.0049
0000350311;-2.8443;-7.4531;5.1260;-0.0300;-0.1346;0.0349
0000350319;-3.0765;-7.7572;5.2050;-0.0077;-0.1591;0.0605
0000350331;-3.1771;-8.0134;5.3079;0.0341;-0.1937;0.1079
0000350339;-2.7485;-8.0110;5.2289;0.0650;-0.2013;0.1370
0000350350;-2.0638;-7.8937;4.9823;0.0966;-0.1920;0.1540
0000350358;-1.3288;-7.3382;4.7764;0.1066;-0.1744;0.1468
0000350366;-0.9792;-7.0461;4.6040;0.0923;-0.1450;0.1227
0000350378;-0.8523;-6.2058;4.3718;0.0345;-0.0859;0.0771
0000350386;-1.0008;-5.7772;4.2329;-0.0240;-0.0582;0.0608
0000350397;-1.4413;-5.4755;4.3862;-0.0998;-0.0532;0.0453
0000350405;-2.1117;-5.6982;4.4173;-0.1673;-0.0454;0.0480
0000350417;-2.3990;-5.8275;4.4005;-0.2473;-0.0372;0.0581
0000350425;-2.5331;-6.0286;4.3072;-0.2991;-0.0213;0.0775
0000350436;-2.7102;-6.3590;4.1899;-0.3355;-0.0217;0.0961
0000350444;-2.7342;-6.5769;4.1348;-0.3619;-0.0148;0.1167
0000350456;-2.8012;-6.7181;4.1132;-0.3892;-0.0135;0.1270
0000350464;-2.6791;-6.5649;3.9552;-0.4022;-0.0080;0.1339
0000350472;-2.6695;-6.7493;3.9863;-0.4056;-0.0039;0.1348
0000350540;-2.4469;-6.7995;3.9385;-0.3854;0.0655;0.1692
0000350548;-2.4469;-6.7900;3.9337;-0.3808;0.0759;0.1629
0000350560;-2.5570;-6.8498;3.9983;-0.3754;0.1015;0.1568
0000350568;-2.6073;-6.8594;3.9121;-0.3697;0.1074;0.1512
0000350579;-2.6983;-6.7062;3.9193;-0.3732;0.1220;0.1623
0000350587;-2.5738;-6.4715;3.8882;-0.3780;0.1324;0.1711
0000350599;-2.6719;-6.4548;3.8140;-0.3818;0.1370;0.1847
0000350607;-2.6336;-6.3997;3.9792;-0.3973;0.1338;0.2017
0000350615;-2.7581;-6.3973;3.9528;-0.4038;0.1472;0.2150
0000350626;-2.6193;-6.2321;3.9241;-0.4206;0.1593;0.2244
0000350634;-2.8180;-6.0717;3.9313;-0.4379;0.1567;0.2306
0000350646;-2.9377;-6.2489;3.9696;-0.4596;0.1434;0.2290
0000350654;-2.8419;-6.3782;3.9552;-0.4696;0.1275;0.2269
0000350665;-2.9161;-6.4212;4.0510;-0.4823;0.1123;0.2282
0000350673;-2.8730;-6.5194;4.0031;-0.4822;0.0967;0.2216
0000350685;-3.0023;-6.8259;3.9672;-0.4740;0.0747;0.2048
0000350693;-2.8395;-6.6702;3.9480;-0.4600;0.0622;0.1791
0000350701;-2.7174;-6.9168;3.9289;-0.4451;0.0358;0.1571
0000350712;-2.8467;-7.3406;3.7709;-0.3588;0.0180;0.0823
0000350720;-2.9090;-7.5729;4.0773;-0.3380;-0.0145;0.0420
0000350732;-2.7318;-7.3119;3.8116;-0.3018;-0.0418;0.0063
0000350740;-2.5067;-7.1850;4.0127;-0.2955;-0.0292;0.0096
0000350808;-2.7438;-7.1587;4.2162;-0.1879;0.0053;-0.0541
0000350816;-2.9042;-7.2975;4.2473;-0.1629;-0.0141;-0.0685
0000350828;-3.0167;-7.3885;4.3263;-0.1351;-0.0284;-0.0694
0000350836;-2.9209;-7.2281;4.4508;-0.1146;-0.0390;-0.0671
0000350847;-2.6911;-7.1491;4.4053;-0.0869;-0.0497;-0.0614
0000350855;-2.6456;-7.0988;4.3144;-0.0697;-0.0420;-0.0486
0000350863;-2.6001;-7.1419;4.4317;-0.0581;-0.0389;-0.0458
0000350875;-2.4469;-7.1563;4.4628;-0.0373;-0.0261;-0.0290
0000350883;-2.6193;-7.1443;4.4269;-0.0314;-0.0203;-0.0145
0000350894;-2.4828;-7.0342;4.4341;-0.0161;-0.0124;-0.0076
0000350902;-2.3894;-6.8139;4.3287;-0.0171;-0.0028;0.0028
0000350914;-2.6528;-6.9456;4.3239;-0.0101;-0.0093;0.0059
0000350922;-2.8611;-6.8019;4.4293;-0.0125;-0.0160;0.0160
0000350933;-2.9951;-7.0150;4.3862;-0.0085;-0.0293;0.0143
0000350941;-2.7557;-6.8522;4.3479;-0.0119;-0.0262;0.0280
0000350953;-2.5714;-6.7445;4.2473;-0.0152;-0.0316;0.0302
0000350961;-2.5546;-6.8378;4.3814;-0.0131;-0.0368;0.0334
0000350969;-2.7533;-6.7588;4.2234;-0.0236;-0.0337;0.0400
0000350980;-2.7198;-6.8067;4.2329;-0.0240;-0.0469;0.0365
0000350988;-2.5642;-6.7445;4.2210;-0.0304;-0.0472;0.0410
0000351000;-2.5738;-6.6918;4.1994;-0.0352;-0.0496;0.0337
0000351008;-2.5522;-6.7038;4.1611;-0.0420;-0.0422;0.0368
0000351074;-2.6887;-6.9815;4.0007;0.0008;-0.0456;-0.0051
0000351082;-2.5977;-6.8666;4.0031;0.0141;-0.0498;-0.0143
0000351094;-2.8730;-7.0940;4.0606;0.0293;-0.0489;-0.0209
0000351102;-2.5833;-6.8211;4.0223;0.0426;-0.0498;-0.0254
0000351113;-2.5738;-6.6702;3.9169;0.0600;-0.0477;-0.0309
0000351121;-2.7102;-6.6679;3.9576;0.0625;-0.0356;-0.0325
0000351129;-2.6959;-6.7421;3.9049;0.0722;-0.0450;-0.0366
0000351141;-2.8204;-6.7636;3.9983;0.0806;-0.0452;-0.0389
0000351149;-2.8252;-6.6559;3.9528;0.0891;-0.0470;-0.0433
0000351160;-2.7653;-6.6702;3.9935;0.0881;-0.0461;-0.0390
0000351168;-2.7557;-6.6774;3.9816;0.0910;-0.0454;-0.0354
0000351180;-2.8491;-6.7086;3.9768;0.1017;-0.0480;-0.0444
0000351188;-2.7821;-6.6511;3.9935;0.0981;-0.0505;-0.0414
0000351199;-2.8132;-6.6080;3.8858;0.1029;-0.0565;-0.0466
0000351207;-2.7031;-6.5936;3.9456;0.0973;-0.0550;-0.0362
0000351219;-2.6217;-6.5769;4.0199;0.0963;-0.0613;-0.0313
0000351227;-2.6911;-6.5912;4.0007;0.0894;-0.0558;-0.0268
0000351235;-2.7174;-6.5481;3.9313;0.0914;-0.0569;-0.0281
0000351246;-2.8587;-6.6367;4.0989;0.0794;-0.0629;-0.0254
0000351254;-2.6528;-6.4979;4.0366;0.0735;-0.0617;-0.0226
0000351266;-2.6983;-6.6295;4.0294;0.0642;-0.0646;-0.0185
0000351274;-2.6863;-6.5841;4.0606;0.0541;-0.0687;-0.0131
0000351342;-2.6288;-6.6679;4.2138;-0.0404;-0.0602;0.0530
0000351350;-2.5331;-6.5769;4.2066;-0.0618;-0.0572;0.0576
0000351362;-2.5809;-6.5888;4.2401;-0.0862;-0.0548;0.0566
0000351370;-2.4229;-6.5242;4.2713;-0.1029;-0.0516;0.0662
0000351381;-2.4852;-6.6295;4.3622;-0.1236;-0.0554;0.0733
0000351389;-2.4995;-6.6272;4.3694;-0.1379;-0.0545;0.0830
0000351397;-2.6456;-6.7469;4.1659;-0.1475;-0.0625;0.0958
0000351409;-2.6217;-6.7900;4.3215;-0.1784;-0.0560;0.1095
0000351417;-2.4517;-6.6152;4.3886;-0.1943;-0.0610;0.1151
0000351428;-2.4110;-6.5027;4.2689;-0.2194;-0.0512;0.1223
0000351436;-2.3942;-6.5553;4.2784;-0.2336;-0.0472;0.1294
0000351448;-2.3535;-6.5649;4.2856;-0.2510;-0.0393;0.1287
0000351456;-2.5283;-6.6559;4.1851;-0.2630;-0.0361;0.1406
0000351467;-2.5450;-6.6607;4.2329;-0.2787;-0.0322;0.1418
0000351475;-2.5283;-6.5553;4.2760;-0.2900;-0.0381;0.1438
0000351487;-2.6025;-6.5266;4.1922;-0.3102;-0.0556;0.1422
0000351495;-2.5666;-6.6200;4.2114;-0.3285;-0.0604;0.1478
0000351503;-2.6384;-6.5218;4.2090;-0.3404;-0.0577;0.1506
0000351515;-2.6911;-6.7133;4.1180;-0.3571;-0.0593;0.1620
0000351523;-2.6336;-6.7062;4.1037;-0.3659;-0.0667;0.1647
0000351591;-2.6025;-6.6942;4.2042;-0.4342;-0.0850;0.1580
0000351599;-2.4493;-6.5601;4.2042;-0.4382;-0.0983;0.1491
0000351611;-2.5259;-6.6798;4.1707;-0.4453;-0.1013;0.1468
0000351619;-2.5690;-6.7612;4.2258;-0.4445;-0.0981;0.1412
0000351630;-2.6360;-6.9216;4.2306;-0.4415;-0.0994;0.1368
0000351638;-2.5522;-6.8905;4.2952;-0.4333;-0.0998;0.1267
0000351646;-2.6001;-6.9408;4.3191;-0.4223;-0.1045;0.1151
0000351658;-2.4900;-6.9743;4.2258;-0.3980;-0.1023;0.1151
0000351666;-2.2817;-6.8163;4.2856;-0.3873;-0.1023;0.1074
0000351677;-2.3080;-7.0222;4.2306;-0.3619;-0.0866;0.0981
0000351685;-2.4708;-7.1611;4.2617;-0.3396;-0.0818;0.0834
0000351697;-2.4349;-7.0509;4.3335;-0.3076;-0.0719;0.0701
0000351705;-2.4756;-7.0030;4.2832;-0.2851;-0.0666;0.0649
0000351716;-2.4612;-7.0629;4.2162;-0.2603;-0.0602;0.0497
0000351724;-2.4995;-7.1299;4.1875;-0.2342;-0.0630;0.0429
0000351736;-2.4972;-7.1539;4.2784;-0.2044;-0.0633;0.0199
0000351744;-2.4636;-7.1156;4.3120;-0.1989;-0.0497;0.0153
0000351752;-2.2673;-6.9288;4.1731;-0.1721;-0.0348;0.0100
0000351763;-2.2505;-7.0222;4.2258;-0.1533;-0.0204;0.0021
0000351771;-2.5115;-7.2760;4.1899;-0.1352;-0.0084;-0.0056
0000351783;-2.4493;-7.1132;4.1515;-0.1002;0.0149;-0.0111
0000351791;-2.3870;-7.1443;4.0773;-0.0819;0.0063;-0.0386
0000351859;-2.5905;-7.2688;4.1803;0.1275;0.0282;-0.1697
0000351867;-2.7150;-7.1108;4.2449;0.1440;0.0392;-0.1553
0000351879;-2.8012;-6.7828;4.2186;0.1555;0.0512;-0.1226
0000351887;-2.9760;-6.7253;4.2114;0.1576;0.0568;-0.0995
0000351898;-2.6695;-6.3614;4.1803;0.1347;0.0765;-0.0642
0000351906;-2.6001;-6.1818;4.1515;0.1179;0.0889;-0.0452
0000351914;-2.6264;-6.3183;4.0989;0.0902;0.1011;-0.0293
0000351926;-2.5355;-6.2776;4.0055;0.0478;0.1251;-0.0047
0000351934;-2.5809;-6.4428;3.9720;0.0277;0.1267;-0.0013
0000351945;-2.7677;-6.4763;4.0414;-0.0105;0.1334;0.0160
0000351953;-2.7150;-6.5003;3.9792;-0.0285;0.1186;0.0213
0000351965;-2.7988;-6.5936;3.9744;-0.0506;0.0994;0.0195
0000351973;-2.7102;-6.6008;3.8930;-0.0671;0.0950;0.0168
0000351984;-2.8156;-6.6750;3.8906;-0.0790;0.0785;0.0097
0000351992;-2.6839;-6.6655;3.9816;-0.0895;0.0721;-0.0027
0000352000;-2.7174;-6.7947;4.0055;-0.0961;0.0677;-0.0117
0000352012;-2.8874;-7.1587;3.9073;-0.0974;0.0492;-0.0242
0000352020;-2.8252;-7.1563;3.9313;-0.0982;0.0556;-0.0248
0000352031;-2.7198;-7.0797;3.9121;-0.0946;0.0693;-0.0425
0000352039;-2.7007;-7.1970;3.8283;-0.0758;0.0654;-0.0532
0000352051;-3.0071;-7.2927;3.9289;-0.0638;0.0398;-0.0562
0000352059;-2.9377;-7.1898;4.0749;-0.0570;0.0264;-0.0521
0000352127;-2.5163;-7.2856;4.2545;0.0520;-0.0298;-0.1155
0000352135;-2.4708;-7.2377;4.1970;0.0585;-0.0316;-0.1168
0000352147;-2.1596;-6.9647;4.1132;0.0779;-0.0217;-0.1307
0000352155;-2.2505;-6.9001;4.1372;0.0837;-0.0061;-0.1335
0000352163;-2.2386;-7.0629;4.0342;0.0787;0.0111;-0.1431
0000352174;-2.2003;-6.8139;4.0175;0.0874;0.0252;-0.1523
0000352182;-2.3774;-6.9408;4.0390;0.0878;0.0297;-0.1645
0000352194;-2.4301;-7.0126;4.0725;0.0999;0.0333;-0.1920
0000352202;-2.5450;-6.9360;4.1156;0.1116;0.0337;-0.2132
0000352213;-2.8084;-7.3215;4.0845;0.1262;0.0381;-0.2427
0000352221;-2.7773;-7.3502;4.2234;0.1502;0.0201;-0.2663
0000352233;-3.0526;-7.7069;4.2737;0.2025;-0.0040;-0.2868
0000352241;-3.0574;-7.8506;4.3167;0.2493;-0.0199;-0.2903
0000352249;-3.3662;-8.2744;4.4269;0.3082;-0.0476;-0.2971
0000352260;-3.2417;-8.2504;4.4843;0.3880;-0.0687;-0.2951
0000352268;-3.1292;-8.1427;4.5131;0.4514;-0.0770;-0.2850
0000352280;-3.0167;-7.9583;4.5633;0.5313;-0.0773;-0.2681
0000352288;-2.6839;-7.6950;4.5873;0.5923;-0.0842;-0.2698
0000352299;-2.5809;-7.4651;4.6519;0.6498;-0.0875;-0.2754
0000352307;-2.4181;-7.3263;4.4772;0.6844;-0.0971;-0.2936
0000352319;-2.6169;-7.3239;4.6184;0.7416;-0.1019;-0.3034
0000352327;-2.7102;-7.3574;4.6232;0.7726;-0.1006;-0.3011
0000352394;-2.2721;-6.4045;4.6448;0.8304;-0.1491;-0.1315
0000352402;-2.2122;-6.4069;4.6663;0.8239;-0.1689;-0.1322
0000352410;-2.0830;-6.3997;4.5586;0.8019;-0.1705;-0.1220
0000352422;-1.9321;-6.2680;4.5370;0.7646;-0.1681;-0.1195
0000352430;-1.8268;-6.1651;4.5298;0.7400;-0.1624;-0.1082
0000352441;-1.8340;-6.0813;4.5059;0.7003;-0.1456;-0.1087
0000352449;-1.8052;-5.9280;4.4412;0.6683;-0.1196;-0.1063
0000352461;-2.0590;-6.0645;4.6759;0.6360;-0.1162;-0.1220
0000352469;-2.0949;-6.1316;4.6543;0.6226;-0.1191;-0.1424
0000352480;-2.2170;-6.3949;4.7357;0.6079;-0.1280;-0.1579
0000352488;-2.1691;-6.3590;4.6112;0.5858;-0.1279;-0.1712
0000352500;-2.2194;-6.6415;4.5466;0.5728;-0.1350;-0.1883
0000352508;-2.1045;-6.8067;4.5849;0.5694;-0.1368;-0.2013
0000352516;-2.1141;-6.8881;4.5633;0.5696;-0.1362;-0.2113
0000352527;-2.1213;-7.0294;4.5179;0.5538;-0.1150;-0.2105
0000352535;-2.0614;-6.9168;4.4245;0.5533;-0.1053;-0.2168
0000352547;-2.2218;-6.9336;4.4005;0.5484;-0.0907;-0.2232
0000352555;-2.2051;-7.0581;4.3934;0.5317;-0.0749;-0.2090
0000352566;-2.3559;-6.9288;4.5155;0.5347;-0.0681;-0.1996
0000352574;-2.2697;-6.7756;4.4867;0.5256;-0.0612;-0.1827
0000352586;-2.5498;-6.8666;4.4652;0.5172;-0.0766;-0.1736
0000352594;-2.6983;-6.8522;4.5226;0.5220;-0.0890;-0.1733
0000352602;-2.3918;-6.8809;4.5466;0.5281;-0.1090;-0.1677
0000352670;-1.7765;-6.6032;4.7812;0.5798;-0.1400;-0.1916
0000352678;-1.6783;-6.4236;4.6974;0.5712;-0.1128;-0.1860
0000352690;-1.8866;-6.3638;4.7812;0.5540;-0.0737;-0.1956
0000352698;-1.5778;-6.2393;4.5442;0.5284;-0.0718;-0.1881
0000352709;-1.6664;-6.5218;4.5945;0.5127;-0.0653;-0.1705
0000352717;-1.8076;-6.4907;4.6040;0.5156;-0.0396;-0.1635
0000352729;-2.0638;-6.5649;4.6567;0.5172;-0.0116;-0.1535
0000352737;-2.3679;-6.7421;4.6448;0.5265;-0.0281;-0.1335
0000352748;-2.6767;-6.9336;4.6304;0.5520;-0.0612;-0.0898
0000352756;-2.5977;-6.9743;4.6352;0.5692;-0.0794;-0.0485
0000352764;-2.8156;-6.8929;4.6591;0.6005;-0.1087;-0.0048
0000352776;-2.8970;-6.9216;4.4700;0.6366;-0.1203;0.0610
0000352784;-2.6600;-6.8283;4.2952;0.6627;-0.1362;0.0994
0000352795;-2.4277;-6.7373;4.2401;0.6722;-0.1415;0.1406
0000352803;-2.3104;-6.6391;4.0845;0.6913;-0.1335;0.1483
0000352815;-1.8411;-6.3949;3.9217;0.7000;-0.1202;0.1579
0000352823;-1.8483;-6.2130;3.9097;0.6975;-0.0890;0.1695
0000352834;-1.9273;-6.0669;3.8738;0.6869;-0.0480;0.1613
0000352842;-2.2362;-5.8419;3.7781;0.6765;-0.0085;0.1478
0000352850;-2.6456;-5.9352;3.6152;0.6487;0.0081;0.1399
0000352862;-3.3016;-5.7772;3.6536;0.5877;0.0101;0.1324
0000352870;-3.6392;-5.5689;3.6536;0.5516;0.0011;0.1174
0000352938;-2.9449;-6.3135;3.3662;0.1191;-0.0184;-0.0237
0000352946;-2.9209;-6.6990;3.4309;0.1073;-0.0405;-0.0229
0000352957;-2.8108;-6.5290;3.5530;0.0889;-0.0376;-0.0115
0000352965;-2.7342;-6.5338;3.4764;0.0962;-0.0437;-0.0108
0000352977;-2.7366;-6.4117;3.6224;0.0946;-0.0410;-0.0099
0000352985;-2.5379;-6.1076;3.5889;0.0857;-0.0332;-0.0079
0000352996;-2.5666;-6.0382;3.6559;0.0801;-0.0324;-0.0107
0000353004;-2.4972;-5.9089;3.7014;0.0771;-0.0281;-0.0072
0000353012;-2.5139;-5.8706;3.7278;0.0697;-0.0188;-0.0041
0000353024;-2.8204;-6.0358;3.8116;0.0561;-0.0040;0.0045
0000353032;-2.7725;-5.9999;3.8092;0.0484;-0.0008;0.0031
0000353043;-2.8084;-6.0789;3.7278;0.0377;0.0032;-0.0016
0000353051;-2.7773;-6.1268;3.8188;0.0381;-0.0003;-0.0067
0000353063;-2.8826;-6.1196;3.8092;0.0175;-0.0069;-0.0027
0000353071;-2.7414;-5.9903;3.8044;0.0117;-0.0205;-0.0056
0000353082;-2.8443;-6.0908;3.9528;0.0053;-0.0216;0.0032
0000353090;-2.4636;-5.9903;3.8714;-0.0068;-0.0152;0.0212
0000353098;-2.4349;-6.0549;3.8642;-0.0137;-0.0079;0.0362
0000353110;-2.2194;-5.9903;3.7900;-0.0224;-0.0017;0.0461
0000353118;-2.2122;-5.8514;3.7541;-0.0238;0.0128;0.0584
0000353130;-2.0997;-6.0214;3.6966;-0.0264;0.0151;0.0763
0000353138;-2.1787;-6.1220;3.6607;-0.0284;0.0358;0.1014
0000353206;-2.9856;-5.7988;3.6176;-0.0304;0.0862;0.0905
0000353214;-2.8898;-5.6886;3.5578;-0.0373;0.0902;0.0837
0000353225;-2.8826;-5.6096;3.7038;-0.0442;0.0942;0.0743
0000353233;-2.8467;-5.3103;3.6871;-0.0600;0.0990;0.0657
0000353245;-2.8276;-5.3367;3.6775;-0.0778;0.0785;0.0548
0000353253;-2.9975;-5.3846;3.7661;-0.0942;0.0678;0.0554
0000353261;-3.0885;-5.3391;3.7924;-0.1220;0.0604;0.0533
0000353272;-3.2034;-5.3439;3.8810;-0.1529;0.0446;0.0557
0000353280;-3.1460;-5.3247;3.8379;-0.1772;0.0380;0.0550
0000353292;-3.1149;-5.1260;3.8547;-0.2157;0.0354;0.0532
0000353300;-3.1077;-5.3056;3.8762;-0.2423;0.0177;0.0520
0000353311;-2.8874;-5.2409;3.8547;-0.2799;0.0381;0.0462
0000353319;-2.7988;-5.3846;3.9792;-0.2943;0.0480;0.0374
0000353331;-2.7246;-5.5737;3.9049;-0.3078;0.0657;0.0246
0000353339;-2.6504;-5.7485;3.8762;-0.3127;0.0541;0.0288
0000353347;-2.5163;-5.9185;3.6488;-0.3024;0.0212;0.0389
0000353358;-2.7102;-6.0334;3.6775;-0.2723;0.0148;0.0445
0000353366;-2.9018;-6.1675;3.6559;-0.2437;-0.0075;0.0361
0000353378;-3.1484;-5.9951;3.6655;-0.2052;-0.0480;0.0257
0000353386;-3.2848;-6.0238;3.6512;-0.1880;-0.1003;0.0256
0000353398;-3.4357;-5.8466;3.7350;-0.1644;-0.1647;0.0362
0000353406;-3.3543;-5.7197;3.7828;-0.1464;-0.2021;0.0362
0000353474;-3.0526;-6.6176;3.4788;0.1119;-0.4056;-0.0242
0000353482;-3.0311;-6.4356;3.6176;0.1300;-0.4163;-0.0175
0000353490;-2.9161;-6.1363;3.6559;0.1451;-0.4157;-0.0079
0000353501;-2.7366;-5.7676;3.8116;0.1360;-0.4225;-0.0250
0000353509;-2.6911;-5.4851;3.8642;0.1158;-0.4029;-0.0329
0000353521;-2.4876;-5.5234;3.8978;0.0965;-0.3637;-0.0369
0000353529;-2.5139;-5.4540;3.5530;0.0801;-0.3589;-0.0378
0000353541;-2.3822;-5.7006;3.7469;0.0614;-0.4118;-0.0099
0000353549;-2.1811;-5.8323;3.9409;0.0362;-0.3953;0.0192
0000353561;-2.0399;-5.6910;4.0917;0.0216;-0.3423;0.0500
0000353569;-1.6592;-5.6575;4.1970;-0.0268;-0.3397;0.0632
0000353580;-1.6712;-6.1172;3.5075;-0.0489;-0.2457;0.0373
0000353588;-2.0279;-5.6168;3.0718;-0.0032;-0.0957;-0.0258
0000353596;-2.4684;-5.7293;3.5219;0.0091;-0.1322;-0.0629
0000353608;-3.0335;-6.3973;3.9433;0.0008;-0.2308;-0.0204
0000353616;-2.9640;-6.4691;4.0414;-0.0055;-0.2911;0.0064
0000353627;-2.9353;-6.5481;4.1061;-0.0056;-0.3264;0.0115
0000353635;-2.7845;-6.3638;4.4796;-0.0068;-0.3403;-0.0031
0000353647;-2.6432;-6.1244;5.2505;-0.0253;-0.3725;-0.0609
0000353655;-2.6049;-5.9975;5.6479;-0.0690;-0.3725;-0.1150
0000353667;-2.1572;-5.5426;5.8754;-0.1499;-0.3188;-0.2288
0000353675;-1.7693;-5.2648;6.0214;-0.2006;-0.2244;-0.3178
0000353743;-2.1332;-7.8961;4.4221;-0.0793;-0.2084;-0.4776
0000353751;-1.7861;-7.8578;4.4963;-0.0226;-0.2517;-0.4970
0000353759;-2.1380;-7.8913;4.6280;0.0330;-0.2614;-0.5380
0000353771;-2.0375;-7.4939;4.8171;0.0634;-0.2486;-0.6135
0000353779;-2.1332;-7.1323;4.8890;0.0758;-0.2543;-0.6580
0000353791;-1.9297;-6.7086;5.1954;0.0789;-0.2453;-0.6773
0000353799;-1.7406;-6.4643;5.3774;0.0779;-0.2581;-0.6667
0000353811;-1.8292;-6.3231;5.6862;0.0747;-0.2368;-0.6269
0000353819;-1.6759;-5.9568;5.9735;0.0799;-0.2142;-0.6006
0000353831;-1.9058;-6.2393;6.0238;0.1026;-0.2794;-0.5576
0000353839;-1.8268;-6.2944;6.1363;0.1292;-0.3108;-0.5396
0000353850;-1.6257;-6.7133;6.1986;0.1723;-0.3238;-0.5168
0000353858;-1.3072;-6.8331;6.1292;0.2242;-0.3439;-0.5232
0000353866;-1.1396;-7.1323;5.9544;0.2844;-0.3360;-0.5594
0000353878;0.0910;-6.8570;5.7676;0.3541;-0.3260;-0.6198
0000353886;-0.0239;-6.7971;5.4779;0.4104;-0.3124;-0.6672
0000353897;0.0000;-6.4476;5.3510;0.4133;-0.3094;-0.7638
0000353905;0.0144;-6.2321;5.3941;0.3814;-0.2922;-0.8232
0000353917;-0.4429;-5.8754;5.6503;0.3048;-0.2421;-0.8143
0000353925;-0.5531;-5.6910;5.7557;0.2392;-0.1984;-0.7233
0000353937;-0.7685;-5.1332;6.1220;0.1342;-0.1460;-0.5003
0000353945;-0.6871;-4.5179;6.2010;0.0518;-0.0770;-0.3151
0000354013;-2.2290;-6.2680;6.3279;-0.2793;0.1800;-0.0081
0000354021;-2.6552;-7.1084;6.4739;-0.2094;0.1781;-0.0385
0000354029;-2.9928;-7.6902;6.3566;-0.1251;0.1820;-0.0468
0000354040;-3.1364;-8.0325;6.2082;0.0027;0.1560;-0.0141
0000354048;-2.8754;-7.8985;6.0669;0.0895;0.1220;0.0140
0000354060;-1.9800;-7.2185;5.9999;0.1855;0.0697;0.0234
0000354068;-1.8292;-6.7828;6.0118;0.2292;0.0589;-0.0025
0000354079;-1.9680;-6.3470;5.3367;0.2252;0.0745;-0.0205
0000354087;-2.0087;-6.2058;5.1978;0.1769;-0.0180;-0.0065
0000354099;-2.5474;-6.0932;5.4037;0.0802;-0.2016;0.0894
0000354107;-2.5762;-5.7365;5.9041;-0.0044;-0.2281;0.1989
0000354115;-2.8323;-5.3343;6.4452;-0.0678;-0.2539;0.3368
0000354127;-2.4301;-4.2856;6.4548;-0.1915;-0.2746;0.5381
0000354135;-2.2745;-3.8068;5.9568;-0.2798;-0.2630;0.6736
0000354147;-1.4605;-3.1053;5.6360;-0.4206;-0.2241;0.7758
0000354155;-0.9050;-2.7557;5.4803;-0.5155;-0.2370;0.7851
0000354166;-0.7446;-2.9736;5.0973;-0.6206;-0.1911;0.7465
0000354174;-0.4645;-3.5769;4.8602;-0.7105;-0.1592;0.6979
0000354186;-0.6823;-4.6352;4.5107;-0.8022;-0.1816;0.6247
0000354194;-1.2402;-5.6455;4.5442;-0.8625;-0.1871;0.5987
0000354206;-1.6305;-6.4835;4.4604;-0.9301;-0.2204;0.6046
0000354214;-2.1117;-7.0102;4.3790;-0.9477;-0.2570;0.6265
0000354222;-2.1955;-7.0773;4.3263;-0.9738;-0.3135;0.6542
0000354290;-3.2154;-8.3270;5.6407;-0.4890;-1.1101;0.5580
0000354298;-3.1340;-8.2337;5.1882;-0.4132;-1.1728;0.5401
0000354310;-2.2338;-7.7261;4.6136;-0.3432;-1.2963;0.5003
0000354318;-1.3599;-7.3765;4.6783;-0.3255;-1.3418;0.4704
0000354330;-0.1891;-6.8378;4.4412;-0.3148;-1.3396;0.4799
0000354338;0.4142;-6.6391;4.3167;-0.3135;-1.3452;0.4984
0000354350;0.5363;-6.7876;4.7908;-0.3035;-1.2979;0.5640
0000354358;0.1604;-6.7229;4.9273;-0.2863;-1.2678;0.5895
0000354366;-0.2322;-6.8977;5.1332;-0.2872;-1.2384;0.5769
0000354378;-1.1468;-6.7229;5.2313;-0.2769;-1.2588;0.5265
0000354386;-1.1420;-6.6295;5.3630;-0.2813;-1.2725;0.4783
0000354398;-0.6177;-6.3327;5.2984;-0.2918;-1.2628;0.4097
0000354406;-0.2346;-6.2297;5.0206;-0.2952;-1.2482;0.3917
0000354418;0.4717;-6.1124;5.1332;-0.3007;-1.2148;0.3916
0000354426;0.4812;-6.3829;5.0302;-0.3100;-1.1954;0.3929
0000354438;0.7350;-6.7181;4.8746;-0.2918;-1.2015;0.3986
0000354446;0.8499;-7.0150;4.9177;-0.2577;-1.1924;0.4106
0000354458;1.0702;-7.2736;5.1380;-0.1921;-1.1910;0.4366
0000354466;1.1803;-7.3143;5.3606;-0.1579;-1.1571;0.4339
0000354474;1.1684;-6.9815;5.7269;-0.1404;-1.0885;0.4258
0000354486;1.5251;-6.5194;5.9807;-0.1887;-0.9859;0.3898
0000354494;1.3575;-5.9400;6.2465;-0.2542;-0.9046;0.3540
0000354562;1.6400;-7.4196;6.4500;-0.3653;-0.7478;0.3308
0000354570;1.8675;-7.6255;6.7086;-0.3207;-0.6891;0.3351
0000354582;2.0614;-7.0270;6.7086;-0.2890;-0.5764;0.3028
0000354590;2.2697;-6.2824;6.9456;-0.3118;-0.5227;0.2713
0000354602;2.0087;-5.3965;6.9576;-0.3850;-0.4339;0.2471
0000354610;2.0542;-5.0087;7.0509;-0.4403;-0.4096;0.2670
0000354618;1.9968;-5.0254;7.2784;-0.4926;-0.4006;0.3103
0000354630;1.9800;-5.4157;7.0749;-0.5407;-0.3589;0.3713
0000354638;2.2865;-6.1531;6.9599;-0.5462;-0.3464;0.4050
0000354650;2.4541;-6.9504;6.8642;-0.5116;-0.2794;0.4100
0000354658;2.4804;-7.3981;6.8402;-0.4686;-0.2332;0.4177
0000354670;2.4134;-7.5322;6.8331;-0.3957;-0.1717;0.4162
0000354678;2.2075;-7.2401;6.6200;-0.3483;-0.0831;0.3953
0000354690;2.5163;-6.9480;6.6990;-0.3134;-0.0682;0.3830
0000354698;2.7078;-6.8019;6.6439;-0.2851;0.0137;0.3969
0000354706;2.7581;-6.7349;6.6631;-0.2673;0.0524;0.3960
0000354718;3.1316;-7.0653;6.4572;-0.2224;0.1260;0.4263
0000354726;3.1173;-7.0174;6.3901;-0.1935;0.2150;0.4374
0000354738;2.7246;-6.7469;6.2489;-0.1745;0.3172;0.4349
0000354746;3.1627;-7.0509;6.4380;-0.1597;0.3317;0.4559
0000354758;3.1292;-6.8522;6.2225;-0.1458;0.4467;0.4415
0000354766;2.5905;-6.7828;6.1316;-0.1262;0.5179;0.4405
0000354774;2.3152;-6.6295;6.0765;-0.1187;0.5678;0.4381
0000354842;1.5323;-6.4069;6.2417;-0.1772;1.0717;0.3633
0000354850;0.9242;-6.7277;6.4093;-0.1933;1.0922;0.3619
0000354862;0.4022;-6.7900;6.3853;-0.2022;1.1517;0.3459
0000354870;0.5171;-6.7804;6.1459;-0.2144;1.1627;0.3469
0000354882;0.6464;-7.0437;5.9352;-0.2120;1.2071;0.3206
0000354890;0.6991;-7.2664;5.9879;-0.2172;1.2457;0.3186
0000354902;0.6105;-7.4531;5.8371;-0.1940;1.2909;0.3328
0000354910;0.4669;-7.3023;5.7700;-0.1819;1.3420;0.3480
0000354918;0.7063;-7.3454;5.8802;-0.1672;1.3791;0.3472
0000354930;0.1604;-7.8697;5.5737;-0.1332;1.4603;0.3584
0000354938;0.1891;-7.5561;5.5067;-0.1059;1.5298;0.3615
0000354950;-0.1844;-7.9368;5.3558;-0.0485;1.5680;0.3822
0000354958;-0.2011;-7.9057;5.1020;0.0230;1.6117;0.4065
0000354970;-0.3136;-8.1211;4.8507;0.1027;1.7020;0.4297
0000354978;-0.1221;-8.0517;4.7262;0.1539;1.7638;0.4435
0000354986;-0.1724;-7.8578;4.4843;0.2134;1.8263;0.4694
0000354998;-1.1444;-7.6806;4.2665;0.2653;1.9408;0.4862
0000355006;-1.6424;-7.4675;4.3431;0.3146;1.9975;0.4760
0000355018;-2.0039;-7.0725;4.1468;0.3584;2.0471;0.4519
0000355026;-2.0016;-6.9097;3.9169;0.3866;2.0563;0.4510
0000355038;-1.8004;-6.5434;3.6344;0.4501;2.0801;0.4423
0000355046;-1.7693;-6.3255;3.5051;0.4706;2.1176;0.4471
0000355114;-2.4493;-4.4580;2.8228;0.6219;2.2008;1.0477
0000355122;-2.9113;-4.4724;3.1364;0.6258;2.2352;1.1289
0000355130;-3.0622;-4.0773;3.1101;0.6372;2.2616;1.1824
0000355142;-3.7134;-3.4165;2.9161;0.6658;2.2571;1.2460
0000355152;-4.3120;-2.8276;2.9544;0.6703;2.2455;1.2682
0000355164;-5.4731;-2.2482;2.6408;0.6799;2.2464;1.2606
0000355173;-6.4524;-2.0063;2.4349;0.6516;2.2580;1.2424
0000355186;-8.2241;-2.4038;2.5929;0.6359;2.2279;1.2361
0000355195;-9.4667;-2.7509;2.9090;0.6499;2.1962;1.2316
0000355204;-10.4387;-2.6695;3.0789;0.6760;2.1085;1.2053
0000355217;-10.7643;-2.3200;3.2633;0.6803;1.9013;1.1142
0000355226;-10.5919;-1.8818;3.1915;0.6444;1.7778;1.0063
0000355239;-9.7659;-1.1995;3.1077;0.5440;1.6109;0.8532
0000355248;-9.6103;-0.9673;3.3088;0.4514;1.5503;0.7610
0000355261;-9.7875;-0.3974;3.3758;0.2883;1.4801;0.6025
0000355270;-9.9000;-0.4357;3.1915;0.1852;1.3813;0.5023
0000355283;-10.2137;-0.3950;3.1125;0.0420;1.2127;0.4213
0000355292;-9.8138;-0.6656;2.7342;-0.0340;1.0364;0.4052
0000355301;-8.8011;-1.1396;2.2218;-0.0833;0.8220;0.4467
0000355314;-7.3885;-1.9992;1.7933;-0.0790;0.5391;0.5191
0000355323;-6.6008;-2.5474;1.5275;-0.0677;0.4185;0.5798
0000355336;-5.3726;-2.7677;1.0702;-0.0152;0.3107;0.6578
0000355345;-4.6471;-2.9999;0.9792;0.0346;0.2394;0.7226
0000355414;-2.5235;-1.9680;-0.5555;-0.1338;0.4445;0.7001
0000355423;-3.2106;-2.1093;-0.2203;-0.2066;0.4608;0.6723
0000355436;-3.8140;-1.8627;0.1844;-0.2814;0.4074;0.6423
0000355445;-4.0989;-2.0518;0.0790;-0.2936;0.3864;0.6331
0000355454;-4.0677;-2.0734;-0.2179;-0.2908;0.3765;0.6151
0000355467;-4.0989;-2.0207;-0.1293;-0.3054;0.3912;0.5496
0000355476;-3.9576;-1.6185;-0.0886;-0.3196;0.4389;0.5133
0000355489;-4.1276;-1.3671;0.0359;-0.3615;0.4726;0.4606
0000355498;-4.3287;-1.2067;-0.3472;-0.4243;0.4334;0.4217
0000355511;-4.5777;-0.7614;-0.2107;-0.5452;0.3720;0.3810
0000355520;-4.3215;-0.7422;0.0503;-0.6270;0.3002;0.3663
0000355533;-3.8355;-0.7207;0.1197;-0.7249;0.2221;0.3942
0000355542;-3.1125;-0.9505;0.1748;-0.7596;0.2181;0.4145
0000355555;-2.3966;-1.1684;0.0072;-0.7833;0.2377;0.4210
0000355564;-2.2170;-1.4269;-0.1748;-0.7782;0.2562;0.4118
0000355573;-2.1955;-1.6544;-0.1437;-0.7621;0.2725;0.4173
0000355586;-2.4541;-2.2721;-0.2155;-0.6968;0.2698;0.4302
0000355595;-2.7126;-2.5043;-0.2777;-0.6392;0.2449;0.4409
0000355608;-2.6169;-2.2482;-0.1844;-0.5602;0.1944;0.4704
0000355617;-2.3439;-1.8364;-0.0622;-0.5233;0.1768;0.4890
0000355630;-1.5945;-1.0487;-0.2011;-0.4631;0.1721;0.5105
0000355639;-1.2570;-0.6009;-0.2610;-0.4479;0.2113;0.5255
0000355709;-1.5347;-0.7039;-1.2115;-0.4323;0.4174;0.4788
0000355718;-1.5730;-0.9290;-1.1349;-0.4455;0.4470;0.4529
0000355731;-1.6376;-0.9026;-1.3671;-0.4482;0.4844;0.4375
0000355740;-1.8914;-1.0582;-1.6352;-0.4683;0.4939;0.4431
0000355749;-2.1907;-1.0726;-1.3479;-0.4744;0.4563;0.4485
0000355761;-2.8539;-1.0223;-1.1229;-0.4796;0.3978;0.4791
0000355770;-3.1053;-1.0151;-0.7925;-0.4930;0.3388;0.5003
0000355783;-3.2130;-1.3575;-0.6105;-0.4922;0.2341;0.4995
0000355792;-2.8778;-1.4461;-0.6081;-0.5032;0.1895;0.4851
0000355804;-2.2146;-1.5969;-0.4788;-0.4606;0.1712;0.4523
0000355813;-1.7478;-1.6735;-0.4669;-0.4345;0.1804;0.4357
0000355826;-1.1803;-1.3623;-0.3136;-0.3925;0.2200;0.4445
0000355835;-0.7015;-1.0247;-0.4477;-0.3808;0.2539;0.4619
0000355844;-0.9697;-0.9649;-0.1939;-0.3495;0.2801;0.4714
0000355856;-0.8499;-1.0008;-0.1724;-0.3356;0.3114;0.4886
0000355865;-1.0774;-0.7470;0.0790;-0.3111;0.3315;0.5197
0000355878;-0.9744;-0.4980;0.0168;-0.3071;0.3838;0.5518
0000355887;-1.1277;-0.2753;0.2442;-0.2954;0.4034;0.5780
0000355957;-1.1013;0.4717;0.2322;-0.4960;0.3580;0.7681
0000355966;-1.0247;0.1508;0.2753;-0.4995;0.3849;0.7922
0000355979;-0.7015;0.0000;-0.1532;-0.5161;0.4251;0.8162
0000355988;-0.5890;-0.1604;-0.2777;-0.5104;0.4575;0.8444
0000356000;-0.5267;-0.5986;-0.1341;-0.4517;0.4964;0.8895
0000356009;-0.3855;-0.4238;-0.3256;-0.4265;0.5415;0.9262
0000356018;-0.1891;-0.3304;-0.3591;-0.4069;0.5792;0.9459
0000356031;-0.6201;-0.6991;-0.5986;-0.3692;0.6781;0.9352
0000356040;-0.5124;-0.4310;-0.8380;-0.3475;0.7621;0.9164
0000356052;-0.7877;-0.1844;-1.2426;-0.3128;0.8034;0.8508
0000356061;-1.3455;0.0024;-1.4533;-0.2731;0.7706;0.7978
0000356074;-1.8914;0.5291;-1.5275;-0.2374;0.5826;0.8235
0000356083;-2.7126;0.2969;-1.1708;-0.1895;0.4016;0.8668
0000356095;-2.9688;0.4884;-0.7829;-0.1444;0.1863;0.9164
0000356104;-3.0335;0.4453;-0.4357;-0.1781;0.1065;0.9080
0000356113;-2.6001;0.8787;-0.2466;-0.2477;0.0802;0.8611
0000356126;-1.6712;0.9864;-0.2251;-0.3837;0.1057;0.8200
0000356135;-1.3575;0.7709;-0.5531;-0.4499;0.1043;0.8492
0000356147;-1.4700;-0.3639;-0.8260;-0.4502;0.1560;0.7853
0000356156;-1.8292;-0.9074;-1.1277;-0.4018;0.2050;0.6639
0000356169;-2.7366;-1.3048;-1.5850;-0.2984;0.1968;0.4747
0000356178;-3.1149;-0.9409;-2.2266;-0.2148;0.1228;0.3749
0000356248;2.2984;1.5107;-0.1484;-0.0795;-1.1028;0.1144
0000356257;3.0263;1.4916;-0.0263;-0.1115;-0.8583;0.0577
0000356266;3.1675;1.1995;0.0192;-0.1134;-0.6491;0.0306
0000356279;3.1220;1.3862;-0.1580;-0.0641;-0.4495;0.0966
0000356288;2.8108;1.6735;-0.0718;-0.0334;-0.4466;0.1956
0000356300;2.7198;1.8723;-0.0622;0.0049;-0.5132;0.3360
0000356309;2.4062;1.9465;0.0958;0.0261;-0.5203;0.4187
0000356322;1.6879;1.7095;0.4621;0.0051;-0.4295;0.3914
0000356331;1.5155;1.9824;0.5339;-0.0127;-0.4166;0.3509
0000356343;1.4796;2.1213;0.5435;-0.0532;-0.4401;0.3355
0000356352;1.4150;1.9345;0.5531;-0.0679;-0.4369;0.3083
0000356361;1.3527;2.1045;0.4645;-0.0757;-0.3896;0.2745
0000356374;1.1851;2.0638;0.3855;-0.1030;-0.3864;0.2482
0000356383;1.1181;2.1787;0.4908;-0.1312;-0.4159;0.2569
0000356395;0.7302;1.9968;0.4908;-0.1759;-0.4521;0.2730
0000356404;0.8188;2.0518;0.4525;-0.2014;-0.4923;0.2786
0000356417;1.0511;2.1715;0.6967;-0.2304;-0.4922;0.2667
0000356426;1.2977;2.1165;0.7183;-0.2489;-0.4451;0.2381
0000356435;1.0918;1.8172;0.7063;-0.2618;-0.4177;0.2112
0000356447;0.9792;1.4126;0.6345;-0.2586;-0.4037;0.1772
0000356456;0.7230;1.3168;0.6201;-0.2401;-0.4166;0.1555
0000356469;0.6105;1.2019;0.6009;-0.2010;-0.4363;0.1298
0000356478;0.4525;0.9361;0.6632;-0.1697;-0.4478;0.1215
0000356548;1.6712;1.4653;0.8667;0.0604;-0.4277;-0.0530
0000356557;1.9800;1.4676;0.8571;0.0711;-0.4041;-0.0648
0000356570;1.7142;1.4198;0.8284;0.0722;-0.3591;-0.0505
0000356579;1.8842;1.5610;0.8452;0.0737;-0.3505;-0.0401
0000356588;1.5467;1.5778;1.0151;0.0809;-0.3267;-0.0218
0000356600;1.2761;1.5275;0.9242;0.0683;-0.2645;-0.0187
0000356609;1.1277;1.5993;1.0247;0.0428;-0.2166;-0.0222
0000356622;1.0247;1.4198;0.8715;0.0250;-0.1982;-0.0301
0000356631;1.0104;1.6041;0.8284;0.0290;-0.2030;-0.0354
0000356643;1.1468;1.5131;1.0032;0.0159;-0.1691;-0.0340
0000356652;1.2785;1.6472;1.0822;-0.0068;-0.1124;-0.0436
0000356665;1.5395;1.6735;1.0463;-0.0237;-0.0646;-0.0410
0000356674;1.3767;1.5610;0.8859;-0.0201;-0.0365;-0.0302
0000356683;1.4030;1.4413;0.8715;-0.0225;0.0001;-0.0180
0000356695;1.0391;1.4676;0.9194;-0.0171;0.0116;-0.0193
0000356704;0.8380;1.4365;0.8859;-0.0163;0.0077;-0.0213
0000356717;0.7829;1.4054;0.9457;-0.0115;-0.0137;-0.0230
0000356726;0.9553;1.6281;0.9002;-0.0212;-0.0077;-0.0201
0000356738;0.7518;1.5275;0.8859;-0.0264;-0.0157;-0.0200
0000356747;0.8978;1.5467;0.9577;-0.0292;-0.0209;-0.0189
0000356756;0.9385;1.5778;0.9290;-0.0373;-0.0340;-0.0061
0000356769;0.6464;1.6592;0.9457;-0.0352;-0.0496;0.0053
0000356778;0.4573;1.5299;1.0391;-0.0437;-0.0628;0.0091
0000356848;0.7829;1.4533;0.8811;-0.0509;-0.0229;-0.0143
0000356857;0.5866;1.3647;0.8763;-0.0534;-0.0197;-0.0080
0000356870;0.6201;1.3623;0.8643;-0.0338;-0.0284;-0.0107
0000356879;0.7135;1.2953;0.8859;-0.0201;-0.0368;-0.0128
0000356891;0.9816;1.3024;0.9170;-0.0147;-0.0304;-0.0175
0000356900;1.1037;1.2689;0.8882;-0.0173;-0.0081;-0.0172
0000356909;0.9936;1.1133;0.9313;-0.0040;-0.0004;-0.0274
0000356922;1.0056;1.4916;0.8859;-0.0016;0.0057;-0.0177
0000356931;0.9409;1.4796;0.9122;-0.0051;0.0140;-0.0100
0000356943;0.8380;1.5682;0.7518;0.0029;-0.0005;-0.0063
0000356952;0.7254;1.4054;0.8188;0.0156;-0.0189;-0.0065
0000356965;0.7542;1.3455;0.9026;0.0266;-0.0369;-0.0132
0000356974;0.9577;1.4533;0.9050;0.0238;-0.0298;-0.0063
0000356986;0.8380;1.4102;0.9313;0.0254;-0.0273;-0.0191
0000356995;1.0726;1.4748;0.9625;0.0324;-0.0265;-0.0285
0000357004;1.0894;1.5371;0.8332;0.0250;-0.0212;-0.0321
0000357017;0.9577;1.6400;0.8021;0.0269;-0.0345;-0.0321
0000357026;0.8140;1.5227;0.7949;0.0181;-0.0388;-0.0179
0000357038;1.0127;1.6999;0.8212;0.0185;-0.0433;-0.0272
0000357047;0.8523;1.5179;0.8284;0.0185;-0.0500;-0.0282
0000357060;0.8643;1.6113;0.7039;0.0107;-0.0554;-0.0300
0000357069;0.7757;1.6855;0.7853;0.0133;-0.0584;-0.0304
0000357078;0.9601;1.7526;0.7135;0.0017;-0.0658;-0.0270
0000357148;0.8021;1.6376;0.6919;0.0027;-0.0362;-0.0334
0000357157;0.6201;1.6089;0.8475;-0.0060;-0.0410;-0.0393
0000357170;0.7829;1.4341;0.6728;-0.0159;-0.0361;-0.0356
0000357179;0.7302;1.3671;0.6057;-0.0111;-0.0520;-0.0296
0000357190;0.7374;1.4940;0.7973;-0.0040;-0.0769;-0.0173
0000357199;0.6129;1.4844;0.8691;-0.0104;-0.0730;-0.0069
0000357213;0.7925;1.5490;0.9529;-0.0171;-0.0747;-0.0167
0000357222;0.8691;1.4796;0.8356;-0.0132;-0.0719;-0.0238
0000357231;1.0247;1.5754;0.8859;-0.0257;-0.0655;-0.0226
0000357244;1.0223;1.5131;1.0511;-0.0350;-0.0444;-0.0171
0000357253;1.1061;1.5586;0.9385;-0.0342;-0.0396;-0.0207
0000357265;0.9840;1.3719;0.9290;-0.0406;-0.0258;-0.0128
0000357274;0.9481;1.4581;0.9577;-0.0422;-0.0244;-0.0169
0000357287;1.0127;1.5706;0.9098;-0.0380;-0.0232;-0.0157
0000357296;0.9242;1.4892;0.9337;-0.0416;-0.0258;-0.0065
0000357308;0.7781;1.4293;0.9960;-0.0421;-0.0301;0.0009
0000357317;0.8835;1.4605;0.9960;-0.0388;-0.0393;-0.0053
0000357326;0.6847;1.3048;1.0989;-0.0424;-0.0261;0.0023
0000357339;0.7590;1.4293;1.0415;-0.0453;-0.0246;0.0045
0000357348;1.2617;1.6903;0.8739;-0.0373;-0.0293;-0.0053
0000357360;0.8835;1.2091;0.9529;-0.0332;-0.0233;-0.0103
0000357369;1.0151;1.4054;0.8882;-0.0294;-0.0147;-0.0060
0000357438;0.9313;1.4461;0.9337;0.0045;-0.0313;-0.0059
0000357447;0.8547;1.3575;0.8787;0.0035;-0.0298;-0.0132
0000357459;0.6943;1.3336;0.7901;0.0012;-0.0250;-0.0029
0000357468;0.5986;1.3024;0.8595;0.0076;-0.0312;-0.0095
0000357477;0.8715;1.5850;0.8499;0.0036;-0.0301;-0.0117
0000357490;0.8188;1.3982;0.7638;0.0072;-0.0386;-0.0109
0000357499;0.8571;1.4126;0.8188;0.0069;-0.0292;-0.0033
0000357511;0.9170;1.5562;0.8236;0.0135;-0.0245;-0.0035
0000357520;0.9242;1.4892;0.8859;0.0139;-0.0261;-0.0079
0000357533;0.9601;1.4988;0.7973;0.0087;-0.0081;-0.0101
0000357542;1.0032;1.6137;0.8260;0.0084;-0.0112;-0.0207
0000357554;0.8045;1.5107;0.7781;0.0012;-0.0059;-0.0149
0000357563;0.7805;1.5299;0.7709;0.0047;-0.0144;-0.0133
0000357572;0.7015;1.4629;0.8116;0.0039;-0.0225;-0.0176
0000357585;0.8332;1.5155;0.8021;0.0044;-0.0278;-0.0175
0000357594;0.9601;1.5203;0.8523;0.0051;-0.0177;-0.0129
0000357606;0.9337;1.5203;0.8619;-0.0007;-0.0159;-0.0213
0000357615;0.9505;1.5227;0.8236;-0.0027;-0.0127;-0.0199
0000357628;0.9912;1.5802;0.7254;0.0003;-0.0027;-0.0167
0000357637;0.8116;1.4006;0.8212;-0.0019;-0.0071;-0.0124
0000357646;0.7398;1.5227;0.7350;0.0081;-0.0187;-0.0207
0000357658;0.7757;1.3791;0.8380;0.0023;-0.0256;-0.0115
0000357667;0.9649;1.5203;0.9122;0.0060;-0.0442;-0.0199
0000357736;0.7973;1.3982;0.8475;-0.0128;-0.0229;-0.0208
0000357745;1.0319;1.5203;0.7638;-0.0107;-0.0132;-0.0212
0000357757;1.0534;1.5419;0.7877;-0.0068;-0.0181;-0.0220
0000357766;1.0056;1.4676;0.7614;0.0000;-0.0147;-0.0270
0000357779;0.9385;1.5012;0.8284;0.0013;-0.0149;-0.0289
0000357788;0.9864;1.5850;0.8763;-0.0017;-0.0019;-0.0297
0000357797;0.9074;1.5682;0.8236;-0.0041;0.0087;-0.0296
0000357809;0.7326;1.4844;0.6560;-0.0108;0.0104;-0.0360
0000357818;0.6440;1.3431;0.7039;0.0015;-0.0060;-0.0364
0000357831;0.6321;1.3767;0.7590;0.0027;-0.0168;-0.0253
0000357840;0.7590;1.4700;0.7590;0.0080;-0.0213;-0.0280
0000357852;0.9218;1.5036;0.6728;0.0039;-0.0208;-0.0329
0000357861;0.9313;1.5682;0.8188;0.0013;-0.0240;-0.0329
0000357870;0.8571;1.5275;0.6728;-0.0044;-0.0129;-0.0328
0000357883;0.8882;1.3599;0.7757;-0.0081;0.0051;-0.0332
0000357892;0.8475;1.4198;0.8045;-0.0052;0.0061;-0.0361
0000357904;0.9409;1.5107;0.7685;-0.0104;0.0143;-0.0314
0000357913;0.6991;1.4724;0.7087;-0.0156;0.0195;-0.0325
0000357926;0.6057;1.4844;0.6632;-0.0145;0.0125;-0.0296
0000357935;0.5315;1.3384;0.7374;-0.0188;-0.0012;-0.0168
0000357947;0.5483;1.4437;0.7853;-0.0213;-0.0067;-0.0148
0000357956;0.7183;1.4700;0.8428;-0.0224;-0.0199;-0.0181
0000357965;0.8045;1.5490;0.6991;-0.0261;-0.0290;-0.0101
0000358034;1.0008;1.4629;0.8667;-0.0127;-0.0043;-0.0167
0000358043;0.8045;1.3503;0.8404;-0.0143;0.0019;-0.0161
0000358055;0.9026;1.4461;0.8236;-0.0171;-0.0027;-0.0183
0000358064;0.9673;1.5036;0.7829;-0.0120;-0.0043;-0.0241
0000358077;0.8380;1.5251;0.7278;-0.0136;-0.0064;-0.0189
0000358086;0.8787;1.3599;0.7566;-0.0107;-0.0111;-0.0129
0000358098;0.7638;1.4796;0.7470;-0.0020;-0.0179;-0.0209
0000358107;0.6680;1.4269;0.7254;-0.0080;-0.0177;-0.0108
0000358116;0.6225;1.5036;0.7781;-0.0077;-0.0266;-0.0195
0000358129;0.7973;1.5012;0.7350;-0.0043;-0.0392;-0.0192
0000358138;0.8260;1.5299;0.6632;-0.0091;-0.0322;-0.0119
0000358150;0.8859;1.5395;0.7877;-0.0080;-0.0324;-0.0177
0000358159;0.7733;1.3767;0.6991;-0.0036;-0.0305;-0.0184
0000358172;0.8643;1.4868;0.6608;-0.0068;-0.0240;-0.0091
0000358181;0.8571;1.4988;0.7135;-0.0111;-0.0264;-0.0185
0000358193;0.7159;1.4485;0.7135;-0.0159;-0.0240;-0.0168
0000358202;0.7829;1.5826;0.6129;-0.0226;-0.0265;-0.0157
0000358211;0.8236;1.5347;0.7254;-0.0230;-0.0365;-0.0192
0000358224;0.8164;1.4054;0.7901;-0.0256;-0.0253;-0.0133
0000358233;0.9385;1.5969;0.8092;-0.0284;-0.0256;-0.0104
0000358245;0.7494;1.4892;0.7542;-0.0306;-0.0364;-0.0133
0000358254;0.9002;1.6113;0.6895;-0.0265;-0.0292;-0.0071
0000358323;0.7542;1.4509;0.6871;-0.0216;-0.0456;-0.0052
0000358332;0.6369;1.3192;0.6991;-0.0253;-0.0445;-0.0024
0000358344;0.7901;1.3503;0.7781;-0.0189;-0.0510;-0.0085
0000358351;0.7230;1.3910;0.8930;-0.0211;-0.0453;-0.0031
0000358359;0.8787;1.3982;0.8835;-0.0229;-0.0418;-0.0068
0000358371;0.9529;1.5778;0.8116;-0.0221;-0.0372;-0.0084
0000358379;0.8475;1.5538;0.7973;-0.0213;-0.0337;-0.0129
0000358390;0.9481;1.4892;0.7853;-0.0179;-0.0304;-0.0167
0000358398;0.9481;1.4126;0.8547;-0.0139;-0.0286;-0.0147
0000358410;0.7446;1.4006;0.7781;-0.0159;-0.0286;-0.0085
