time;acc_x;acc_y;acc_z;gyro_x;gyro_y;gyro_z
0001345208;-2.2936;-8.3222;4.6950;0.0252;-0.1438;-0.0935
0001345216;-2.1955;-8.0397;4.6735;0.0501;-0.1508;-0.1179
0001345223;-2.3128;-8.0589;4.6328;0.0650;-0.1573;-0.1307
0001345231;-2.3367;-7.8769;4.6064;0.0677;-0.1697;-0.1427
0001345239;-2.5474;-8.1044;4.5442;0.0749;-0.1887;-0.1576
0001345247;-2.5331;-7.8961;4.6448;0.0698;-0.1937;-0.1524
0001345255;-2.5331;-7.8099;4.6711;0.0622;-0.2033;-0.1519
0001345263;-2.7054;-7.9416;4.6878;0.0665;-0.2052;-0.1537
0001345271;-2.7581;-7.7907;4.6543;0.0621;-0.2033;-0.1440
0001345279;-2.8252;-7.8865;4.8028;0.0618;-0.2062;-0.1246
0001345287;-2.9305;-7.9511;4.7788;0.0613;-0.1977;-0.1019
0001345295;-2.7342;-7.8937;4.7716;0.0657;-0.1929;-0.0829
0001345303;-2.7198;-7.7524;4.6663;0.0553;-0.1799;-0.0597
0001345311;-2.4780;-7.6710;4.6687;0.0508;-0.1704;-0.0442
0001345319;-2.5402;-7.4867;4.6304;0.0457;-0.1510;-0.0233
0001345327;-2.5594;-7.4316;4.5059;0.0268;-0.1224;-0.0055
0001345335;-2.4565;-7.2975;4.5274;0.0128;-0.1041;0.0033
0001345343;-2.3439;-7.1299;4.3742;-0.0016;-0.0786;0.0185
0001345351;-2.4229;-7.1826;4.3551;-0.0285;-0.0593;0.0273
0001345359;-2.2745;-7.2281;4.4005;-0.0529;-0.0584;0.0317
0001345367;-2.3679;-7.2353;4.4772;-0.0641;-0.0613;0.0301
0001345375;-2.2529;-7.1084;4.2832;-0.0887;-0.0552;0.0402
0001345383;-2.3774;-7.3334;4.3551;-0.1070;-0.0618;0.0356
0001345391;-2.3248;-7.3550;4.3191;-0.1338;-0.0645;0.0365
0001345399;-2.2194;-7.5274;4.3718;-0.1486;-0.0710;0.0297
0001345407;-2.3152;-7.4747;4.2880;-0.1632;-0.0774;0.0081
0001345415;-2.2003;-7.6447;4.3335;-0.1816;-0.0655;0.0023
0001345423;-2.2434;-7.6902;4.2545;-0.2048;-0.0605;0.0021
0001345431;-2.2936;-7.8099;4.1539;-0.2198;-0.0566;0.0149
0001345439;-2.2362;-7.7812;4.2808;-0.2380;-0.0605;0.0215
0001345447;-2.4110;-7.7524;4.1922;-0.2527;-0.0480;0.0470
0001345455;-2.3343;-7.6734;4.2210;-0.2730;-0.0385;0.0596
0001345463;-2.2410;-7.5202;4.2138;-0.2912;-0.0392;0.0671
0001345471;-2.3391;-7.5489;4.1755;-0.3135;-0.0426;0.0652
0001345479;-2.3248;-7.3909;4.1635;-0.3395;-0.0292;0.0678
0001345487;-2.3679;-7.3382;4.1132;-0.3632;-0.0180;0.0667
0001345495;-2.4636;-7.3765;4.1300;-0.3881;-0.0147;0.0586
0001345503;-2.5642;-7.4555;4.0941;-0.4108;-0.0077;0.0521
0001345511;-2.8515;-7.7261;4.1180;-0.4338;0.0112;0.0542
0001345519;-2.6743;-7.6064;3.9768;-0.4479;0.0208;0.0663
0001345527;-2.8156;-7.6710;4.0318;-0.4680;0.0234;0.0894
0001345535;-2.8419;-7.6806;3.9863;-0.4884;0.0280;0.0995
0001345543;-2.9856;-7.9033;4.1108;-0.4990;0.0330;0.1210
0001345551;-2.7773;-7.8673;4.0917;-0.5160;0.0480;0.1483
0001345559;-2.8826;-7.8314;4.0893;-0.5224;0.0665;0.1737
0001345567;-2.6839;-7.6638;3.9983;-0.5308;0.0754;0.1958
0001345575;-2.6288;-7.4460;4.0175;-0.5285;0.0802;0.1941
0001345583;-2.7270;-7.6064;3.9409;-0.5408;0.0831;0.1861
0001345591;-2.7988;-7.7859;3.9025;-0.5313;0.0810;0.1783
0001345599;-2.7318;-7.8314;4.0749;-0.5293;0.0851;0.1749
0001345607;-2.8084;-7.9416;4.0462;-0.5289;0.0906;0.1623
0001345615;-2.6336;-7.8219;3.8427;-0.5192;0.0887;0.1446
0001345623;-2.6312;-7.9847;3.9409;-0.5205;0.0995;0.1428
0001345631;-2.7701;-8.1044;3.9049;-0.5103;0.1002;0.1399
0001345639;-2.9233;-8.2600;3.8164;-0.4979;0.1061;0.1525
0001345647;-2.6935;-8.0182;3.7182;-0.5015;0.1087;0.1655
0001345655;-2.7964;-7.9679;3.7613;-0.4995;0.1116;0.1676
0001345663;-2.8874;-7.8650;3.6871;-0.5027;0.1096;0.1673
0001345671;-2.6073;-7.6255;3.6057;-0.5021;0.0978;0.1528
0001345679;-2.7485;-7.7788;3.6272;-0.5035;0.0983;0.1529
0001345687;-2.9137;-7.9344;3.5554;-0.5051;0.0995;0.1450
0001345695;-3.0789;-7.8626;3.5123;-0.5065;0.0815;0.1334
0001345703;-2.8539;-7.8530;3.6009;-0.5015;0.0683;0.1216
0001345711;-2.8276;-7.9823;3.5362;-0.4896;0.0488;0.0922
0001345719;-2.9736;-8.4611;3.6176;-0.4832;0.0482;0.0837
0001345727;-2.6911;-8.3103;3.6176;-0.4631;0.0521;0.0687
0001345735;-2.6049;-8.4563;3.7014;-0.4430;0.0596;0.0536
0001345743;-2.7414;-8.4515;3.5698;-0.4235;0.0683;0.0400
0001345751;-2.6743;-8.4994;3.5530;-0.3978;0.0632;0.0097
0001345759;-2.7773;-8.6479;3.5195;-0.3814;0.0659;0.0084
0001345767;-2.8228;-8.4827;3.5793;-0.3539;0.0636;-0.0001
0001345794;-2.9736;-8.4156;3.6751;-0.2916;0.0604;-0.0460
0001345802;-2.9066;-8.3079;3.6129;-0.2799;0.0630;-0.0554
0001345810;-2.7509;-8.2265;3.5674;-0.2681;0.0572;-0.0667
0001345818;-2.8132;-8.3151;3.6392;-0.2607;0.0562;-0.0694
0001345826;-3.0095;-8.4013;3.6895;-0.2450;0.0392;-0.0777
0001345834;-2.8587;-8.3797;3.7158;-0.2462;0.0484;-0.0677
0001345842;-2.8922;-8.3462;3.5769;-0.2431;0.0476;-0.0729
0001345850;-2.9880;-8.2887;3.6416;-0.2466;0.0409;-0.0671
0001345858;-2.9880;-8.4683;3.6057;-0.2502;0.0374;-0.0669
0001345866;-3.0191;-8.3653;3.6631;-0.2455;0.0226;-0.0722
0001345874;-3.0622;-8.3941;3.5889;-0.2442;0.0052;-0.0616
0001345882;-3.2274;-8.3629;3.6272;-0.2401;-0.0089;-0.0524
0001345890;-3.3591;-8.6119;3.6512;-0.2262;-0.0401;-0.0550
0001345898;-3.3854;-8.5880;3.7206;-0.1961;-0.0715;-0.0597
0001345906;-3.3806;-8.7269;3.7565;-0.1753;-0.0930;-0.0630
0001345914;-3.1292;-8.7317;3.8235;-0.1366;-0.1188;-0.0827
0001345922;-3.2825;-9.0190;3.8882;-0.0918;-0.1358;-0.1071
0001345930;-3.1819;-9.1889;3.8810;-0.0542;-0.1408;-0.1270
0001345938;-2.7749;-8.9687;3.8978;-0.0185;-0.1491;-0.1468
0001345946;-2.7461;-9.0836;3.8810;0.0165;-0.1468;-0.1627
0001345954;-2.5905;-9.0285;3.8499;0.0305;-0.1399;-0.1689
0001345962;-2.5235;-8.7724;3.8618;0.0453;-0.1388;-0.1728
0001345970;-2.4588;-8.6598;3.7828;0.0524;-0.1379;-0.1728
0001345978;-2.4157;-8.2815;3.8571;0.0464;-0.1330;-0.1608
0001345986;-2.6719;-8.3031;3.9289;0.0328;-0.1366;-0.1527
0001345994;-2.3942;-7.9176;3.8882;0.0060;-0.1212;-0.1347
0001346002;-2.5570;-7.8673;3.8164;-0.0143;-0.1066;-0.1218
0001346010;-2.4732;-7.9487;3.7637;-0.0462;-0.0917;-0.1033
0001346018;-2.7270;-7.9176;3.6559;-0.0735;-0.0943;-0.0853
0001346026;-2.9544;-7.9296;3.7014;-0.1096;-0.1099;-0.0641
0001346034;-3.1795;-7.8913;3.8834;-0.1525;-0.1491;-0.0476
0001346042;-3.4692;-7.8602;4.1468;-0.1974;-0.2041;-0.0268
0001346050;-3.4907;-7.5968;4.5155;-0.2459;-0.2765;0.0032
0001346058;-3.5650;-7.5154;4.8578;-0.3156;-0.3381;0.0297
0001346066;-3.1220;-7.1778;5.1930;-0.3950;-0.3766;0.0666
0001346074;-2.7725;-7.0677;5.5115;-0.4835;-0.3912;0.1021
0001346082;-2.0111;-6.9623;5.5019;-0.5578;-0.3593;0.1352
0001346090;-1.5897;-7.4053;5.2074;-0.6175;-0.2868;0.1740
0001346098;-1.3791;-7.8530;4.9153;-0.6616;-0.1948;0.2112
0001346106;-1.3767;-8.6742;4.5035;-0.6706;-0.1037;0.2461
0001346114;-1.4317;-9.5289;4.2569;-0.6476;-0.0217;0.2691
0001346122;-1.6185;-10.1035;3.9361;-0.5814;0.0425;0.2887
0001346130;-1.9728;-10.3477;3.7924;-0.4956;0.0938;0.2876
0001346138;-2.3631;-10.4866;3.4644;-0.4040;0.1403;0.2864
0001346146;-2.7701;-9.9647;3.2968;-0.3127;0.1573;0.2590
0001346154;-3.2825;-9.2368;3.2441;-0.2518;0.1653;0.2348
0001346162;-3.6368;-8.4635;3.2010;-0.2176;0.1639;0.2101
0001346170;-3.7637;-8.1235;3.0981;-0.1977;0.1454;0.1905
0001346178;-3.6057;-7.9535;3.0335;-0.1839;0.1223;0.1688
0001346186;-3.3040;-7.8793;3.0694;-0.1865;0.1002;0.1656
0001346194;-3.2034;-7.9823;3.1005;-0.1947;0.0707;0.1612
0001346202;-3.1053;-8.2025;3.0861;-0.1988;0.0392;0.1611
0001346210;-2.9904;-8.3199;3.1556;-0.2037;0.0060;0.1649
0001346218;-2.8252;-8.4036;3.2992;-0.1951;-0.0218;0.1675
0001346226;-2.6959;-8.3414;3.4141;-0.1978;-0.0418;0.1755
0001346234;-2.8515;-8.2624;3.4668;-0.1982;-0.0572;0.1739
0001346242;-2.8539;-8.2169;3.7421;-0.2021;-0.0730;0.1727
0001346250;-2.9449;-8.0517;3.6512;-0.2126;-0.0739;0.1715
0001346258;-2.8946;-7.8650;3.6943;-0.2261;-0.0789;0.1701
0001346266;-2.8156;-8.0517;3.7350;-0.2342;-0.0789;0.1620
0001346274;-2.6863;-7.7979;3.7206;-0.2421;-0.0829;0.1540
0001346282;-2.6193;-8.0158;3.7757;-0.2498;-0.0803;0.1531
0001346290;-2.6983;-8.1547;3.8211;-0.2483;-0.0755;0.1443
0001346298;-2.7294;-8.4491;3.8714;-0.2382;-0.0725;0.1247
0001346306;-2.7031;-8.3558;3.8283;-0.2253;-0.0751;0.1134
0001346314;-2.7677;-8.4611;3.8451;-0.2065;-0.0686;0.0983
0001346322;-2.9377;-8.8035;3.8020;-0.1768;-0.0650;0.0790
0001346330;-2.9257;-8.7891;3.8762;-0.1468;-0.0649;0.0529
0001346338;-2.6695;-8.6095;3.7517;-0.1066;-0.0655;0.0302
0001346346;-2.7988;-8.7987;3.8068;-0.0802;-0.0606;0.0120
0001346432;-2.6073;-8.1403;3.8666;0.1107;-0.0452;-0.0893
0001346440;-2.6887;-8.1139;3.9073;0.0973;-0.0437;-0.0861
0001346448;-2.7725;-8.2217;3.9744;0.0931;-0.0504;-0.0825
0001346456;-2.7940;-8.1499;3.9720;0.0813;-0.0453;-0.0742
0001346464;-2.7461;-8.1116;3.9935;0.0669;-0.0460;-0.0663
0001346472;-2.7078;-7.9703;3.9648;0.0497;-0.0389;-0.0600
0001346480;-2.7629;-8.1068;4.0390;0.0445;-0.0468;-0.0648
0001346488;-2.6456;-8.0278;4.0199;0.0393;-0.0476;-0.0596
0001346496;-2.6935;-8.1930;4.0510;0.0318;-0.0380;-0.0504
0001346504;-2.5857;-8.2863;4.0175;0.0341;-0.0342;-0.0548
0001346512;-2.6408;-8.3653;4.1061;0.0393;-0.0317;-0.0502
0001346520;-2.6264;-8.4587;4.0606;0.0353;-0.0265;-0.0448
0001346528;-2.7318;-8.5114;4.1851;0.0425;-0.0218;-0.0417
0001346536;-2.6887;-8.4994;4.0055;0.0508;-0.0217;-0.0480
0001346544;-2.7629;-8.6215;4.0845;0.0582;-0.0141;-0.0382
0001346552;-2.8180;-8.6167;4.0414;0.0667;-0.0215;-0.0470
0001346560;-2.7701;-8.5234;3.9887;0.0817;-0.0244;-0.0478
0001346568;-2.7222;-8.5138;4.0223;0.0825;-0.0252;-0.0412
0001346576;-2.7509;-8.4084;4.0534;0.0845;-0.0252;-0.0368
0001346584;-2.8156;-8.4803;4.0845;0.0957;-0.0318;-0.0418
0001346592;-2.6719;-8.4228;4.0342;0.1022;-0.0304;-0.0432
0001346600;-2.6671;-8.4396;4.0270;0.0989;-0.0286;-0.0376
0001346608;-2.5211;-8.3941;4.0725;0.1017;-0.0199;-0.0429
0001346616;-2.5953;-8.3606;4.0247;0.1049;-0.0212;-0.0400
0001346624;-2.4493;-8.1954;4.0462;0.1002;-0.0159;-0.0389
0001346632;-2.5905;-8.3438;4.0199;0.0991;-0.0199;-0.0397
0001346640;-2.6408;-8.3175;3.9504;0.0990;-0.0237;-0.0417
0001346648;-2.9018;-8.5162;3.9911;0.1013;-0.0285;-0.0417
0001346656;-2.7892;-8.2672;3.8714;0.0958;-0.0254;-0.0396
0001346664;-2.6863;-8.3079;3.9193;0.0903;-0.0270;-0.0389
0001346672;-2.7174;-8.3318;3.8451;0.0954;-0.0292;-0.0461
0001346680;-2.6336;-8.3773;3.9648;0.0983;-0.0336;-0.0510
0001346688;-2.6791;-8.4946;3.8547;0.1058;-0.0341;-0.0524
0001346696;-2.5546;-8.2935;3.8930;0.1013;-0.0240;-0.0546
0001346704;-2.6456;-8.4324;3.8762;0.1023;-0.0254;-0.0550
0001346712;-2.5690;-8.3629;3.8666;0.1011;-0.0272;-0.0593
0001346720;-2.5163;-8.2480;3.9025;0.1007;-0.0240;-0.0646
0001346728;-2.5618;-8.2552;3.9337;0.0999;-0.0234;-0.0655
0001346736;-2.5977;-8.2504;3.9145;0.0989;-0.0189;-0.0671
0001346744;-2.6863;-8.3175;3.8547;0.1033;-0.0297;-0.0775
0001346752;-2.6073;-8.1834;3.8595;0.1018;-0.0249;-0.0739
0001346760;-2.5929;-8.1594;3.8690;0.0979;-0.0269;-0.0695
0001346768;-2.8611;-8.3222;3.9169;0.1021;-0.0284;-0.0723
0001346776;-2.5690;-8.1523;3.8642;0.1106;-0.0340;-0.0778
0001346784;-2.7198;-8.3079;3.9337;0.1094;-0.0414;-0.0739
0001346792;-2.7126;-8.2217;3.8571;0.1077;-0.0342;-0.0730
0001346800;-2.6528;-8.1810;3.8834;0.1029;-0.0362;-0.0770
0001346808;-2.8060;-8.2911;3.8690;0.1007;-0.0362;-0.0759
0001346816;-2.8060;-8.3270;3.8666;0.0907;-0.0352;-0.0703
0001346824;-2.6983;-8.2193;3.8595;0.0954;-0.0401;-0.0738
0001346832;-2.6336;-8.1642;3.9241;0.0877;-0.0376;-0.0669
0001346840;-2.6624;-8.2600;3.9097;0.0794;-0.0333;-0.0640
0001346848;-2.6695;-8.0852;3.8954;0.0807;-0.0318;-0.0609
0001346856;-2.7294;-8.2744;3.8786;0.0723;-0.0256;-0.0536
0001346864;-2.8156;-8.3079;3.9863;0.0661;-0.0252;-0.0570
0001346872;-2.7940;-8.2791;3.9696;0.0730;-0.0310;-0.0594
0001346880;-2.7007;-8.2983;3.8738;0.0649;-0.0265;-0.0561
0001346888;-2.4780;-8.0421;3.8714;0.0529;-0.0207;-0.0473
0001346896;-2.6743;-8.1163;3.9959;0.0476;-0.0216;-0.0452
0001346904;-2.6863;-8.1882;3.9552;0.0420;-0.0260;-0.0468
0001346912;-2.7605;-8.2073;3.8259;0.0394;-0.0294;-0.0468
0001346920;-2.8539;-8.2025;3.8858;0.0268;-0.0265;-0.0396
0001346928;-2.7222;-8.1906;3.9073;0.0151;-0.0246;-0.0336
0001346936;-2.6791;-8.1499;3.9648;0.0103;-0.0260;-0.0332
0001346944;-2.8395;-8.2241;3.9361;0.0067;-0.0290;-0.0330
0001346952;-2.7246;-8.2672;3.9744;-0.0020;-0.0208;-0.0224
0001346960;-2.6336;-8.1092;4.0055;-0.0089;-0.0216;-0.0281
0001346968;-2.6791;-8.1858;3.9241;-0.0152;-0.0180;-0.0195
0001346976;-2.8443;-8.2744;3.9959;-0.0273;-0.0192;-0.0148
0001346984;-2.7414;-8.1858;3.8475;-0.0353;-0.0268;-0.0128
0001346992;-2.7581;-8.2337;3.8427;-0.0428;-0.0305;-0.0135
0001347078;-2.6097;-8.2672;3.8666;-0.0962;-0.0654;0.0067
0001347086;-2.6839;-8.3103;3.8499;-0.0991;-0.0581;0.0092
0001347094;-2.6815;-8.3199;3.8427;-0.1027;-0.0560;0.0109
0001347102;-2.6312;-8.2959;3.8690;-0.0987;-0.0556;0.0091
0001347110;-2.6336;-8.1475;3.8882;-0.1062;-0.0462;0.0128
0001347118;-2.5618;-8.2073;3.8235;-0.1081;-0.0418;0.0143
0001347126;-2.6839;-8.2576;3.8595;-0.1095;-0.0388;0.0120
0001347134;-2.6456;-8.3199;3.8906;-0.1108;-0.0364;0.0119
0001347142;-2.6217;-8.2576;3.8020;-0.1103;-0.0334;0.0087
0001347150;-2.8252;-8.4731;3.8116;-0.1083;-0.0428;0.0003
0001347158;-2.6504;-8.2361;3.7517;-0.1058;-0.0378;0.0025
0001347166;-2.7821;-8.4252;3.9097;-0.1099;-0.0376;-0.0020
0001347174;-2.8204;-8.5066;3.9121;-0.1069;-0.0381;-0.0027
0001347182;-2.8084;-8.4851;3.8355;-0.0971;-0.0452;-0.0091
0001347190;-2.8156;-8.5497;3.8810;-0.0919;-0.0398;-0.0065
0001347198;-2.6456;-8.3917;3.9217;-0.0919;-0.0289;0.0015
0001347206;-2.5618;-8.4683;3.8379;-0.0799;-0.0336;-0.0056
0001347214;-2.6217;-8.4443;3.8595;-0.0742;-0.0258;-0.0023
0001347222;-2.8419;-8.5688;3.8475;-0.0695;-0.0164;-0.0031
0001347230;-2.7749;-8.4587;3.7302;-0.0588;-0.0250;-0.0064
0001347238;-2.6911;-8.4611;3.8259;-0.0538;-0.0199;-0.0053
0001347246;-2.7078;-8.4348;3.8211;-0.0490;-0.0144;-0.0053
0001347254;-2.5283;-8.3582;3.8403;-0.0420;-0.0133;-0.0097
0001347262;-2.6695;-8.4539;3.9193;-0.0305;-0.0157;-0.0144
0001347270;-2.5139;-8.3606;3.8810;-0.0298;-0.0057;-0.0139
0001347278;-2.6647;-8.4515;3.7757;-0.0185;-0.0079;-0.0163
0001347286;-2.7629;-8.5090;3.8188;-0.0157;-0.0064;-0.0140
0001347294;-2.6671;-8.4180;3.7924;-0.0123;-0.0040;-0.0152
0001347302;-2.7964;-8.3342;3.7876;-0.0060;-0.0075;-0.0165
0001347310;-2.8347;-8.4539;3.8211;-0.0007;-0.0032;-0.0151
0001347318;-2.6169;-8.3414;3.8235;0.0029;-0.0137;-0.0156
0001347326;-2.7270;-8.3175;3.7924;0.0041;-0.0148;-0.0165
0001347334;-2.6983;-8.2384;3.7373;-0.0017;-0.0137;-0.0071
0001347342;-2.7653;-8.3390;3.8858;-0.0001;-0.0201;-0.0156
0001347350;-2.7174;-8.3222;3.8666;-0.0009;-0.0147;-0.0163
0001347358;-2.7438;-8.3222;3.8666;-0.0101;-0.0087;-0.0103
0001347366;-2.7892;-8.3653;3.8235;-0.0149;-0.0119;-0.0085
0001347374;-2.8132;-8.4036;3.8020;-0.0099;-0.0124;-0.0127
0001347382;-2.7773;-8.3725;3.9025;-0.0080;-0.0187;-0.0141
0001347390;-2.7078;-8.4491;3.8595;-0.0083;-0.0167;-0.0103
0001347398;-2.8323;-8.4970;3.8427;-0.0065;-0.0203;-0.0147
0001347406;-2.9329;-8.5234;3.8547;-0.0053;-0.0278;-0.0137
0001347414;-2.8587;-8.4252;3.9002;-0.0041;-0.0310;-0.0193
0001347422;-2.6743;-8.3079;3.8930;0.0020;-0.0320;-0.0176
0001347430;-2.6624;-8.2887;3.8020;-0.0009;-0.0260;-0.0112
0001347438;-2.5043;-8.2935;3.8116;-0.0007;-0.0342;-0.0197
0001347446;-2.5881;-8.2552;3.8283;0.0045;-0.0338;-0.0233
0001347454;-2.6552;-8.4635;3.8092;0.0024;-0.0242;-0.0179
0001347462;-2.5977;-8.3510;3.8020;0.0063;-0.0285;-0.0212
0001347470;-2.6719;-8.3725;3.8355;0.0045;-0.0183;-0.0207
0001347478;-2.6408;-8.3031;3.8427;0.0072;-0.0232;-0.0209
0001347486;-2.8922;-8.5760;3.8211;0.0089;-0.0269;-0.0297
0001347494;-2.7031;-8.4970;3.7757;0.0112;-0.0252;-0.0304
0001347502;-2.6911;-8.4324;3.8451;0.0141;-0.0221;-0.0281
0001347510;-2.7892;-8.4467;3.8044;0.0111;-0.0137;-0.0246
0001347518;-2.5355;-8.2815;3.7302;0.0112;-0.0155;-0.0302
0001347526;-2.6647;-8.5066;3.7733;0.0179;-0.0193;-0.0324
0001347534;-2.7461;-8.4851;3.7661;0.0171;-0.0180;-0.0238
0001347542;-2.9209;-8.4443;3.6679;0.0144;-0.0234;-0.0313
0001347550;-2.7366;-8.4515;3.6703;0.0238;-0.0312;-0.0326
0001347558;-2.8371;-8.4396;3.5482;0.0184;-0.0199;-0.0337
0001347566;-2.7054;-8.5258;3.5961;0.0213;-0.0211;-0.0300
0001347574;-2.6384;-8.3941;3.6129;0.0252;-0.0175;-0.0312
0001347582;-2.7102;-8.4156;3.6512;0.0324;-0.0216;-0.0321
0001347590;-2.8108;-8.4420;3.5410;0.0320;-0.0221;-0.0344
0001347598;-2.7390;-8.3821;3.5961;0.0240;-0.0185;-0.0293
0001347606;-2.8874;-8.3055;3.6871;0.0216;-0.0159;-0.0225
0001347614;-2.8515;-8.3869;3.7230;0.0156;-0.0072;-0.0177
0001347622;-2.8754;-8.3773;3.6799;0.0157;-0.0041;-0.0177
0001347630;-2.7821;-8.2073;3.6464;0.0171;-0.0104;-0.0229
0001347717;-2.7342;-8.0732;3.7972;-0.0048;-0.0686;-0.0013
0001347725;-2.8754;-8.3653;3.9002;-0.0092;-0.0735;0.0029
0001347733;-2.8946;-8.4084;3.8595;-0.0129;-0.0775;0.0024
0001347741;-2.8778;-8.2337;3.8858;0.0041;-0.0929;-0.0024
0001347749;-2.9832;-8.4467;3.8738;0.0073;-0.1066;-0.0039
0001347757;-2.8730;-8.3965;3.9433;0.0192;-0.1206;-0.0117
0001347765;-2.7940;-8.5018;4.0127;0.0277;-0.1234;-0.0104
0001347773;-2.6983;-8.4228;4.0438;0.0330;-0.1318;-0.0137
0001347781;-2.7653;-8.5545;4.0630;0.0557;-0.1470;-0.0148
0001347789;-2.6073;-8.5569;4.0869;0.0661;-0.1581;-0.0189
0001347797;-2.6049;-8.6239;4.1875;0.0743;-0.1623;-0.0273
0001347805;-2.5953;-8.5760;4.1563;0.0902;-0.1584;-0.0369
0001347813;-2.5331;-8.7269;4.1420;0.1094;-0.1577;-0.0550
0001347821;-2.5091;-8.7221;4.1396;0.1178;-0.1545;-0.0679
0001347829;-2.4062;-8.6000;4.1851;0.1286;-0.1499;-0.0747
0001347837;-2.4062;-8.6191;4.1563;0.1351;-0.1507;-0.0859
0001347845;-2.3918;-8.2863;4.1276;0.1291;-0.1462;-0.0843
0001347853;-2.6791;-8.6910;4.3311;0.1358;-0.1515;-0.0905
0001347861;-2.6121;-8.6000;4.3479;0.1400;-0.1479;-0.0819
0001347869;-2.7988;-8.5880;4.4341;0.1488;-0.1450;-0.0665
0001347877;-2.7246;-8.6048;4.3359;0.1619;-0.1645;-0.0577
0001347885;-2.7174;-8.3917;4.2904;0.1707;-0.1641;-0.0366
0001347893;-2.5762;-8.5353;4.3479;0.1673;-0.1679;-0.0364
0001347901;-2.5259;-8.3342;4.3958;0.1624;-0.1608;-0.0256
0001347909;-2.4924;-8.2648;4.3622;0.1593;-0.1451;-0.0191
0001347917;-2.5426;-8.1834;4.4077;0.1507;-0.1304;-0.0067
0001347925;-2.2051;-7.8051;4.4149;0.1307;-0.1150;-0.0085
0001347933;-1.9824;-7.9009;4.3670;0.1179;-0.0907;-0.0131
0001347941;-1.8220;-7.7428;4.2353;0.1058;-0.0702;-0.0081
0001347949;-1.8771;-7.9990;4.3622;0.0855;-0.0481;0.0019
0001347957;-2.0423;-8.2648;4.3527;0.0858;-0.0409;0.0051
0001347965;-2.1261;-8.2839;4.3694;0.0831;-0.0260;0.0189
0001347973;-2.3463;-8.5186;4.2018;0.0863;-0.0224;0.0410
0001347981;-2.6815;-8.6646;4.2737;0.0965;-0.0250;0.0534
0001347989;-2.8276;-8.6215;4.2306;0.1029;-0.0136;0.0678
0001347997;-2.7031;-8.4467;4.2162;0.1096;-0.0152;0.0777
0001348005;-2.7653;-8.3558;4.1683;0.1235;-0.0151;0.0802
0001348013;-2.8994;-8.1690;4.0845;0.1244;-0.0117;0.0895
0001348021;-2.9425;-8.1331;4.1803;0.1344;-0.0183;0.0874
0001348029;-2.8228;-7.9224;4.0749;0.1284;-0.0196;0.0859
0001348037;-2.5977;-7.7309;4.0031;0.1188;-0.0155;0.0815
0001348045;-2.8706;-7.8721;3.9097;0.1155;-0.0187;0.0746
0001348053;-2.8946;-7.8697;4.0151;0.1147;-0.0306;0.0682
0001348061;-2.7557;-7.9440;3.9696;0.1118;-0.0430;0.0699
0001348069;-2.8395;-7.9871;3.8403;0.1083;-0.0659;0.0763
0001348077;-2.7773;-8.0972;3.9528;0.1168;-0.0821;0.0695
0001348085;-2.8180;-8.0756;4.0127;0.1103;-0.0754;0.0737
0001348093;-2.8443;-7.9224;3.9648;0.1009;-0.0606;0.0834
0001348101;-2.8323;-7.9248;3.8858;0.0965;-0.0565;0.0945
0001348109;-2.7773;-7.8075;3.7613;0.0977;-0.0683;0.0947
0001348117;-2.8802;-7.8985;3.8690;0.0959;-0.0637;0.0946
0001348125;-2.8228;-7.7764;3.9193;0.0895;-0.0582;0.0890
0001348133;-2.9185;-7.6279;3.6607;0.0831;-0.0681;0.0849
0001348141;-3.1340;-7.7141;3.5793;0.0747;-0.0813;0.0757
0001348149;-3.1268;-7.8003;3.5482;0.0691;-0.1057;0.0815
0001348157;-3.0071;-7.4651;3.4979;0.0613;-0.1234;0.0929
0001348165;-3.1436;-7.5896;3.5698;0.0512;-0.1323;0.0887
0001348173;-3.0119;-7.5441;3.5338;0.0340;-0.1431;0.0817
0001348181;-2.9137;-7.4723;3.5602;0.0296;-0.1557;0.0743
0001348189;-2.9736;-7.6902;3.4931;0.0180;-0.1637;0.0673
0001348197;-2.8395;-7.4172;3.5985;0.0009;-0.1704;0.0666
0001348205;-2.8587;-7.4627;3.5314;-0.0125;-0.1808;0.0604
0001348213;-2.9592;-7.4651;3.5338;-0.0189;-0.1913;0.0576
0001348221;-2.9975;-7.4986;3.5554;-0.0268;-0.1901;0.0521
0001348229;-3.2274;-7.5633;3.5889;-0.0385;-0.2056;0.0409
0001348237;-3.2058;-7.7213;3.5865;-0.0408;-0.2190;0.0385
0001348245;-3.0550;-7.4795;3.6009;-0.0453;-0.2326;0.0432
0001348253;-3.0718;-7.6040;3.7828;-0.0484;-0.2384;0.0493
0001348261;-2.8730;-7.5154;3.8978;-0.0390;-0.2499;0.0416
0001348269;-2.8108;-7.5322;3.8978;-0.0418;-0.2384;0.0369
0001348277;-2.7797;-7.5298;3.8355;-0.0457;-0.2294;0.0372
0001348363;-2.8874;-7.4029;4.4963;0.0128;-0.2286;0.0687
0001348371;-2.8491;-7.4172;4.4604;0.0257;-0.2316;0.0686
0001348379;-2.8491;-7.3215;4.6184;0.0305;-0.2446;0.0592
0001348387;-2.6217;-7.2568;4.6783;0.0340;-0.2603;0.0613
0001348395;-2.5905;-7.2544;4.8147;0.0372;-0.2687;0.0663
0001348403;-2.5402;-7.2401;5.0350;0.0456;-0.2999;0.0711
0001348411;-2.5929;-7.2808;5.3654;0.0608;-0.3228;0.0855
0001348419;-2.6456;-7.6088;5.4061;0.0809;-0.3517;0.1033
0001348427;-3.2154;-7.9727;5.2553;0.1001;-0.3456;0.1250
0001348435;-2.7294;-7.8434;5.3319;0.1152;-0.3532;0.1524
0001348443;-2.5522;-7.7309;5.2625;0.1354;-0.4050;0.1665
0001348451;-2.5235;-7.5106;5.1547;0.1407;-0.4102;0.1704
0001348459;-2.3008;-7.2616;5.0613;0.1432;-0.4290;0.1759
0001348467;-2.5235;-7.1084;4.9033;0.1395;-0.4092;0.1640
0001348475;-2.0183;-6.8953;5.0374;0.1152;-0.4342;0.1688
0001348483;-1.8723;-6.8235;4.8866;0.1159;-0.5397;0.1741
0001348491;-1.7957;-6.7852;4.9895;0.1132;-0.5548;0.1744
0001348499;-1.6688;-6.8331;5.2840;0.1022;-0.5544;0.1577
0001348507;-1.8483;-7.0533;5.5881;0.0903;-0.6299;0.1636
0001348515;-2.1213;-7.5226;6.1339;0.1021;-0.6963;0.1617
0001348523;-2.8898;-8.3725;6.3470;0.1451;-0.7249;0.1631
0001348531;-2.7557;-8.7939;6.2752;0.2210;-0.7785;0.1993
0001348539;-2.4828;-9.2201;5.7389;0.2801;-0.8219;0.2305
0001348547;-2.2242;-9.1961;5.1523;0.2935;-0.7389;0.3126
0001348555;-1.8268;-8.6479;4.7764;0.3353;-0.7202;0.3917
0001348563;-1.2163;-7.8697;4.4939;0.3287;-0.7208;0.4313
0001348571;-0.8236;-7.0677;4.2880;0.3075;-0.7190;0.4285
0001348579;-0.4334;-6.6894;4.5969;0.2655;-0.7148;0.3964
0001348587;-0.1365;-6.0837;4.5657;0.2382;-0.7172;0.3725
0001348595;-0.1580;-5.6144;5.1044;0.1893;-0.6893;0.3729
0001348603;-0.3184;-5.7437;5.2696;0.1408;-0.6532;0.3912
0001348611;-0.9122;-6.0549;5.4779;0.0886;-0.6307;0.4114
0001348619;-0.8404;-6.1459;5.6814;-0.0095;-0.6711;0.4646
0001348627;-0.8404;-6.2991;5.7102;-0.0926;-0.6598;0.5253
0001348635;-0.9505;-6.3710;5.7389;-0.1211;-0.6792;0.5381
0001348643;-1.1325;-6.3542;6.1483;-0.1725;-0.6853;0.5140
0001348651;-1.4581;-6.7971;6.3327;-0.1977;-0.6905;0.4507
0001348659;-1.3408;-6.8019;6.4979;-0.2364;-0.6647;0.4000
0001348667;-1.6161;-7.1299;6.3015;-0.2703;-0.6098;0.3516
0001348675;-1.4772;-7.0557;6.4141;-0.2926;-0.5677;0.3196
0001348683;-1.0008;-6.9456;6.1962;-0.3392;-0.5500;0.3190
0001348691;-1.1372;-7.2161;5.9616;-0.3876;-0.5480;0.3581
0001348699;-0.9313;-7.0270;5.6312;-0.4266;-0.4984;0.3908
0001348707;-0.8835;-7.2329;5.3870;-0.4479;-0.4860;0.4062
0001348715;-0.9122;-7.1419;5.1092;-0.4631;-0.5127;0.4185
0001348723;-0.6488;-7.2209;5.1451;-0.4499;-0.5311;0.4125
0001348731;-0.8571;-7.4627;4.9488;-0.4263;-0.5457;0.4014
0001348739;-0.9816;-7.9296;5.0159;-0.4040;-0.5173;0.3648
0001348747;-1.2498;-8.6000;5.0829;-0.3516;-0.5187;0.3003
0001348755;-1.5467;-8.8969;5.2050;-0.2923;-0.5212;0.2294
0001348763;-1.7549;-9.2751;5.4755;-0.2140;-0.5438;0.1576
0001348771;-2.0686;-9.3805;5.8347;-0.1242;-0.5193;0.0954
0001348779;-2.3104;-9.5888;6.1579;-0.0557;-0.5161;0.0389
0001348787;-1.9944;-9.2344;6.2680;-0.0131;-0.5220;-0.0131
0001348795;-1.9800;-8.9328;6.1866;0.0028;-0.4890;-0.0634
0001348803;-1.7885;-8.6167;6.0956;0.0208;-0.4760;-0.0918
0001348811;-1.7980;-8.0158;6.0621;0.0474;-0.4892;-0.1096
0001348819;-1.6879;-7.7907;6.0885;0.0606;-0.5223;-0.1203
0001348827;-1.3192;-7.6303;6.1531;0.0806;-0.5421;-0.1335
0001348835;-1.6257;-7.7333;5.9735;0.1147;-0.4735;-0.1279
0001348843;-1.1013;-7.6375;5.6503;0.1510;-0.4195;-0.1324
0001348851;-1.0774;-8.0972;5.3103;0.1937;-0.4038;-0.1545
0001348859;-0.7063;-8.3055;5.1356;0.2565;-0.3972;-0.1952
0001348867;-0.2777;-8.4276;5.1667;0.3254;-0.4034;-0.2317
0001348875;-0.2538;-8.6143;5.7197;0.3616;-0.4465;-0.2775
0001348883;-0.3735;-8.5665;6.6415;0.3476;-0.5457;-0.3531
0001348891;-0.5866;-8.3055;6.9767;0.2844;-0.6134;-0.4233
0001348899;-0.8116;-7.3765;7.4148;0.2153;-0.6398;-0.4555
0001348907;-0.7398;-6.4811;7.6088;0.1142;-0.6722;-0.4455
0001348915;-1.0104;-5.5282;7.7045;0.0373;-0.6572;-0.4042
0001348923;-1.2617;-4.5131;7.1922;0.0152;-0.5255;-0.3063
0001349007;0.3926;-7.5082;6.4763;0.3265;-0.2611;-0.2000
0001349015;0.3759;-6.6104;6.3422;0.2601;-0.2313;-0.2168
0001349023;-0.5124;-5.8730;6.4189;0.2050;-0.2614;-0.2380
0001349031;-1.2354;-5.4755;6.6990;0.1350;-0.3024;-0.2685
0001349039;-2.0542;-5.4684;6.9049;0.0608;-0.3135;-0.2629
0001349047;-2.0303;-5.7197;6.7564;-0.0029;-0.3427;-0.2328
0001349055;-1.9273;-6.1316;6.4404;-0.0442;-0.4013;-0.2228
0001349063;-2.0494;-6.6152;6.5721;-0.0566;-0.4754;-0.1989
0001349071;-1.6831;-7.0701;6.7445;-0.0441;-0.5416;-0.1767
0001349079;-1.4820;-7.0964;6.8809;-0.0205;-0.5528;-0.1624
0001349087;-1.2665;-7.2688;7.0366;-0.0048;-0.5379;-0.1520
0001349095;-0.8260;-7.3263;6.9935;0.0246;-0.5436;-0.1641
0001349103;-0.6536;-7.4627;6.9911;0.0490;-0.5191;-0.1639
0001349111;-0.4310;-7.4627;7.0174;0.0625;-0.4950;-0.1382
0001349119;-0.1867;-7.3789;6.9264;0.0878;-0.4714;-0.0999
0001349127;-0.3232;-7.4029;6.4021;0.1033;-0.4955;-0.0512
0001349135;-0.3543;-7.5609;6.5625;0.1207;-0.5348;0.0004
0001349143;-0.7709;-7.7237;6.5793;0.1440;-0.5656;0.0353
0001349151;-0.5339;-7.3622;6.8307;0.1620;-0.5717;0.0657
0001349159;-0.4860;-7.1204;6.8546;0.1811;-0.5770;0.1003
0001349167;-0.5435;-6.8522;6.9599;0.1868;-0.5594;0.1284
0001349175;-0.3759;-6.5888;7.0150;0.1777;-0.5485;0.1466
0001349183;-0.4669;-6.2896;7.0174;0.1450;-0.5145;0.1568
0001349191;-0.2634;-5.8514;6.9815;0.0986;-0.4895;0.1536
0001349199;-0.1293;-5.8107;6.9719;0.0630;-0.4830;0.1584
0001349207;-0.3041;-5.8083;6.9887;0.0160;-0.4515;0.1464
0001349215;0.0718;-5.6575;6.9001;-0.0384;-0.4375;0.1460
0001349223;0.0455;-6.0023;6.9049;-0.0911;-0.4313;0.1623
0001349231;0.5076;-5.9711;6.8187;-0.1346;-0.4194;0.2042
0001349239;0.3687;-6.3063;6.8546;-0.1695;-0.4174;0.2489
0001349247;0.5171;-6.4476;6.9312;-0.2001;-0.4219;0.3127
0001349255;-0.0790;-6.8331;7.1395;-0.2054;-0.4343;0.3573
0001349263;0.0455;-6.7947;7.2975;-0.2024;-0.4431;0.3962
0001349271;0.0263;-6.7157;7.3310;-0.1913;-0.4397;0.4126
0001349279;0.1891;-6.5170;7.1515;-0.2028;-0.4499;0.4085
0001349287;-0.1030;-6.3782;7.3095;-0.2072;-0.4728;0.3700
0001349295;0.2179;-6.1459;7.3933;-0.2177;-0.4939;0.3568
0001349303;-0.0096;-6.2153;7.3574;-0.2272;-0.4784;0.3575
0001349311;-0.1006;-6.3494;7.3239;-0.2437;-0.4619;0.3487
0001349319;-0.0622;-6.4045;7.2568;-0.2469;-0.5121;0.3416
0001349327;0.0335;-6.6559;7.2640;-0.2526;-0.5732;0.3435
0001349335;0.2155;-6.7540;7.5896;-0.2663;-0.6081;0.3367
0001349343;0.2322;-6.9240;7.7285;-0.2713;-0.6262;0.3195
0001349351;0.5531;-7.0629;7.5944;-0.2781;-0.6225;0.3160
0001349359;0.6129;-6.9192;7.7309;-0.2779;-0.6039;0.3144
0001349367;0.6895;-7.2018;7.6231;-0.2758;-0.6157;0.3389
0001349375;1.1253;-7.0509;7.7285;-0.2758;-0.6354;0.3676
0001349383;1.1732;-7.2161;7.8386;-0.2605;-0.6598;0.3862
0001349391;1.3240;-7.1946;8.1427;-0.2354;-0.6682;0.3858
0001349399;1.1349;-7.2544;8.2073;-0.2186;-0.6282;0.3773
0001349407;1.2186;-7.2544;8.3007;-0.2106;-0.5709;0.3705
0001349415;0.9744;-7.4196;8.3582;-0.1892;-0.5596;0.3760
0001349423;1.1779;-7.0868;8.1427;-0.1872;-0.5533;0.3652
0001349431;1.0199;-7.0892;8.2265;-0.1859;-0.5961;0.3692
0001349439;1.0870;-7.0605;8.3965;-0.1981;-0.6099;0.3788
0001349447;1.0511;-6.9647;8.2863;-0.2177;-0.6215;0.3576
0001349455;1.4246;-6.2800;7.7309;-0.2773;-0.7065;0.2619
0001349463;1.4150;-6.3542;7.8793;-0.2998;-0.7803;0.1589
0001349471;1.4222;-6.7133;8.2887;-0.3162;-0.7163;0.1800
0001349479;1.3623;-7.0126;8.7747;-0.2851;-0.6205;0.2782
0001349487;1.3599;-7.4124;8.4036;-0.2093;-0.6115;0.3628
0001349495;1.6831;-7.4675;7.9200;-0.1764;-0.6119;0.3813
0001349503;1.6616;-7.3598;7.9392;-0.1747;-0.6209;0.3768
0001349511;1.7119;-7.4531;8.1235;-0.1595;-0.6464;0.3613
0001349519;1.7406;-7.4484;8.3414;-0.1292;-0.6073;0.3174
0001349527;1.9465;-7.6064;8.0756;-0.1023;-0.5684;0.3063
0001349535;1.7957;-7.5274;7.9918;-0.0777;-0.5411;0.2966
0001349543;2.2338;-7.4627;7.7907;-0.0385;-0.5173;0.2983
0001349551;2.1907;-7.6303;7.8362;-0.0240;-0.4984;0.3132
0001349559;2.3248;-7.6399;7.7668;0.0012;-0.4888;0.3305
0001349567;2.3176;-7.7596;7.7548;0.0332;-0.4354;0.3435
0001349575;2.7366;-7.8817;7.8697;0.0525;-0.3994;0.3837
0001349666;1.8914;-7.2449;7.9918;0.1263;-0.0730;0.3607
0001349674;1.8579;-7.2568;8.0709;0.1203;-0.0837;0.3465
0001349682;2.0949;-7.1658;8.0469;0.1260;-0.0802;0.3425
0001349690;2.3942;-7.1611;8.1379;0.1383;-0.0805;0.3489
0001349698;2.6791;-6.9671;8.0565;0.1617;-0.0618;0.3663
0001349706;2.6552;-7.1299;8.0302;0.1556;-0.0073;0.3632
0001349714;2.7557;-7.0318;7.9368;0.1623;0.0280;0.3435
0001349722;2.7414;-6.7971;7.7524;0.1644;0.0714;0.3214
0001349730;2.7964;-6.7660;7.9057;0.1813;0.0867;0.3220
0001349738;2.6480;-6.7708;7.8769;0.1958;0.1049;0.3357
0001349746;2.7150;-6.6439;7.9871;0.2069;0.1414;0.3320
0001349754;2.5881;-6.4572;7.9057;0.1843;0.2170;0.3044
0001349762;2.1691;-6.3853;7.8578;0.1635;0.2575;0.2698
0001349770;2.1500;-6.2991;7.5298;0.1539;0.2361;0.2719
0001349778;2.4038;-6.1986;7.6184;0.1440;0.2533;0.2832
0001349786;2.4876;-6.1723;7.6878;0.1212;0.2884;0.2918
0001349794;2.4804;-6.2752;7.6998;0.1010;0.3218;0.3074
0001349802;2.1883;-6.2058;7.6160;0.0709;0.3591;0.3174
0001349810;2.0614;-6.1962;7.4843;0.0481;0.3884;0.3054
0001349818;2.0399;-6.0741;7.4412;0.0085;0.3978;0.3028
0001349826;1.7095;-6.0980;7.5226;-0.0105;0.3826;0.2721
0001349834;1.6616;-6.2153;7.5681;-0.0340;0.3866;0.2710
0001349842;1.5538;-6.3207;7.5776;-0.0577;0.4155;0.2618
0001349850;1.9848;-6.3758;7.6207;-0.0524;0.4155;0.2495
0001349858;2.0016;-6.3973;7.6758;-0.0294;0.4353;0.2539
0001349866;1.8028;-6.4500;7.8171;-0.0196;0.4866;0.2395
0001349874;1.5419;-6.3446;7.8434;-0.0013;0.5164;0.2244
0001349882;1.2234;-6.3207;7.5393;0.0212;0.5267;0.2022
0001349890;0.6560;-6.4883;7.6184;0.0324;0.5177;0.1912
0001349898;0.3831;-6.3638;7.4771;0.0314;0.4900;0.1768
0001349906;0.5602;-6.2106;7.4364;0.0366;0.4346;0.1508
0001349914;0.5435;-6.2800;7.6351;0.0372;0.3877;0.1308
0001349922;1.2665;-6.1124;7.8506;0.0316;0.3952;0.1071
0001349930;1.8411;-6.1124;7.8386;0.0504;0.4108;0.0999
0001349938;2.0423;-6.2704;7.8865;0.0581;0.4822;0.0899
0001349946;2.1189;-6.2944;7.7285;0.0670;0.5776;0.1126
0001349954;1.6999;-6.5050;7.6519;0.0814;0.6431;0.1529
0001349962;1.2905;-6.6415;7.5417;0.0982;0.6777;0.1717
0001349970;0.7015;-6.4715;7.3047;0.1007;0.6919;0.1704
0001349978;0.3136;-6.2441;6.9959;0.1111;0.6797;0.1684
0001349986;0.1915;-5.9352;6.9097;0.1120;0.6364;0.1737
0001349994;0.2298;-5.8107;7.1156;0.1095;0.5885;0.1705
0001350002;0.6488;-5.7437;7.0102;0.0823;0.5834;0.1715
0001350010;0.9744;-5.9328;7.1706;0.0695;0.6536;0.1592
0001350018;1.1803;-6.2010;7.0581;0.0565;0.6907;0.1763
0001350026;1.5251;-6.2465;6.9671;0.0581;0.7441;0.1996
0001350034;1.3144;-6.4907;6.7349;0.0466;0.7855;0.2321
0001350042;1.3431;-6.4093;6.5697;0.0380;0.8235;0.2563
0001350050;1.3264;-6.3590;6.6248;0.0390;0.8527;0.2651
0001350058;1.3048;-6.1579;6.5410;0.0340;0.8904;0.2602
0001350066;1.2210;-6.2632;6.3303;0.0424;0.9145;0.2661
0001350074;1.2258;-6.2776;6.1651;0.0513;0.9296;0.2589
0001350082;1.1396;-6.3087;5.9879;0.0753;0.9662;0.2382
0001350090;1.1540;-6.4021;5.9999;0.0954;0.9991;0.2190
0001350098;0.8906;-6.8522;5.8323;0.1138;1.0304;0.2030
0001350106;0.9290;-6.9432;5.8059;0.1263;1.0568;0.1937
0001350114;1.0391;-6.9001;5.7964;0.1450;1.0800;0.1927
0001350122;0.9625;-6.9623;5.8107;0.1587;1.1129;0.1949
0001350130;0.8954;-6.8235;5.5593;0.1687;1.1596;0.2085
0001350138;1.1037;-6.8163;5.4181;0.1877;1.2045;0.2074
0001350146;0.8475;-6.6990;5.4923;0.2166;1.2410;0.2061
0001350154;0.7207;-6.6894;5.6743;0.2470;1.2977;0.2025
0001350162;0.5411;-6.6990;5.6216;0.2782;1.3576;0.1799
0001350170;0.1030;-6.8642;5.4827;0.3060;1.3865;0.1539
0001350178;-0.3376;-7.0677;5.4923;0.3289;1.3983;0.1271
0001350186;-0.5866;-6.9719;5.4372;0.3649;1.3631;0.0930
0001350194;-0.6584;-7.0844;5.4995;0.3908;1.3395;0.0879
0001350202;-0.3735;-6.7516;5.4372;0.3950;1.3396;0.0883
0001350210;-0.0670;-6.5912;5.2792;0.3953;1.3527;0.0851
0001350219;-0.0575;-6.5673;5.2696;0.4094;1.3824;0.0874
0001350228;-0.3328;-6.4883;5.3678;0.4179;1.4304;0.0974
0001350237;-0.6608;-6.4883;5.2768;0.4479;1.4658;0.1061
0001350246;-1.1588;-6.7564;5.1380;0.4850;1.4889;0.1167
0001350255;-1.5993;-6.9480;4.9105;0.5424;1.4805;0.1095
0001350342;-1.9632;-5.6288;4.0247;0.8308;1.4035;0.1307
0001350351;-1.9321;-5.3032;3.9337;0.8723;1.4514;0.1282
0001350360;-2.1404;-4.8195;3.8044;0.9142;1.4945;0.1322
0001350369;-2.3343;-4.4963;3.4764;0.9337;1.5228;0.1260
0001350378;-2.6456;-4.2952;3.1675;0.9320;1.5036;0.1251
0001350387;-2.7605;-4.1563;2.8659;0.9337;1.4722;0.1195
0001350396;-2.7701;-3.9696;2.6456;0.9483;1.4757;0.1371
0001350405;-3.4477;-3.9672;2.6767;0.9614;1.4763;0.1400
0001350414;-4.0893;-3.6871;2.7533;0.9709;1.4801;0.1228
0001350423;-5.5354;-3.5171;2.8419;0.9589;1.4662;0.0957
0001350432;-6.0908;-3.1508;2.6312;0.9407;1.4085;0.0849
0001350441;-5.9256;-2.8060;2.7222;0.9105;1.3127;0.0759
0001350450;-5.4540;-3.1388;2.8012;0.9064;1.2425;0.0476
0001350459;-4.7429;-3.4812;3.2058;0.8904;1.2642;0.0365
0001350468;-4.4843;-3.5051;2.9904;0.8800;1.3238;0.0524
0001350477;-4.7046;-3.1723;2.8012;0.8735;1.3769;0.0838
0001350486;-5.3965;-2.8323;2.5115;0.8668;1.4047;0.0979
0001350495;-6.0980;-2.4852;2.3080;0.8544;1.3671;0.0807
0001350504;-6.5290;-2.2122;2.2003;0.8532;1.3125;0.0590
0001350513;-6.5912;-2.1955;2.3152;0.8593;1.2405;0.0199
0001350522;-6.2537;-2.1979;2.2817;0.8607;1.2087;-0.0286
0001350531;-6.2465;-2.0830;2.2051;0.8543;1.1882;-0.0573
0001350540;-6.1555;-2.1189;2.0351;0.8388;1.1695;-0.0747
0001350549;-6.1770;-1.8364;1.8890;0.8009;1.1445;-0.0839
0001350558;-6.4069;-1.8531;1.8172;0.7457;1.1163;-0.1112
0001350567;-6.2824;-1.8579;1.9609;0.6795;1.0766;-0.1218
0001350576;-6.3590;-1.9896;2.0518;0.6179;1.0267;-0.1059
0001350585;-5.8897;-2.2817;2.2793;0.5772;0.9824;-0.0811
0001350594;-5.3558;-2.3128;2.1644;0.5396;0.9547;-0.0629
0001350603;-4.7262;-2.1524;2.0087;0.5040;0.9182;-0.0833
0001350612;-4.2665;-2.0351;1.8962;0.4479;0.8990;-0.1136
0001350621;-4.1037;-1.9680;1.7861;0.3893;0.8728;-0.1292
0001350630;-4.2114;-1.9824;1.7142;0.3191;0.8414;-0.1392
0001350639;-4.3048;-1.8890;1.6688;0.2384;0.8096;-0.1123
0001350648;-4.7238;-2.0758;1.7358;0.1615;0.7670;-0.0763
0001350657;-4.9129;-2.4062;1.6400;0.1061;0.7120;-0.0093
0001350666;-4.9895;-2.7150;1.6951;0.0671;0.6403;0.0681
0001350675;-4.5562;-3.1244;1.7310;0.0289;0.5694;0.1573
0001350684;-3.9121;-3.2561;1.7406;-0.0029;0.5371;0.2330
0001350693;-3.1771;-3.1149;1.6233;-0.0437;0.5336;0.2887
0001350702;-2.6360;-2.7318;1.4629;-0.1130;0.5223;0.3265
0001350711;-2.5379;-2.2266;1.3192;-0.1915;0.5151;0.3328
0001350720;-3.0981;-2.0159;1.0822;-0.2876;0.5289;0.3652
0001350729;-3.4692;-2.0351;0.9936;-0.3774;0.4844;0.4006
0001350738;-4.1228;-2.3487;1.1779;-0.4487;0.4418;0.4385
0001350747;-4.1444;-2.5115;0.8212;-0.4980;0.3796;0.4850
0001350756;-3.4093;-3.1005;0.3926;-0.5096;0.3224;0.5380
0001350765;-2.7318;-3.4955;0.3017;-0.4892;0.3058;0.6133
0001350774;-1.8842;-3.5195;0.1676;-0.4675;0.3102;0.6595
0001350783;-1.6089;-3.4572;-0.0383;-0.4374;0.3448;0.6951
0001350792;-1.6831;-3.2944;-0.3304;-0.4120;0.3659;0.6923
0001350801;-2.2410;-2.9951;-0.5842;-0.4242;0.3918;0.6871
0001350810;-2.8778;-2.7892;-0.8787;-0.4565;0.3692;0.6767
0001350819;-3.3782;-2.5115;-0.7638;-0.4782;0.3504;0.7091
0001350828;-3.8882;-2.6767;-0.6177;-0.4904;0.3170;0.7706
0001350837;-4.0701;-2.5235;-0.9361;-0.4979;0.2898;0.8423
0001350846;-3.5985;-2.4157;-1.2139;-0.4819;0.2415;0.9112
0001350855;-3.0837;-2.2098;-1.4006;-0.4620;0.2210;0.9517
0001350864;-2.8659;-1.9728;-1.1971;-0.4325;0.2282;0.9431
0001350873;-2.4565;-1.8794;-1.2594;-0.4025;0.2647;0.9205
0001350882;-2.3655;-2.1069;-1.4126;-0.3600;0.3199;0.8928
0001350891;-2.9209;-2.2841;-1.5921;-0.3405;0.3629;0.8807
0001350900;-3.3447;-2.6001;-1.1851;-0.3235;0.3890;0.8793
0001350909;-3.8044;-2.7078;-0.5914;-0.3171;0.4210;0.8966
0001350918;-3.6248;-2.5235;-0.6105;-0.3419;0.4435;0.9198
0001350927;-3.0095;-1.8435;-0.8140;-0.3605;0.4652;0.9321
0001350936;-2.4397;-1.4964;-1.2234;-0.3850;0.5164;0.9089
0001350945;-2.2482;-0.8404;-1.6879;-0.3946;0.5485;0.8390
0001350954;-2.3655;-0.6177;-1.6233;-0.3970;0.5449;0.7325
0001350963;-2.6001;-0.4980;-1.3336;-0.3857;0.5474;0.6340
0001350972;-2.9018;-0.8859;-1.2594;-0.3900;0.5889;0.5762
0001350981;-3.2920;-1.2713;-1.3408;-0.3865;0.6119;0.5245
0001351124;-5.6671;-1.4222;-0.0072;-0.3246;0.3717;-0.3293
0001351133;-4.9680;-1.5107;-0.0599;-0.3647;0.2785;-0.2815
0001351142;-4.1228;-1.6305;0.0239;-0.4082;0.2070;-0.1920
0001351151;-3.1340;-1.5347;0.0766;-0.4374;0.1605;-0.1003
0001351160;-2.7557;-1.7119;0.3998;-0.4922;0.1725;-0.0485
0001351169;-2.4469;-1.5969;0.2801;-0.5408;0.2160;-0.0128
0001351178;-2.6528;-1.7382;-0.0431;-0.5628;0.2374;-0.0019
0001351187;-2.5809;-1.5730;-0.4453;-0.5806;0.2240;0.0032
0001351196;-2.6576;-1.7166;-0.5626;-0.6038;0.2041;0.0035
0001351205;-2.3750;-1.5874;-0.5986;-0.6171;0.1960;0.0031
0001351214;-2.3894;-1.5850;-0.7278;-0.6467;0.2048;0.0097
0001351223;-2.2051;-1.6233;-0.9242;-0.6379;0.2184;0.0176
0001351232;-2.3463;-1.5538;-1.0894;-0.6466;0.2365;0.0364
0001351241;-2.2553;-1.7478;-0.9744;-0.6487;0.2667;0.0361
0001351250;-2.5139;-1.8028;-0.9266;-0.6522;0.3123;0.0380
0001351259;-2.6049;-1.9513;-1.2665;-0.6695;0.3507;0.0533
0001351268;-2.6815;-1.9704;-1.4006;-0.6602;0.3575;0.0706
0001351277;-2.9185;-2.3774;-1.5012;-0.6378;0.3463;0.0889
0001351286;-2.8228;-2.5091;-1.5730;-0.6346;0.3465;0.1003
0001351295;-3.0646;-2.8084;-1.7502;-0.6359;0.3196;0.0953
0001351304;-2.7725;-2.6169;-1.7358;-0.6063;0.2862;0.1006
0001351313;-2.8970;-2.9281;-1.4868;-0.5701;0.3059;0.1123
0001351322;-2.7294;-2.9880;-1.3958;-0.5288;0.3208;0.1005
0001351331;-2.5833;-3.0574;-1.5060;-0.4971;0.3341;0.1118
0001351340;-2.4780;-3.0789;-1.7621;-0.4668;0.3447;0.1178
0001351349;-2.3774;-3.1484;-1.9896;-0.4175;0.3411;0.1041
0001351358;-2.2482;-3.2154;-1.9034;-0.3628;0.3551;0.1005
0001351367;-2.0494;-3.0718;-1.8220;-0.2866;0.3607;0.0787
0001351376;-2.1500;-3.3040;-2.0063;-0.2237;0.3869;0.0809
0001351385;-2.3248;-3.2441;-2.1979;-0.1475;0.3866;0.0878
0001351394;-2.5091;-3.0502;-2.1428;-0.0546;0.3725;0.1132
0001351403;-2.3224;-2.7653;-1.7885;0.0165;0.3623;0.1519
0001351412;-2.6121;-2.7366;-1.7645;0.0636;0.3425;0.1833
0001351421;-2.6121;-2.4828;-1.5634;0.1006;0.3256;0.2181
0001351430;-2.7940;-2.1691;-1.3527;0.1091;0.3250;0.2422
0001351439;-2.8036;-2.0949;-1.2785;0.1167;0.3207;0.2557
0001351448;-2.6719;-1.9201;-1.2833;0.1258;0.3218;0.2799
0001351457;-2.4828;-1.8986;-1.3096;0.1455;0.3111;0.2967
0001351466;-2.3798;-2.0087;-1.2881;0.1704;0.3258;0.3265
0001351475;-2.2673;-2.3990;-1.3072;0.2180;0.3337;0.3469
0001351484;-2.2410;-2.6049;-1.6113;0.2605;0.3230;0.3809
0001351493;-2.1428;-2.7342;-1.5275;0.3303;0.3016;0.4004
0001351502;-1.9728;-2.8156;-1.4485;0.4082;0.2982;0.4253
0001351511;-1.8364;-2.8395;-1.2617;0.4812;0.3345;0.4439
0001351520;-1.8675;-2.6624;-1.1779;0.5383;0.3555;0.4413
0001351529;-1.8316;-2.7725;-1.3599;0.5784;0.3579;0.4571
0001351538;-1.7909;-2.6624;-1.4174;0.5974;0.3681;0.4743
0001351547;-1.8244;-2.5546;-1.6305;0.6238;0.3709;0.4903
0001351556;-1.7382;-2.2482;-1.6831;0.6374;0.3652;0.5196
0001351565;-1.6831;-2.4134;-1.7645;0.6584;0.3736;0.5508
0001351574;-1.5275;-2.0782;-1.8483;0.6780;0.4049;0.5606
0001351583;-2.0016;-2.0375;-2.0016;0.7055;0.4730;0.5324
0001351592;-2.1811;-1.9010;-2.5163;0.7063;0.5247;0.4558
0001351601;-2.6839;-2.1596;-2.7629;0.7028;0.5099;0.4106
0001351610;-3.4429;-2.4660;-2.7174;0.7007;0.4550;0.4050
0001351619;-4.1204;-2.8874;-2.6791;0.7318;0.4201;0.4249
0001351628;-4.7070;-3.1939;-2.9568;0.7762;0.3829;0.4325
0001351637;-5.1595;-3.3447;-3.2968;0.8271;0.2878;0.4554
0001351646;-5.2289;-3.4453;-3.3758;0.8304;0.1455;0.4888
0001351655;-4.5394;-3.0981;-3.0670;0.8291;0.0137;0.5287
0001351664;-3.4022;-2.3583;-2.7821;0.7674;-0.0258;0.5529
0001351673;-2.6073;-1.9345;-2.7246;0.6831;0.0241;0.5365
0001351682;-1.8459;-1.3575;-2.9856;0.6230;0.0753;0.4952
0001351691;-1.6257;-0.9002;-3.7373;0.5604;0.0949;0.4510
0001351700;-1.7526;-0.3926;-3.7517;0.5199;0.0769;0.3946
0001351709;-1.6400;0.1053;-3.5099;0.4774;0.0160;0.3496
0001351718;-1.7765;0.5650;-3.3423;0.4383;-0.0293;0.2773
0001351727;-1.7166;0.8715;-3.2681;0.3753;-0.0504;0.1953
0001351736;-1.4868;0.7925;-3.1244;0.3039;-0.0846;0.0958
0001351745;-1.1899;0.4717;-3.0406;0.2543;-0.1090;0.0195
0001351754;-1.0582;0.1341;-2.9544;0.2245;-0.1160;-0.0151
0001351842;-1.0582;0.9194;-3.4596;-0.0348;-0.0330;0.2795
0001351851;-1.1444;0.9481;-3.3064;-0.0877;-0.0557;0.3034
0001351860;-1.1372;0.8906;-3.1508;-0.1350;-0.0735;0.3006
0001351869;-1.2737;0.8595;-3.2537;-0.1836;-0.0762;0.3015
0001351878;-1.2522;0.8045;-3.3375;-0.2453;-0.1026;0.2854
0001351887;-1.1372;0.9098;-3.2705;-0.3000;-0.1147;0.2830
0001351896;-1.4676;0.7254;-3.0861;-0.3623;-0.1298;0.2690
0001351905;-1.2378;0.5411;-3.0454;-0.4199;-0.1327;0.2459
0001351914;-1.1995;0.3089;-3.0071;-0.4682;-0.1408;0.2233
0001351923;-0.9313;0.1508;-2.8826;-0.5236;-0.1179;0.2053
0001351932;-0.5483;0.2322;-2.9473;-0.5657;-0.0865;0.1811
0001351941;-0.4836;-0.0096;-2.9329;-0.6134;-0.0416;0.1519
0001351950;-0.3280;-0.0479;-3.0023;-0.6370;-0.0012;0.1194
0001351959;-0.4046;-0.3017;-3.0502;-0.6747;0.0532;0.0841
0001351968;-0.4046;-0.4046;-3.0311;-0.7043;0.0994;0.0365
0001351977;-0.5387;-0.5291;-3.2561;-0.7282;0.1399;-0.0043
0001351986;-0.7446;-0.6704;-3.1723;-0.7510;0.1595;-0.0486
0001351995;-0.8667;-0.6129;-3.1173;-0.7580;0.1752;-0.0986
0001352004;-1.0080;-0.5291;-2.9928;-0.7735;0.1924;-0.1332
0001352013;-1.0750;-0.3687;-2.9329;-0.7877;0.2014;-0.1712
0001352022;-1.0606;-0.4118;-3.1101;-0.8104;0.2229;-0.1986
0001352031;-1.1396;-0.3448;-2.9521;-0.8330;0.2202;-0.2276
0001352040;-1.1636;-0.3519;-2.7390;-0.8460;0.2220;-0.2341
0001352049;-1.4006;-0.4525;-2.6456;-0.8560;0.2200;-0.2585
0001352058;-1.4844;-0.3879;-2.4948;-0.8656;0.2157;-0.2671
0001352067;-1.4150;-0.4884;-2.3080;-0.8693;0.2133;-0.2659
0001352076;-1.1085;-0.4573;-2.1955;-0.8859;0.2186;-0.2677
0001352085;-0.9529;-0.3400;-2.2697;-0.8888;0.2353;-0.2651
0001352094;-0.9361;-0.3519;-2.3008;-0.8912;0.2429;-0.2661
0001352103;-1.0056;-0.3807;-2.1356;-0.8835;0.2393;-0.2566
0001352112;-1.1564;-0.6488;-2.3008;-0.8917;0.2451;-0.2518
0001352121;-1.2570;-0.5124;-2.2338;-0.8932;0.2068;-0.2542
0001352130;-1.4940;-0.6009;-2.1332;-0.8781;0.1923;-0.2374
0001352139;-1.6065;-0.3256;-1.7454;-0.8529;0.1747;-0.2108
0001352148;-1.7358;-0.6273;-1.6640;-0.8386;0.1396;-0.1997
0001352157;-1.4413;-0.5315;-1.6448;-0.8243;0.1506;-0.1917
0001352166;-1.5538;-0.9170;-1.5443;-0.8021;0.1466;-0.1635
0001352175;-1.1971;-0.9146;-1.6592;-0.8135;0.1613;-0.1649
0001352184;-1.3503;-1.1372;-1.8794;-0.8031;0.1784;-0.1648
0001352193;-1.1756;-0.9888;-1.8076;-0.7687;0.1424;-0.1552
0001352202;-1.5012;-1.0487;-1.7214;-0.7450;0.1498;-0.1347
0001352211;-1.6783;-0.9409;-1.7310;-0.7337;0.1316;-0.1375
0001352220;-1.8627;-1.0367;-1.3838;-0.6983;0.1074;-0.1408
0001352229;-1.6185;-1.1372;-1.6759;-0.6876;0.1077;-0.1450
0001352238;-1.7095;-1.3575;-1.5395;-0.6630;0.1025;-0.1551
0001352247;-1.8340;-1.4461;-1.5658;-0.6262;0.0858;-0.1476
0001352256;-1.6735;-1.6233;-1.5538;-0.5914;0.0881;-0.1450
0001352265;-1.7382;-1.7286;-1.4964;-0.5466;0.1005;-0.1436
0001352274;-1.6783;-1.6544;-1.6472;-0.5024;0.0823;-0.1544
0001352283;-1.5897;-1.8076;-1.7789;-0.4599;0.0969;-0.1561
0001352292;-1.6041;-1.9441;-1.8172;-0.4285;0.1147;-0.1709
0001352301;-1.8675;-2.0279;-1.6496;-0.3738;0.0925;-0.1805
0001352310;-1.8100;-1.8292;-1.8387;-0.3376;0.0953;-0.1760
0001352319;-1.9225;-1.6568;-1.9106;-0.2950;0.0881;-0.1728
0001352328;-2.1404;-1.6496;-1.6281;-0.2550;0.0620;-0.1580
0001352337;-2.0446;-1.5036;-1.5969;-0.2177;0.0505;-0.1416
0001352346;-2.3918;-1.4964;-1.8124;-0.1998;0.0397;-0.1216
0001352355;-2.2098;-1.3360;-1.6664;-0.1705;0.0115;-0.1124
0001352364;-2.3080;-1.2737;-1.5706;-0.1531;-0.0060;-0.0862
0001352373;-2.1045;-1.0894;-1.4940;-0.1408;-0.0157;-0.0757
0001352382;-1.9297;-0.9649;-1.4102;-0.1230;-0.0132;-0.0630
0001352391;-1.7142;-1.0989;-1.4198;-0.1144;-0.0159;-0.0588
0001352400;-1.8675;-1.1756;-1.4964;-0.1058;-0.0135;-0.0436
0001352409;-2.0375;-1.3862;-1.5658;-0.0834;-0.0304;-0.0386
0001352418;-1.9249;-1.2641;-1.4198;-0.0526;-0.0462;-0.0317
0001352427;-1.8866;-1.3312;-1.3934;-0.0349;-0.0482;-0.0201
0001352436;-1.9680;-1.3623;-1.4629;-0.0097;-0.0606;-0.0240
0001352445;-1.9465;-1.4341;-1.4293;0.0149;-0.0613;-0.0132
0001352454;-1.6664;-1.2282;-1.5826;0.0357;-0.0711;-0.0205
0001352542;-1.6400;-0.9649;-1.8004;0.1134;-0.0332;0.0095
0001352551;-1.7358;-0.9984;-1.6951;0.1142;-0.0250;0.0119
0001352560;-1.8052;-0.7685;-1.8387;0.1188;-0.0425;0.0089
0001352569;-1.7885;-0.7494;-1.7885;0.1256;-0.0532;0.0120
0001352578;-1.8938;-0.7039;-1.7095;0.1255;-0.0597;0.0187
0001352587;-1.7741;-0.7183;-1.7813;0.1143;-0.0520;0.0306
0001352596;-1.6113;-0.6847;-1.7789;0.1130;-0.0585;0.0253
0001352605;-1.5467;-0.5171;-1.8555;0.1035;-0.0562;0.0324
0001352614;-1.6448;-0.6776;-1.8004;0.0858;-0.0516;0.0362
0001352623;-1.6448;-0.5267;-1.7957;0.0831;-0.0657;0.0289
0001352632;-1.6137;-0.4741;-1.9154;0.0582;-0.0542;0.0329
0001352641;-1.5275;-0.3950;-1.8986;0.0465;-0.0552;0.0289
0001352650;-1.5682;-0.4764;-1.8531;0.0238;-0.0593;0.0330
0001352659;-1.5395;-0.4214;-1.8028;0.0109;-0.0604;0.0225
0001352668;-1.5155;-0.3136;-1.8842;-0.0097;-0.0510;0.0213
0001352677;-1.5299;-0.4142;-1.9225;-0.0264;-0.0508;0.0129
0001352686;-1.5275;-0.3711;-1.8364;-0.0460;-0.0482;0.0048
0001352695;-1.3647;-0.3543;-1.9561;-0.0649;-0.0434;0.0083
0001352704;-1.6831;-0.4597;-1.7885;-0.0810;-0.0377;0.0085
0001352713;-1.5969;-0.4597;-1.8890;-0.0999;-0.0362;-0.0011
0001352722;-1.4102;-0.3879;-1.8890;-0.1234;-0.0398;-0.0012
0001352731;-1.6376;-0.4381;-1.7214;-0.1335;-0.0326;-0.0096
0001352740;-1.7238;-0.6249;-1.7885;-0.1499;-0.0342;-0.0085
0001352749;-1.7071;-0.5962;-1.8364;-0.1660;-0.0252;-0.0044
0001352758;-1.4700;-0.5171;-1.6975;-0.1769;-0.0324;-0.0048
0001352767;-1.6783;-0.5938;-1.7741;-0.1832;-0.0353;-0.0108
0001352776;-1.4341;-0.2801;-1.7669;-0.2037;-0.0237;-0.0001
0001352785;-1.6209;-0.6728;-1.6544;-0.2182;-0.0278;-0.0060
0001352794;-1.7310;-0.6273;-1.6424;-0.2226;-0.0286;-0.0087
0001352803;-1.7238;-0.6129;-1.6831;-0.2415;-0.0252;-0.0009
0001352812;-1.7334;-0.6440;-1.5850;-0.2482;-0.0349;-0.0115
0001352821;-1.6496;-0.5794;-1.6592;-0.2589;-0.0432;-0.0043
0001352830;-1.8076;-0.6584;-1.6328;-0.2685;-0.0433;-0.0004
0001352839;-1.5610;-0.7566;-1.5299;-0.2759;-0.0390;-0.0049
0001352848;-1.6592;-0.8475;-1.5467;-0.2828;-0.0412;0.0019
0001352857;-1.8244;-0.8667;-1.2570;-0.2749;-0.0516;-0.0016
0001352866;-1.8076;-0.8212;-1.2474;-0.2731;-0.0388;0.0184
0001352875;-1.8507;-1.2186;-1.3910;-0.2722;-0.0332;0.0176
0001352884;-1.7358;-1.2426;-1.3264;-0.2623;-0.0524;0.0089
0001352893;-1.5826;-1.1181;-1.1875;-0.2450;-0.0445;0.0113
0001352902;-1.4581;-1.0774;-1.1827;-0.2346;-0.0344;0.0044
0001352911;-1.2929;-1.0367;-1.1660;-0.2308;-0.0077;0.0063
0001352920;-1.4102;-0.8739;-1.2546;-0.2276;0.0121;-0.0124
0001352929;-1.1325;-0.5818;-1.3312;-0.2242;0.0424;-0.0245
0001352938;-1.5610;-0.8164;-1.2522;-0.2274;0.0409;-0.0392
0001352947;-1.5945;-0.8308;-1.3886;-0.2289;0.0502;-0.0292
0001352956;-1.7885;-1.1732;-1.2594;-0.2137;0.0422;-0.0264
0001352965;-1.9201;-1.4533;-1.2258;-0.1935;0.0445;-0.0072
0001352974;-2.0016;-1.5850;-1.1803;-0.1564;0.0426;0.0093
0001352983;-1.7358;-1.6113;-1.2282;-0.1187;0.0524;0.0183
0001352992;-1.7095;-1.6831;-1.3072;-0.0822;0.0650;0.0278
0001353001;-1.7310;-1.5203;-1.3431;-0.0461;0.0749;0.0338
0001353010;-1.5826;-1.2881;-1.2665;-0.0258;0.0681;0.0244
0001353019;-1.6352;-1.0894;-1.2163;0.0011;0.0765;-0.0029
0001353028;-1.8124;-0.9505;-1.3815;0.0128;0.0833;-0.0147
0001353037;-1.6017;-0.6321;-1.4748;0.0282;0.0731;-0.0332
0001353046;-1.4557;-0.3519;-1.6448;0.0225;0.0624;-0.0353
0001353055;-1.6568;-0.2849;-1.6879;0.0192;0.0374;-0.0422
0001353064;-1.5969;-0.1844;-1.6735;0.0328;0.0161;-0.0490
0001353073;-1.5275;0.0455;-1.6903;0.0117;0.0029;-0.0385
0001353082;-1.6975;-0.0646;-1.6712;0.0049;0.0133;0.0101
0001353091;-1.7119;-0.1293;-1.5490;-0.0280;0.0691;0.1191
0001353100;-1.6065;-0.1030;-1.6544;-0.0618;0.0457;0.1426
0001353109;-1.5299;-0.3543;-1.8962;-0.0954;-0.0005;0.0785
0001353118;-1.4485;-0.7805;-1.8076;-0.0953;-0.0289;-0.0076
0001353127;-1.1779;-0.7183;-1.8459;-0.0441;-0.0873;-0.1058
0001353136;-1.0151;-0.5267;-1.6999;-0.0120;-0.1264;-0.1532
0001353145;-1.1612;-0.2777;-1.5036;0.0097;-0.1352;-0.1559
0001353154;-1.2570;0.0886;-1.5323;-0.0065;-0.1190;-0.1186
0001353163;-1.2234;0.2107;-1.1779;-0.0285;-0.0867;-0.0521
0001353251;-1.6879;-0.7733;-1.2737;-0.1218;-0.1027;0.0213
0001353260;-1.6448;-1.1205;-1.3791;-0.1114;-0.1069;0.0043
0001353269;-1.6328;-1.3719;-1.2282;-0.0925;-0.1009;0.0036
0001353278;-1.3910;-1.3743;-1.2594;-0.0637;-0.0978;0.0040
0001353287;-1.3192;-1.1037;-1.2354;-0.0425;-0.0818;0.0111
0001353296;-1.3886;-1.1923;-1.2857;-0.0282;-0.0624;-0.0071
0001353305;-1.5993;-1.0295;-1.4198;-0.0284;-0.0540;-0.0080
0001353314;-1.7933;-0.9864;-1.3958;-0.0217;-0.0514;-0.0208
0001353323;-1.6113;-0.8691;-1.3791;-0.0132;-0.0549;-0.0208
0001353332;-1.6903;-0.9098;-1.3791;-0.0189;-0.0500;-0.0244
0001353341;-1.6951;-0.9960;-1.3168;-0.0088;-0.0472;-0.0249
0001353350;-1.6903;-0.9529;-1.2163;-0.0076;-0.0468;-0.0301
0001353359;-1.8292;-1.0989;-1.3934;-0.0037;-0.0344;-0.0205
0001353368;-1.8890;-1.2210;-1.4246;0.0045;-0.0392;-0.0200
0001353377;-1.7214;-0.8643;-1.3455;0.0091;-0.0449;-0.0205
0001353386;-1.7430;-0.7829;-1.2522;0.0088;-0.0448;-0.0200
0001353395;-1.6903;-0.6704;-1.2594;0.0039;-0.0406;-0.0183
0001353404;-1.7741;-0.6536;-1.2881;-0.0061;-0.0292;-0.0099
0001353413;-1.6903;-0.6273;-1.2210;-0.0183;-0.0221;-0.0123
0001353422;-1.5251;-0.5435;-1.2641;-0.0203;-0.0258;-0.0128
0001353431;-1.4054;-0.4046;-1.2234;-0.0390;-0.0205;-0.0015
0001353440;-1.5275;-0.4190;-1.2522;-0.0490;-0.0217;-0.0032
0001353449;-1.3958;-0.3136;-1.2761;-0.0520;-0.0261;-0.0109
0001353458;-1.3910;-0.4956;-1.3048;-0.0605;-0.0181;-0.0131
0001353467;-1.3719;-0.4070;-1.3408;-0.0719;-0.0151;-0.0128
0001353476;-1.4653;-0.5938;-1.4030;-0.0661;-0.0157;-0.0180
0001353485;-1.5586;-0.6105;-1.3192;-0.0698;-0.0129;-0.0101
0001353494;-1.3479;-0.4693;-1.4269;-0.0719;-0.0053;-0.0055
0001353503;-1.4557;-0.5770;-1.3815;-0.0753;0.0059;0.0003
0001353512;-1.4150;-0.4669;-1.4126;-0.0801;0.0052;0.0065
0001353521;-1.7478;-0.5818;-1.4078;-0.0819;-0.0037;0.0064
0001353530;-1.5874;-0.5507;-1.3886;-0.0810;-0.0036;0.0155
0001353539;-1.7262;-0.7901;-1.4293;-0.0802;-0.0083;0.0165
0001353548;-1.6281;-0.6201;-1.4078;-0.0745;-0.0183;0.0109
0001353557;-1.4629;-0.6656;-1.4317;-0.0711;-0.0181;0.0169
0001353566;-1.6137;-0.6608;-1.3216;-0.0658;-0.0258;0.0139
0001353575;-1.6712;-0.8571;-1.3024;-0.0636;-0.0228;0.0124
0001353584;-1.5012;-0.7685;-1.3336;-0.0525;-0.0248;0.0169
0001353593;-1.4724;-0.7398;-1.3168;-0.0386;-0.0349;0.0057
0001353602;-1.5251;-0.8667;-1.3503;-0.0365;-0.0338;0.0045
0001353611;-1.6352;-0.7470;-1.3264;-0.0272;-0.0342;0.0073
0001353620;-1.6472;-0.8236;-1.2330;-0.0218;-0.0344;0.0009
0001353629;-1.5083;-0.6847;-1.2378;-0.0092;-0.0430;-0.0037
0001353638;-1.5179;-0.7566;-1.1923;-0.0091;-0.0369;0.0019
0001353647;-1.4676;-0.7566;-1.2234;0.0001;-0.0476;-0.0069
0001353656;-1.4150;-0.7039;-1.1301;0.0009;-0.0421;0.0021
0001353665;-1.4293;-0.6656;-1.1229;0.0065;-0.0402;-0.0011
0001353674;-1.6328;-0.7542;-1.2186;0.0061;-0.0361;0.0032
0001353683;-1.6783;-0.7542;-1.2546;0.0125;-0.0321;-0.0008
0001353692;-1.4700;-0.6345;-1.3431;0.0141;-0.0308;0.0004
0001353701;-1.5107;-0.5315;-1.2785;0.0117;-0.0254;-0.0016
0001353710;-1.4629;-0.5483;-1.2354;0.0129;-0.0242;-0.0052
0001353719;-1.5586;-0.7254;-1.2450;0.0087;-0.0237;-0.0065
0001353728;-1.5850;-0.5866;-1.2881;0.0063;-0.0230;-0.0059
0001353737;-1.4820;-0.5291;-1.3384;0.0005;-0.0188;-0.0013
0001353746;-1.6305;-0.7111;-1.3048;-0.0019;-0.0228;-0.0040
0001353755;-1.5658;-0.6512;-1.3599;-0.0011;-0.0234;-0.0080
0001353764;-1.4174;-0.4094;-1.2929;-0.0076;-0.0213;-0.0032
0001353773;-1.4605;-0.5028;-1.3144;-0.0089;-0.0290;-0.0060
0001353782;-1.5610;-0.5986;-1.3096;-0.0073;-0.0217;-0.0071
0001353791;-1.7095;-0.6967;-1.3767;-0.0076;-0.0165;-0.0087
0001353800;-1.2809;-0.4932;-1.3623;-0.0064;-0.0191;-0.0083
0001353809;-1.5850;-0.6249;-1.3384;-0.0057;-0.0163;-0.0099
0001353818;-1.4557;-0.5435;-1.3791;-0.0060;-0.0153;-0.0044
0001353827;-1.6424;-0.6129;-1.3743;-0.0027;-0.0229;-0.0189
0001353836;-1.4413;-0.5052;-1.3168;-0.0085;-0.0185;-0.0177
0001353845;-1.7095;-0.6177;-1.3312;-0.0101;-0.0185;-0.0238
0001353854;-1.5897;-0.6416;-1.4246;-0.0073;-0.0269;-0.0228
0001353863;-1.6807;-0.7326;-1.4605;-0.0108;-0.0312;-0.0179
0001353951;-1.6328;-0.6440;-1.3575;-0.0096;-0.0220;-0.0200
0001353960;-1.4293;-0.5267;-1.3431;-0.0144;-0.0207;-0.0217
0001353969;-1.5443;-0.6177;-1.2953;-0.0113;-0.0181;-0.0258
0001353978;-1.4557;-0.4405;-1.3479;-0.0187;-0.0123;-0.0196
0001353987;-1.6281;-0.6416;-1.3168;-0.0149;-0.0233;-0.0281
0001353996;-1.6400;-0.6847;-1.2929;-0.0250;-0.0199;-0.0221
0001354005;-1.6999;-0.7063;-1.3096;-0.0241;-0.0201;-0.0192
0001354014;-1.3934;-0.5483;-1.4317;-0.0262;-0.0217;-0.0220
0001354023;-1.5490;-0.6393;-1.3168;-0.0318;-0.0233;-0.0240
0001354032;-1.5610;-0.6440;-1.3886;-0.0372;-0.0155;-0.0163
0001354041;-1.7238;-0.7805;-1.3264;-0.0365;-0.0196;-0.0249
0001354050;-1.7095;-0.7781;-1.4102;-0.0384;-0.0156;-0.0176
0001354059;-1.4653;-0.7015;-1.3862;-0.0378;-0.0156;-0.0191
0001354068;-1.5658;-0.6943;-1.3551;-0.0358;-0.0193;-0.0151
0001354077;-1.5083;-0.6776;-1.3743;-0.0372;-0.0077;-0.0132
0001354086;-1.5538;-0.6943;-1.3168;-0.0312;-0.0213;-0.0176
0001354095;-1.8100;-0.8021;-1.4700;-0.0309;-0.0157;-0.0056
0001354104;-1.7597;-0.8308;-1.3192;-0.0221;-0.0273;-0.0121
0001354113;-1.6831;-0.7614;-1.3791;-0.0169;-0.0332;-0.0113
0001354122;-1.6520;-0.8140;-1.3360;-0.0234;-0.0358;-0.0061
0001354131;-1.5802;-0.6919;-1.3312;-0.0153;-0.0324;-0.0080
0001354140;-1.7071;-0.7877;-1.3623;-0.0176;-0.0289;0.0021
0001354149;-1.5371;-0.7183;-1.4293;-0.0139;-0.0320;-0.0011
0001354158;-1.5874;-0.6943;-1.4748;-0.0127;-0.0308;0.0049
0001354167;-1.6424;-0.6129;-1.3791;-0.0112;-0.0334;0.0044
0001354176;-1.4796;-0.5004;-1.4341;-0.0103;-0.0398;0.0004
0001354185;-1.5467;-0.6632;-1.3431;-0.0149;-0.0308;-0.0004
0001354194;-1.6735;-0.7111;-1.3455;-0.0021;-0.0405;-0.0007
0001354203;-1.6257;-0.6847;-1.4293;-0.0032;-0.0386;0.0029
0001354212;-1.5826;-0.7446;-1.3503;-0.0049;-0.0344;0.0065
0001354221;-1.6017;-0.6488;-1.3791;-0.0016;-0.0404;0.0039
0001354230;-1.4437;-0.6153;-1.3599;-0.0071;-0.0286;0.0091
0001354239;-1.4198;-0.4405;-1.3719;-0.0051;-0.0364;0.0061
0001354248;-1.5443;-0.5698;-1.3767;-0.0056;-0.0318;0.0048
0001354257;-1.6065;-0.7278;-1.3479;-0.0068;-0.0302;0.0043
0001354266;-1.4940;-0.5794;-1.3647;-0.0079;-0.0368;-0.0015
0001354275;-1.4724;-0.6201;-1.2641;-0.0159;-0.0308;0.0008
0001354284;-1.5538;-0.6536;-1.4126;-0.0024;-0.0376;-0.0036
0001354293;-1.4988;-0.6656;-1.3048;-0.0112;-0.0310;0.0017
0001354302;-1.6448;-0.6225;-1.3408;-0.0105;-0.0378;0.0013
0001354311;-1.6257;-0.6416;-1.3934;-0.0120;-0.0410;0.0011
0001354320;-1.6664;-0.5387;-1.3791;-0.0135;-0.0442;-0.0051
0001354329;-1.6209;-0.7254;-1.3479;-0.0135;-0.0392;-0.0012
0001354338;-1.4437;-0.5674;-1.3815;-0.0171;-0.0406;-0.0028
0001354347;-1.4724;-0.6752;-1.3048;-0.0127;-0.0421;-0.0033
0001354356;-1.5419;-0.6560;-1.3024;-0.0100;-0.0413;-0.0040
0001354365;-1.4413;-0.6416;-1.4150;-0.0167;-0.0356;0.0041
0001354374;-1.4700;-0.6345;-1.4006;-0.0123;-0.0384;-0.0048
0001354383;-1.5514;-0.6536;-1.3527;-0.0153;-0.0364;-0.0031
0001354392;-1.5826;-0.6536;-1.3503;-0.0101;-0.0397;-0.0104
0001354401;-1.4317;-0.6105;-1.3360;-0.0136;-0.0321;-0.0008
0001354410;-1.3599;-0.5004;-1.3551;-0.0184;-0.0318;-0.0055
0001354419;-1.5778;-0.7470;-1.3886;-0.0084;-0.0350;-0.0101
0001354428;-1.4126;-0.4262;-1.3096;-0.0140;-0.0332;-0.0077
0001354437;-1.5634;-0.7733;-1.3384;-0.0119;-0.0334;-0.0115
0001354446;-1.3743;-0.5100;-1.3264;-0.0203;-0.0304;-0.0071
0001354455;-1.3575;-0.6464;-1.3599;-0.0171;-0.0325;-0.0093
0001354464;-1.3743;-0.5243;-1.2546;-0.0159;-0.0298;-0.0075
0001354473;-1.5012;-0.6847;-1.4293;-0.0116;-0.0293;-0.0105
0001354482;-1.5826;-0.6297;-1.3455;-0.0063;-0.0336;-0.0121
0001354491;-1.6257;-0.7135;-1.3599;0.0005;-0.0360;-0.0107
0001354500;-1.6520;-0.6464;-1.3288;-0.0063;-0.0338;-0.0075
0001354509;-1.4748;-0.4477;-1.3408;-0.0071;-0.0364;-0.0141
0001354518;-1.4533;-0.5674;-1.2929;-0.0109;-0.0281;-0.0124
0001354527;-1.3575;-0.6201;-1.3934;-0.0067;-0.0301;-0.0132
0001354536;-1.5778;-0.7733;-1.5155;-0.0115;-0.0274;-0.0123
0001354545;-1.5467;-0.6919;-1.4557;-0.0035;-0.0421;-0.0188
0001354554;-1.4341;-0.6608;-1.4485;-0.0043;-0.0349;-0.0075
0001354563;-1.5179;-0.5770;-1.3431;-0.0065;-0.0274;-0.0071
0001354655;-1.4222;-0.8260;-1.2570;-0.0240;-0.0364;-0.0373
0001354662;-1.5203;-0.5171;-1.2737;-0.0232;-0.0136;-0.0341
0001354670;-1.5993;-0.5602;-1.3408;-0.0147;-0.0096;-0.0305
0001354678;-1.5802;-0.5794;-1.3551;-0.0095;-0.0147;-0.0313
0001354686;-1.2546;-0.5555;-1.3982;-0.0143;-0.0172;-0.0294
0001354694;-1.4150;-0.5938;-1.3192;-0.0085;-0.0199;-0.0310
