time;acc_x;acc_y;acc_z;gyro_x;gyro_y;gyro_z
0000209582;-2.6935;-6.2728;3.9049;0.0814;0.1082;-0.0970
0000209590;-2.7629;-6.2968;3.8930;0.1045;0.0975;-0.1006
0000209597;-2.9281;-6.4308;3.9744;0.1306;0.0781;-0.1055
0000209605;-2.6121;-6.3351;3.8451;0.1492;0.0644;-0.1098
0000209614;-2.7198;-6.1770;3.8595;0.1592;0.0578;-0.0989
0000209622;-2.8706;-6.1794;3.7828;0.1765;0.0406;-0.1053
0000209634;-2.8683;-6.1723;3.9337;0.1939;0.0193;-0.1091
0000209642;-2.8443;-6.1004;3.8690;0.1915;0.0181;-0.1025
0000209650;-2.8635;-6.0980;3.8427;0.1905;0.0027;-0.1051
0000209717;-2.5618;-5.6958;3.9385;0.1608;-0.0554;-0.0626
0000209725;-2.4660;-5.5186;4.0103;0.1392;-0.0620;-0.0605
0000209737;-2.4804;-5.4300;3.9480;0.1238;-0.0620;-0.0557
0000209745;-2.5977;-5.4660;4.0079;0.1065;-0.0597;-0.0440
0000209756;-2.6767;-5.5306;4.0965;0.0881;-0.0691;-0.0430
0000209764;-2.6169;-5.5019;3.9863;0.0793;-0.0686;-0.0417
0000209776;-2.7318;-5.7341;4.0342;0.0630;-0.0598;-0.0286
0000209784;-2.6863;-5.9304;3.9887;0.0536;-0.0490;-0.0211
0000209792;-2.6217;-5.9137;3.9768;0.0542;-0.0500;-0.0203
0000209803;-2.7677;-6.0406;3.9265;0.0536;-0.0497;-0.0185
0000209811;-2.7031;-6.0214;3.9337;0.0605;-0.0600;-0.0229
0000209823;-2.7414;-5.9376;3.8642;0.0638;-0.0594;-0.0296
0000209831;-2.6528;-5.9185;4.0127;0.0616;-0.0552;-0.0269
0000209842;-2.5762;-6.0454;3.9313;0.0803;-0.0449;-0.0414
0000209850;-2.5953;-5.7557;4.0534;0.0787;-0.0337;-0.0406
0000209862;-2.7414;-5.8514;3.9672;0.0818;-0.0409;-0.0537
0000209870;-2.5594;-5.7964;3.9552;0.0953;-0.0601;-0.0566
0000209881;-2.9784;-5.9520;3.9983;0.1116;-0.0617;-0.0570
0000209889;-2.8060;-5.9017;4.0390;0.1156;-0.0715;-0.0626
0000209897;-2.4995;-5.7078;3.9576;0.1204;-0.0903;-0.0681
0000209909;-2.4325;-5.7916;3.8906;0.1263;-0.0949;-0.0727
0000209917;-2.4708;-5.8921;3.9169;0.1370;-0.0874;-0.0689
0000209984;-2.6791;-5.5665;4.0677;0.1087;-0.0530;-0.0212
0000209992;-2.5211;-5.3486;4.0103;0.1067;-0.0504;-0.0176
0000210004;-2.6456;-5.4612;4.0175;0.0974;-0.0486;-0.0230
0000210012;-2.6959;-5.4755;3.9792;0.0893;-0.0405;-0.0189
0000210023;-2.6863;-5.5067;4.0175;0.0845;-0.0490;-0.0196
0000210031;-2.6384;-5.3822;3.9169;0.0774;-0.0516;-0.0232
0000210043;-2.7533;-5.5258;4.0079;0.0707;-0.0552;-0.0277
0000210051;-2.7126;-5.6695;3.9983;0.0683;-0.0609;-0.0296
0000210059;-2.5905;-5.6910;4.0031;0.0758;-0.0569;-0.0324
0000210070;-2.6264;-5.7102;3.9648;0.0702;-0.0540;-0.0269
0000210078;-2.4876;-5.5809;3.9409;0.0721;-0.0437;-0.0276
0000210090;-2.4253;-5.6336;3.9504;0.0773;-0.0390;-0.0296
0000210098;-2.5450;-5.6383;3.8786;0.0798;-0.0336;-0.0320
0000210109;-2.6528;-5.6982;3.9385;0.0854;-0.0250;-0.0369
0000210117;-2.5881;-5.5785;3.9313;0.0955;-0.0269;-0.0441
0000210129;-2.5163;-5.5689;3.9648;0.0989;-0.0276;-0.0458
0000210137;-2.4588;-5.5306;3.9409;0.0997;-0.0268;-0.0532
0000210148;-2.6887;-5.5522;3.9241;0.1025;-0.0290;-0.0513
0000210156;-2.7366;-5.5378;4.0055;0.1098;-0.0353;-0.0553
0000210164;-2.7869;-5.6767;3.9265;0.1062;-0.0254;-0.0524
0000210176;-2.4469;-5.5210;3.9385;0.1096;-0.0321;-0.0573
0000210184;-2.6145;-5.6407;4.0486;0.1063;-0.0304;-0.0652
0000210252;-2.7438;-5.4420;3.8523;0.1007;-0.0273;-0.0632
0000210260;-2.6959;-5.5234;3.8140;0.0931;-0.0304;-0.0621
0000210272;-2.5019;-5.2960;3.8810;0.0798;-0.0390;-0.0588
0000210280;-2.5187;-5.2936;3.8882;0.0633;-0.0442;-0.0637
0000210291;-2.3990;-5.2313;3.9169;0.0382;-0.0422;-0.0558
0000210299;-2.2601;-5.0063;3.9744;0.0192;-0.0433;-0.0521
0000210311;-2.4205;-5.2792;4.0127;-0.0108;-0.0364;-0.0322
0000210319;-2.4134;-5.0901;3.9552;-0.0336;-0.0302;-0.0116
0000210327;-2.4014;-5.2625;4.0031;-0.0525;-0.0246;0.0064
0000210338;-2.3798;-5.2337;3.9145;-0.0802;-0.0109;0.0265
0000210346;-2.5235;-5.3630;3.9385;-0.0974;-0.0021;0.0425
0000210358;-2.5450;-5.1739;3.8642;-0.1218;0.0095;0.0624
0000210366;-2.5546;-5.3750;3.8738;-0.1400;0.0250;0.0763
0000210377;-2.5594;-5.3678;3.8068;-0.1559;0.0341;0.0877
0000210385;-2.4900;-5.1930;3.8020;-0.1673;0.0414;0.0946
0000210397;-2.6145;-5.2241;3.8499;-0.1844;0.0450;0.1034
0000210405;-2.6647;-5.3774;3.8954;-0.1968;0.0514;0.1011
0000210413;-2.7270;-5.3893;3.9121;-0.2021;0.0486;0.0947
0000210424;-2.6408;-5.2601;3.9456;-0.2149;0.0504;0.1042
0000210432;-2.7174;-5.3415;3.9600;-0.2288;0.0522;0.1017
0000210444;-2.9449;-5.6168;3.9935;-0.2342;0.0477;0.1031
0000210452;-2.8635;-5.5905;3.9385;-0.2322;0.0398;0.1023
0000210516;-2.6432;-5.7293;3.9624;-0.1809;0.0028;0.0574
0000210524;-2.5809;-5.6240;3.9409;-0.1715;-0.0025;0.0536
0000210536;-2.8467;-5.6790;4.0103;-0.1612;-0.0075;0.0560
0000210544;-2.6552;-5.6479;3.9696;-0.1573;-0.0092;0.0461
0000210555;-2.7294;-5.7054;4.0318;-0.1471;-0.0180;0.0497
0000210563;-2.6360;-5.6790;4.0510;-0.1434;-0.0233;0.0400
0000210571;-2.6288;-5.6623;3.9385;-0.1354;-0.0213;0.0360
0000210583;-2.6193;-5.5450;4.0007;-0.1314;-0.0269;0.0318
0000210591;-2.5450;-5.6575;4.0294;-0.1307;-0.0203;0.0329
0000210602;-2.5187;-5.5905;4.0606;-0.1215;-0.0257;0.0272
0000210610;-2.5115;-5.6743;3.9935;-0.1264;-0.0281;0.0264
0000210622;-2.4924;-5.6144;3.9169;-0.1202;-0.0205;0.0280
0000210630;-2.5714;-5.5881;3.9528;-0.1175;-0.0147;0.0277
0000210641;-2.5690;-5.4899;4.0725;-0.1081;-0.0164;0.0199
0000210649;-2.7054;-5.7174;4.0510;-0.1081;-0.0129;0.0260
0000210657;-2.4565;-5.4468;3.9792;-0.1025;-0.0175;0.0216
0000210669;-2.5690;-5.5210;4.0199;-0.0974;-0.0237;0.0225
0000210677;-2.4588;-5.3486;3.9433;-0.0954;-0.0248;0.0207
0000210688;-2.5977;-5.6264;4.0055;-0.0873;-0.0232;0.0196
0000210696;-2.5187;-5.6743;3.9002;-0.0807;-0.0265;0.0108
0000210708;-2.4900;-5.5833;3.9576;-0.0747;-0.0207;0.0141
0000210716;-2.4876;-5.4708;3.9768;-0.0715;-0.0245;0.0121
0000210780;-2.5881;-5.6024;3.9097;-0.0338;-0.0317;0.0096
0000210788;-2.6432;-5.7676;3.9863;-0.0232;-0.0353;0.0051
0000210800;-2.7054;-5.6838;3.9887;-0.0165;-0.0360;0.0029
0000210808;-2.4684;-5.6383;4.0199;-0.0136;-0.0348;0.0023
0000210816;-2.4014;-5.4516;3.9672;-0.0105;-0.0321;0.0045
0000210827;-2.5043;-5.4181;3.9696;-0.0064;-0.0337;0.0019
0000210835;-2.9066;-5.7341;3.9911;0.0044;-0.0428;-0.0047
0000210847;-2.7821;-5.7604;4.0079;0.0145;-0.0425;-0.0132
0000210855;-2.7509;-5.6647;4.0007;0.0187;-0.0373;-0.0095
0000210866;-2.6217;-5.6599;3.9672;0.0314;-0.0464;-0.0140
0000210874;-2.7007;-5.6934;3.9768;0.0358;-0.0444;-0.0212
0000210886;-2.5977;-5.7341;3.9528;0.0490;-0.0540;-0.0241
0000210894;-2.6288;-5.5952;3.9576;0.0596;-0.0592;-0.0370
0000210905;-2.5019;-5.5905;3.9409;0.0624;-0.0521;-0.0370
0000210913;-2.5019;-5.5952;3.9433;0.0734;-0.0532;-0.0402
0000210921;-2.4541;-5.5186;3.9672;0.0767;-0.0586;-0.0406
0000210933;-2.7102;-5.6527;3.9935;0.0774;-0.0584;-0.0424
0000210941;-2.5474;-5.5713;3.9528;0.0865;-0.0606;-0.0513
0000210953;-2.6288;-5.6551;3.9887;0.0879;-0.0609;-0.0464
0000210961;-2.6145;-5.6168;4.0366;0.0857;-0.0593;-0.0501
0000211024;-2.4014;-5.4372;3.9672;0.0841;-0.0685;-0.0556
0000211032;-2.6719;-5.6790;4.0055;0.0819;-0.0697;-0.0552
0000211044;-2.5690;-5.4229;4.0438;0.0739;-0.0594;-0.0494
0000211052;-2.6336;-5.4899;3.9840;0.0809;-0.0674;-0.0502
0000211063;-2.7892;-5.5713;3.9648;0.0659;-0.0703;-0.0460
0000211071;-2.6480;-5.5641;3.9528;0.0593;-0.0630;-0.0398
0000211079;-2.6001;-5.4755;3.9624;0.0529;-0.0654;-0.0381
0000211091;-2.7461;-5.6360;3.9265;0.0626;-0.0681;-0.0406
0000211099;-2.5929;-5.5976;3.9935;0.0518;-0.0641;-0.0378
0000211110;-2.6264;-5.5569;3.9241;0.0530;-0.0621;-0.0404
0000211118;-2.4541;-5.4181;3.8858;0.0588;-0.0666;-0.0425
0000211130;-2.4756;-5.4995;3.9385;0.0508;-0.0584;-0.0428
0000211138;-2.6719;-5.5641;3.9672;0.0465;-0.0529;-0.0378
0000211149;-2.6432;-5.5378;3.9863;0.0396;-0.0497;-0.0314
0000211157;-2.7629;-5.6216;3.9887;0.0310;-0.0404;-0.0218
0000211169;-2.5905;-5.5067;3.9696;0.0294;-0.0392;-0.0226
0000211177;-2.3894;-5.5210;3.9863;0.0288;-0.0381;-0.0262
0000211185;-2.4756;-5.4636;3.8451;0.0222;-0.0361;-0.0234
0000211196;-2.5115;-5.5689;3.9816;0.0193;-0.0342;-0.0191
0000211204;-2.5187;-5.5378;3.9816;0.0113;-0.0312;-0.0204
0000211216;-2.4325;-5.4851;3.9528;0.0061;-0.0285;-0.0168
0000211224;-2.5235;-5.5545;3.9241;-0.0007;-0.0203;-0.0148
0000211287;-2.5187;-5.4444;4.0510;-0.0385;-0.0160;0.0035
0000211295;-2.6695;-5.5976;3.9768;-0.0372;-0.0221;-0.0008
0000211307;-2.6073;-5.5234;3.9672;-0.0470;-0.0224;0.0017
0000211315;-2.5809;-5.5067;4.0342;-0.0458;-0.0207;0.0044
0000211326;-2.5714;-5.5498;3.9433;-0.0572;-0.0160;0.0084
0000211334;-2.4253;-5.3079;3.9696;-0.0570;-0.0145;0.0099
0000211342;-2.7007;-5.5641;3.9935;-0.0600;-0.0153;0.0079
0000211354;-2.6576;-5.3798;4.0270;-0.0703;-0.0192;0.0132
0000211362;-2.6312;-5.3534;3.9145;-0.0743;-0.0257;0.0109
0000211373;-2.6695;-5.5115;3.9911;-0.0875;-0.0260;0.0165
0000211381;-2.5642;-5.4899;3.9935;-0.0927;-0.0217;0.0211
0000211393;-2.5618;-5.4588;3.9456;-0.0982;-0.0168;0.0288
0000211401;-2.6001;-5.5306;4.0151;-0.0993;-0.0105;0.0349
0000211412;-2.5426;-5.4803;3.9145;-0.1047;-0.0161;0.0357
0000211420;-2.4014;-5.3558;4.0534;-0.1098;-0.0065;0.0416
0000211432;-2.6025;-5.6599;4.0486;-0.1003;-0.0125;0.0425
0000211440;-2.6384;-5.6240;3.9576;-0.1047;-0.0076;0.0460
0000211448;-2.4995;-5.4995;3.9600;-0.1061;-0.0067;0.0514
0000211459;-2.5019;-5.4779;3.9576;-0.1002;-0.0084;0.0488
0000211467;-2.6073;-5.4971;4.0175;-0.0926;-0.0139;0.0410
0000211479;-2.5594;-5.4851;3.9073;-0.0911;-0.0115;0.0436
0000211487;-2.8611;-5.7988;3.9217;-0.0841;-0.0084;0.0380
0000211550;-2.4804;-5.5043;3.9672;-0.0156;-0.0083;0.0037
0000211558;-2.5857;-5.6743;3.9361;-0.0135;0.0021;0.0039
0000211570;-2.7557;-5.6288;3.9672;-0.0045;-0.0049;0.0020
0000211578;-2.5450;-5.5976;3.9624;0.0004;-0.0147;-0.0075
0000211586;-3.0047;-5.7820;3.9313;0.0127;-0.0289;-0.0113
0000211597;-2.7701;-5.6599;3.9241;0.0159;-0.0354;-0.0147
0000211605;-2.7461;-5.6527;3.9576;0.0200;-0.0385;-0.0136
0000211617;-2.6073;-5.4444;3.9720;0.0230;-0.0430;-0.0181
0000211625;-2.6336;-5.6814;3.9863;0.0297;-0.0454;-0.0240
0000211636;-2.5283;-5.6120;3.9289;0.0258;-0.0480;-0.0261
0000211644;-2.6073;-5.6264;3.9337;0.0268;-0.0456;-0.0262
0000211656;-2.4062;-5.4899;3.9217;0.0272;-0.0382;-0.0196
0000211664;-2.4924;-5.5091;3.8642;0.0305;-0.0453;-0.0225
0000211675;-2.5043;-5.4420;3.8906;0.0256;-0.0478;-0.0226
0000211683;-2.5905;-5.4324;3.8571;0.0266;-0.0530;-0.0216
0000211691;-2.5139;-5.3582;3.9002;0.0221;-0.0532;-0.0185
0000211703;-2.6264;-5.4037;3.9600;0.0125;-0.0557;-0.0131
0000211711;-2.6671;-5.4923;3.8666;-0.0031;-0.0524;-0.0044
0000211722;-2.5833;-5.3271;3.9768;-0.0069;-0.0593;0.0005
0000211730;-2.6121;-5.4540;3.9121;-0.0230;-0.0589;0.0099
0000211742;-2.5738;-5.4492;3.9193;-0.0282;-0.0617;0.0109
0000211750;-2.5953;-5.5450;3.8882;-0.0276;-0.0683;0.0065
0000211813;-2.6791;-5.6312;3.8499;-0.0513;-0.0853;0.0304
0000211821;-2.6049;-5.5306;3.8930;-0.0597;-0.0749;0.0408
0000211833;-2.3870;-5.4516;3.8762;-0.0642;-0.0649;0.0393
0000211841;-2.5331;-5.5043;3.8690;-0.0662;-0.0663;0.0374
0000211849;-2.5139;-5.4899;3.8690;-0.0734;-0.0566;0.0425
0000211860;-2.4038;-5.4300;3.8906;-0.0725;-0.0490;0.0388
0000211868;-2.4181;-5.4708;3.8451;-0.0843;-0.0350;0.0441
0000211880;-2.4636;-5.3271;3.8283;-0.0883;-0.0209;0.0445
0000211888;-2.6791;-5.4588;3.7445;-0.0973;-0.0147;0.0457
0000211899;-2.7078;-5.1978;3.7038;-0.1114;-0.0081;0.0525
0000211907;-2.8850;-5.3870;3.7469;-0.1151;-0.0175;0.0540
0000211919;-3.1005;-5.2122;3.7517;-0.1364;-0.0374;0.0538
0000211927;-3.0478;-5.2313;3.7541;-0.1551;-0.0416;0.0618
0000211938;-3.1771;-5.3486;3.8571;-0.1749;-0.0702;0.0610
0000211946;-2.8850;-5.1811;3.9409;-0.2020;-0.0862;0.0632
0000211954;-2.9305;-5.4468;3.9696;-0.2069;-0.1049;0.0682
0000211966;-2.7988;-5.6934;3.9911;-0.2280;-0.1226;0.0739
0000211974;-2.5139;-5.6336;3.9456;-0.2357;-0.1254;0.0829
0000211985;-2.3774;-5.4372;3.9600;-0.2434;-0.1223;0.1025
0000211993;-2.3248;-5.4899;3.9720;-0.2373;-0.1283;0.1070
0000212005;-2.4804;-5.7245;3.9504;-0.2415;-0.1379;0.1255
0000212013;-2.3343;-5.5952;3.9911;-0.2382;-0.1456;0.1352
0000212076;-2.3272;-5.5593;3.8834;-0.1813;-0.1085;0.1962
0000212084;-2.6336;-5.4755;3.9672;-0.1752;-0.0925;0.1990
0000212096;-2.7701;-5.3079;3.8547;-0.1616;-0.1007;0.1912
0000212104;-3.1101;-5.4660;3.8235;-0.1403;-0.1240;0.1767
0000212112;-2.9377;-5.1092;3.8116;-0.1295;-0.1387;0.1624
0000212123;-3.2920;-5.3367;3.6703;-0.1120;-0.1660;0.1164
0000212131;-3.3064;-5.4803;3.7637;-0.0910;-0.1917;0.0858
0000212143;-3.3447;-5.7700;3.6823;-0.0713;-0.2285;0.0533
0000212151;-3.5506;-5.9520;3.7445;-0.0544;-0.2509;0.0482
0000212162;-3.0885;-5.5593;3.7421;-0.0316;-0.2847;0.0381
0000212170;-2.9808;-5.5306;3.8810;-0.0266;-0.2872;0.0402
0000212182;-2.7797;-5.4348;4.0055;-0.0304;-0.2946;0.0365
0000212190;-2.3870;-5.1978;3.9935;-0.0193;-0.2992;0.0392
0000212201;-2.2170;-4.9512;4.0151;-0.0266;-0.2733;0.0472
0000212209;-2.2673;-5.0661;4.0869;-0.0200;-0.2637;0.0426
0000212217;-2.3056;-5.1451;4.1204;-0.0192;-0.2451;0.0454
0000212229;-2.2984;-5.0829;4.1084;-0.0208;-0.2180;0.0510
0000212237;-2.3870;-5.0996;4.0151;-0.0113;-0.2160;0.0624
0000212248;-2.4660;-5.2457;4.0606;-0.0007;-0.2105;0.0562
0000212256;-2.4349;-5.2888;4.1276;-0.0060;-0.2078;0.0606
0000212268;-2.1883;-5.1763;4.1970;0.0149;-0.1945;0.0441
0000212276;-2.2960;-5.2912;4.2258;0.0225;-0.1876;0.0284
0000212342;-2.5450;-5.5186;3.7781;0.1717;-0.1847;-0.0825
0000212350;-3.0095;-5.5306;3.5985;0.1961;-0.2046;-0.0874
0000212358;-3.1244;-5.6072;3.6799;0.2153;-0.2181;-0.0969
0000212369;-3.6009;-5.5498;3.6751;0.2514;-0.2746;-0.1203
0000212377;-3.3902;-5.4372;3.5889;0.2707;-0.3047;-0.1354
0000212389;-3.3279;-5.5857;3.6559;0.3031;-0.3579;-0.1704
0000212397;-3.0694;-5.6503;3.5506;0.3288;-0.3882;-0.1958
0000212408;-2.7797;-5.7102;3.4333;0.3710;-0.4266;-0.2230
0000212416;-2.3966;-5.6120;3.3926;0.3965;-0.4383;-0.2406
0000212428;-2.2577;-5.6072;3.6512;0.4162;-0.4314;-0.2681
0000212436;-1.8699;-5.2601;4.1515;0.4057;-0.4126;-0.2826
0000212447;-2.0949;-4.7860;4.9201;0.3503;-0.3729;-0.2990
0000212455;-2.2889;-4.3167;5.1811;0.2795;-0.3260;-0.3055
0000212463;-2.6264;-3.8403;5.2816;0.2074;-0.2771;-0.3324
0000212475;-2.5809;-3.2681;5.0254;0.0938;-0.2138;-0.3728
0000212483;-2.5833;-3.5817;5.0278;0.0199;-0.2481;-0.4202
0000212494;-2.2817;-4.6088;5.0757;-0.0813;-0.3717;-0.4431
0000212502;-2.1524;-5.0973;5.2241;-0.1340;-0.4727;-0.4307
0000212514;-1.6209;-5.7245;5.6599;-0.1849;-0.5649;-0.4154
0000212522;-1.0032;-5.6144;5.7341;-0.2041;-0.5588;-0.4086
0000212534;-0.0048;-5.6623;5.4492;-0.1970;-0.4620;-0.4207
0000212542;0.2251;-5.7126;5.1475;-0.1661;-0.4048;-0.4587
0000212610;-1.9010;-7.5537;6.0573;-0.1227;-0.3018;-0.6667
0000212618;-2.3990;-7.4699;6.5864;-0.0854;-0.3761;-0.5832
0000212626;-2.3272;-7.0366;6.8690;-0.0297;-0.4566;-0.5047
0000212637;-2.2745;-6.9408;7.0126;0.0376;-0.4786;-0.3652
0000212645;-1.5299;-6.5146;7.3239;0.1202;-0.4735;-0.2907
0000212657;-0.7422;-6.0382;7.1084;0.2165;-0.3833;-0.2069
0000212665;-0.4022;-6.1555;6.8977;0.2679;-0.3084;-0.1915
0000212676;-0.1365;-6.0549;6.4715;0.3287;-0.1932;-0.2242
0000212684;0.0958;-5.5641;6.2968;0.3439;-0.1073;-0.2663
0000212696;0.1317;-5.6120;5.7126;0.3103;-0.0413;-0.3344
0000212704;-0.1772;-5.5258;4.9632;0.2417;-0.0537;-0.3528
0000212715;-0.1676;-5.0973;4.5777;0.1208;-0.0959;-0.3168
0000212723;-0.6608;-5.0757;4.9177;0.0336;-0.1872;-0.2533
0000212731;-0.6847;-4.6831;5.0685;-0.0505;-0.2717;-0.1557
0000212743;-1.1684;-4.9967;5.8059;-0.1667;-0.1804;0.1792
0000212751;-0.9433;-5.1260;6.1316;-0.1917;-0.1455;0.3752
0000212762;-0.8404;-5.0087;5.8610;-0.2486;-0.0472;0.5861
0000212770;-1.0343;-5.1212;6.3327;-0.2723;0.0460;0.6955
0000212782;-1.3934;-4.7453;6.1770;-0.2750;0.0807;0.7488
0000212790;-1.8076;-4.5729;6.2393;-0.2731;0.0887;0.7063
0000212802;-2.2290;-4.5777;5.6551;-0.2860;-0.0153;0.5550
0000212810;-2.6001;-4.8722;5.4277;-0.3130;-0.0915;0.4203
0000212878;-2.3583;-4.8004;5.8275;-0.5064;-0.8757;0.5868
0000212886;-1.8340;-4.2641;5.9089;-0.5269;-0.9578;0.6046
0000212894;-1.8555;-4.0175;5.9065;-0.5231;-1.0597;0.5946
0000212905;-1.5299;-3.9983;6.3877;-0.5255;-1.1249;0.5087
0000212913;-1.8890;-4.6232;6.4236;-0.5236;-1.1255;0.4431
0000212925;-1.8603;-5.7652;6.0669;-0.5149;-1.1030;0.3491
0000212933;-1.8364;-6.5984;5.7006;-0.5155;-1.1135;0.3171
0000212944;-1.2953;-6.8618;5.2409;-0.5265;-1.1594;0.3351
0000212952;-0.4310;-6.6200;5.1475;-0.5329;-1.1815;0.3852
0000212964;0.1844;-5.9568;5.1164;-0.5788;-1.0994;0.4283
0000212972;0.6225;-5.3486;4.9273;-0.6117;-1.0304;0.4529
0000212983;0.7829;-4.3742;4.9584;-0.6892;-0.9633;0.4692
0000212991;0.5195;-4.0869;4.9823;-0.7393;-0.9233;0.4866
0000212999;0.3256;-3.9193;5.0350;-0.7967;-0.9056;0.4898
0000213011;-0.1532;-4.0749;5.4540;-0.8512;-0.9109;0.4935
0000213019;-0.5291;-4.7070;6.4667;-0.8559;-0.9775;0.4811
0000213030;-1.1636;-6.2776;8.1163;-0.7374;-1.1149;0.4752
0000213038;-1.5778;-7.7859;7.6926;-0.6266;-1.1374;0.4754
0000213050;-1.8148;-9.5648;5.9711;-0.5092;-1.1387;0.4297
0000213058;-1.7166;-9.4882;5.4324;-0.4579;-1.1692;0.3702
0000213070;-1.3024;-8.3701;5.6671;-0.3785;-1.2838;0.3206
0000213078;-0.8763;-6.4548;5.9999;-0.3062;-1.3202;0.3159
0000213086;-0.5722;-5.0637;6.2130;-0.2683;-1.3536;0.3000
0000213154;1.7119;-7.6734;7.2329;-0.0230;-0.9481;0.2898
0000213162;1.1660;-7.4388;7.4268;-0.0057;-0.9098;0.2398
0000213173;0.8021;-6.4380;7.9200;-0.0270;-0.8851;0.1525
0000213181;0.7733;-5.6934;8.0924;-0.0505;-0.8986;0.1116
0000213193;0.9409;-4.9297;8.1570;-0.1034;-0.9353;0.0945
0000213201;1.0343;-4.9775;8.1906;-0.1226;-0.9385;0.1238
0000213212;1.9010;-4.9368;8.0613;-0.1533;-0.9308;0.1495
0000213220;1.8579;-5.4109;7.7596;-0.1547;-0.9030;0.1519
0000213228;2.2673;-5.8538;7.7620;-0.1503;-0.9016;0.1314
0000213240;2.5019;-6.8546;7.7405;-0.1186;-0.8990;0.1271
0000213248;2.5450;-7.0605;7.6998;-0.0965;-0.8640;0.1187
0000213259;2.7629;-7.0270;8.0996;-0.0870;-0.8190;0.1061
0000213267;2.8323;-6.6295;8.1187;-0.0851;-0.7993;0.0955
0000213279;2.8611;-5.8969;7.9392;-0.1311;-0.7614;0.0738
0000213287;2.9209;-5.0973;7.8051;-0.1881;-0.7081;0.0620
0000213298;2.9113;-4.8770;7.9200;-0.2570;-0.6924;0.0634
0000213306;2.8036;-5.0709;7.7165;-0.2968;-0.6558;0.0749
0000213314;2.6528;-5.3463;7.6543;-0.3276;-0.6210;0.0779
0000213326;2.9568;-6.0717;7.6303;-0.3488;-0.6114;0.0514
0000213334;2.9329;-6.3590;7.5561;-0.3471;-0.5784;0.0314
0000213346;3.5051;-6.8809;7.5489;-0.3361;-0.5458;0.0169
0000213354;3.7613;-6.9983;7.3765;-0.3391;-0.5083;0.0045
0000213422;3.2370;-6.5673;8.1570;-0.3126;-0.0051;0.0654
0000213430;2.9880;-6.7540;8.0852;-0.3130;0.0494;0.0922
0000213441;3.2154;-7.0390;8.1331;-0.2589;0.0815;0.1069
0000213449;3.0718;-7.2281;8.2073;-0.2158;0.0943;0.1168
0000213457;3.4333;-7.2856;8.0876;-0.1777;0.1124;0.1383
0000213469;3.0215;-7.4723;8.2983;-0.1256;0.1743;0.1424
0000213477;2.6624;-7.0653;8.3462;-0.0815;0.1595;0.1383
0000213488;2.0830;-6.7924;8.4132;-0.0691;0.2028;0.1520
0000213496;2.1117;-6.5434;8.2456;-0.0747;0.2054;0.1545
0000213508;2.2817;-6.1124;8.3462;-0.0859;0.1829;0.1447
0000213516;2.0327;-6.3805;8.3893;-0.0929;0.1968;0.1506
0000213527;2.2266;-6.3446;8.3965;-0.0889;0.1956;0.1428
0000213535;2.1356;-6.5170;8.2049;-0.0645;0.2101;0.1338
0000213543;1.9369;-6.6679;8.2097;-0.0444;0.2154;0.1406
0000213555;2.4038;-6.8977;8.1475;0.0048;0.2230;0.1483
0000213563;2.4181;-7.0246;8.1331;0.0269;0.2501;0.1484
0000213575;2.3511;-6.7516;8.1666;0.0697;0.2629;0.1264
0000213583;2.2218;-6.5194;8.2528;0.0789;0.2787;0.1278
0000213595;1.7023;-6.2106;8.1834;0.0859;0.2955;0.1224
0000213603;1.5754;-6.0286;8.1714;0.0705;0.3070;0.1096
0000213611;1.5371;-5.9831;8.0062;0.0624;0.3148;0.0942
0000213623;1.5443;-5.9927;7.9464;0.0598;0.3204;0.0765
0000213631;1.3767;-6.3351;7.7428;0.0767;0.3485;0.0616
0000213698;2.2745;-5.3486;7.9009;0.0620;0.5648;0.0107
0000213706;1.5658;-5.5043;7.9033;0.0169;0.5657;0.0039
0000213718;1.1971;-6.1339;7.7333;-0.0300;0.5657;-0.0213
0000213726;1.2689;-6.5577;7.6207;-0.0229;0.5584;-0.0448
0000213734;1.0774;-6.6080;7.9200;-0.0125;0.6150;-0.0670
0000213746;1.4581;-7.0653;7.5082;0.0185;0.6001;-0.0855
0000213754;1.6257;-7.0773;7.5346;0.0385;0.6243;-0.0867
0000213766;1.6951;-7.0437;7.4531;0.0606;0.6815;-0.0703
0000213774;1.9632;-6.5673;7.4077;0.0584;0.7076;-0.0450
0000213786;1.6352;-6.3446;7.5010;0.0771;0.7448;-0.0051
0000213794;1.4150;-6.2130;7.5800;0.0902;0.7869;0.0133
0000213806;1.0989;-6.4763;7.4196;0.1123;0.8151;0.0077
0000213814;0.9768;-6.6463;7.3215;0.1254;0.8294;0.0129
0000213822;0.7781;-6.6726;7.4603;0.1527;0.8543;0.0061
0000213834;0.9074;-6.7086;7.2592;0.2085;0.8511;0.0232
0000213842;1.0080;-6.5266;7.1922;0.2281;0.8811;0.0236
0000213854;1.1229;-6.2345;6.8953;0.2386;0.9046;0.0278
0000213862;0.7901;-6.3279;6.9097;0.2458;0.9329;0.0554
0000213874;0.7925;-6.3015;6.9025;0.2618;0.9549;0.0855
0000213882;0.7853;-6.2896;6.8331;0.2719;0.9916;0.1049
0000213890;0.3879;-6.4332;6.9576;0.2836;1.0167;0.1227
0000213902;0.6440;-6.2153;6.6679;0.3106;1.0485;0.1519
0000213910;0.6369;-6.2537;6.6080;0.3307;1.0854;0.1763
0000213977;-0.1987;-5.4899;5.9448;0.3425;1.2942;0.2787
0000213985;-0.3376;-5.2409;5.9616;0.3184;1.3368;0.2683
0000213997;-0.7638;-5.3702;5.7700;0.2851;1.3608;0.2230
0000214005;-0.8068;-5.4899;5.5426;0.2741;1.3634;0.1948
0000214013;-1.1157;-5.9472;5.3917;0.2705;1.3768;0.1889
0000214025;-1.2210;-6.1220;5.2170;0.2942;1.3776;0.1556
0000214033;-1.0870;-6.0956;5.1499;0.3219;1.3879;0.1536
0000214045;-1.1732;-5.9831;4.9823;0.3505;1.4177;0.1471
0000214053;-1.5347;-5.9328;4.9344;0.3679;1.4376;0.1371
0000214065;-1.6640;-5.5545;5.0063;0.3687;1.4770;0.1286
0000214073;-2.0087;-5.3965;5.0254;0.3545;1.4918;0.0961
0000214081;-2.1237;-5.2026;4.9081;0.3376;1.5019;0.0769
0000214093;-2.1213;-4.8866;4.8626;0.3175;1.5115;0.0441
0000214101;-2.3463;-4.7908;4.7764;0.3100;1.5151;0.0224
0000214113;-2.2697;-4.6567;4.6591;0.3070;1.5160;0.0024
0000214121;-2.4086;-4.7908;4.4676;0.3066;1.5083;-0.0096
0000214133;-2.5905;-4.7692;4.5107;0.2908;1.4947;-0.0059
0000214141;-2.5235;-4.4772;4.6112;0.2791;1.4934;0.0238
0000214153;-2.4828;-4.0917;4.1611;0.2828;1.4859;0.0598
0000214161;-2.7749;-4.1108;4.1037;0.2738;1.4755;0.0858
0000214169;-2.7964;-3.9528;4.0797;0.2774;1.4599;0.1046
0000214181;-2.8563;-4.1683;3.8235;0.2836;1.4478;0.1386
0000214189;-2.8635;-4.6639;3.7661;0.2962;1.4301;0.1716
0000214256;-4.1132;-2.8970;3.1891;0.0649;1.4241;0.2601
0000214264;-4.0582;-3.1460;3.1196;0.0081;1.4193;0.2427
0000214276;-4.3120;-3.5865;3.0454;-0.0561;1.4241;0.2192
0000214284;-4.3886;-3.6392;3.0287;-0.0905;1.4242;0.1933
0000214296;-4.4412;-3.4692;3.1819;-0.1386;1.4276;0.1623
0000214304;-4.1444;-3.2801;3.0430;-0.1608;1.4112;0.1443
0000214312;-4.6567;-3.4716;2.9736;-0.1857;1.3999;0.1328
0000214324;-4.8363;-3.4740;3.1316;-0.2233;1.3588;0.1302
0000214332;-4.8650;-3.4668;3.0765;-0.2411;1.3165;0.1282
0000214344;-4.9177;-3.6488;3.2322;-0.2726;1.2371;0.1777
0000214352;-5.1308;-3.7685;3.2394;-0.2862;1.1814;0.2402
0000214364;-4.9847;-3.7996;3.3758;-0.2926;1.0837;0.3299
0000214372;-4.8435;-3.6488;3.2394;-0.2839;1.0224;0.4130
0000214384;-4.4460;-3.5506;3.0239;-0.2657;0.9250;0.5129
0000214392;-4.2234;-3.2130;2.8922;-0.2674;0.8809;0.5728
0000214400;-4.2617;-3.4046;2.5474;-0.2530;0.8410;0.6258
0000214412;-4.0606;-3.7900;2.0758;-0.2080;0.7925;0.6789
0000214420;-4.1037;-4.1515;1.8124;-0.1735;0.7610;0.7076
0000214432;-4.1515;-4.5945;1.7454;-0.1059;0.7083;0.7536
0000214440;-4.2066;-4.9105;2.2003;-0.0694;0.6765;0.7994
0000214452;-4.0797;-4.5921;2.1763;-0.0380;0.6463;0.8911
0000214460;-4.0247;-3.9648;2.1093;-0.0476;0.6355;0.9470
0000214527;-4.3814;-2.4756;1.8244;-0.6241;0.5697;0.9915
0000214535;-4.3263;-2.9592;1.4772;-0.6394;0.5441;1.0031
0000214543;-4.0917;-3.1747;1.2354;-0.6384;0.5055;1.0072
0000214555;-3.7158;-3.5698;1.0965;-0.6331;0.4579;1.0449
0000214563;-3.5530;-3.6583;1.0104;-0.6126;0.4085;1.0669
0000214575;-2.7390;-3.5721;0.6967;-0.5813;0.3631;1.0640
0000214583;-2.5546;-3.5482;0.6680;-0.5609;0.3806;1.0732
0000214596;-2.3176;-3.4596;0.4932;-0.5456;0.3641;1.1334
0000214605;-2.2386;-3.3878;0.7063;-0.5421;0.3793;1.1574
0000214618;-2.2553;-2.8539;0.2729;-0.5445;0.3882;1.1715
0000214627;-2.2051;-2.4900;-0.1939;-0.5339;0.3774;1.1595
0000214636;-2.3296;-2.5738;-0.4932;-0.5293;0.3709;1.1463
0000214649;-2.0255;-2.9161;-0.6177;-0.5127;0.3313;1.0918
0000214658;-1.2186;-3.0598;-0.5267;-0.5048;0.3208;1.0413
0000214671;-0.4956;-3.5123;-0.4764;-0.4772;0.4161;1.0008
0000214680;-0.7063;-3.1723;0.1867;-0.4181;0.5605;0.9498
0000214693;-3.2872;-1.8938;1.4222;-0.2806;0.8182;0.7280
0000214702;-5.1882;-1.1468;1.4820;-0.2174;0.8493;0.5199
0000214715;-7.8913;-0.2897;1.9656;-0.0907;0.8547;0.1760
0000214724;-8.6191;0.4046;1.2617;0.1238;1.0268;0.0193
0000214733;-8.7771;-0.4812;1.1037;0.2943;1.0415;-0.0586
0000214746;-7.2688;-1.6807;0.6943;0.2494;0.8515;-0.0678
0000214755;-6.7588;-1.8914;-0.0335;0.0549;0.7446;-0.1021
0000214824;-0.2131;-1.6831;-1.5586;-0.4122;0.3413;-0.1131
0000214833;-0.0072;-2.3296;-2.0087;-0.3140;0.3653;-0.0937
0000214846;-0.3496;-2.9856;-1.4533;-0.1713;0.4497;0.0658
0000214855;-1.1301;-2.6528;-1.4413;-0.1143;0.4465;0.1502
0000214868;-2.2745;-1.7717;-0.8452;-0.0973;0.4269;0.2401
0000214877;-2.8874;-1.3910;-0.5914;-0.1115;0.4429;0.2733
0000214890;-2.9209;-0.6369;-0.8811;-0.1331;0.4369;0.2842
0000214899;-2.9832;-0.6345;-1.0654;-0.1568;0.4195;0.2802
0000214908;-2.8132;-0.7254;-1.3024;-0.1940;0.4002;0.3074
0000214921;-2.9090;-0.9744;-1.5012;-0.2405;0.3814;0.3551
0000214930;-2.8874;-1.1085;-1.4964;-0.2669;0.3609;0.3954
0000214943;-3.2154;-1.6759;-1.3838;-0.2665;0.3115;0.4262
0000214952;-3.1771;-1.7885;-1.4413;-0.2587;0.2791;0.4314
0000214965;-2.6456;-1.5538;-1.3862;-0.2433;0.2376;0.4294
0000214974;-2.3727;-1.2402;-1.4198;-0.2349;0.2192;0.4147
0000214987;-2.2841;-1.0726;-1.1708;-0.2566;0.1958;0.4313
0000214996;-1.8914;-0.8404;-0.8332;-0.2570;0.2048;0.4447
0000215009;-1.5897;-0.8715;-0.9409;-0.2900;0.2320;0.4511
0000215018;-1.6472;-0.8356;-0.9122;-0.2894;0.2587;0.4485
0000215027;-1.9130;-1.1588;-0.7015;-0.2866;0.2787;0.4529
0000215040;-1.8531;-0.9936;-0.3543;-0.2852;0.3328;0.4666
0000215049;-2.1141;-1.1301;-0.3519;-0.2785;0.3507;0.4719
0000215119;-2.3152;-1.4892;-0.9816;-0.3523;0.2735;0.6547
0000215128;-2.1644;-1.3048;-0.9457;-0.3592;0.2661;0.6905
0000215141;-1.7262;-1.2929;-0.6416;-0.3155;0.3003;0.7182
0000215150;-1.0798;-1.1923;-0.5339;-0.3031;0.3463;0.7229
0000215162;-0.6871;-1.4341;-0.4717;-0.2723;0.4250;0.7300
0000215171;-0.3352;-1.3934;-0.5411;-0.2340;0.5019;0.7340
0000215184;-0.4022;-1.5347;-1.2498;-0.2613;0.5581;0.7345
0000215193;-0.3687;-1.0918;-0.9697;-0.2621;0.5766;0.7268
0000215202;-0.6057;-0.7973;-0.3807;-0.2578;0.6444;0.7097
0000215214;-1.0247;-0.6656;-0.6440;-0.2972;0.7541;0.6448
0000215223;-1.4030;-0.6560;-1.3815;-0.3372;0.8695;0.5848
0000215236;-2.2122;-1.0056;-2.2266;-0.4000;0.8211;0.5672
0000215245;-2.7102;-1.3647;-2.3750;-0.3515;0.7533;0.6050
0000215257;-3.6919;-1.7119;-2.1931;-0.2996;0.6981;0.6727
0000215266;-4.1061;-1.7166;-2.4732;-0.2795;0.6468;0.6535
0000215279;-4.2665;-0.9697;-2.5714;-0.2642;0.4807;0.6061
0000215288;-3.5698;-0.4310;-2.0446;-0.2349;0.3604;0.5308
0000215355;0.9290;1.6616;-1.0247;-0.2822;0.2005;0.0746
0000215364;1.2163;1.9154;-0.8356;-0.3231;0.2273;0.0306
0000215373;1.0319;2.1189;-0.5674;-0.3842;0.2406;-0.0075
0000215386;0.9242;2.4972;-0.7805;-0.4449;0.2418;-0.0192
0000215395;0.7829;2.6911;-0.7973;-0.4811;0.2102;-0.0016
0000215407;0.6704;2.9736;-0.3232;-0.4851;0.1617;0.0424
0000215416;0.2394;2.9688;0.1389;-0.5365;0.1382;0.0811
0000215429;0.1652;2.7797;0.4286;-0.5774;0.1431;0.1438
0000215438;-0.0431;2.4756;0.4645;-0.5997;0.1352;0.1988
0000215447;-0.2179;1.5371;0.4956;-0.6109;0.0799;0.1997
0000215459;-0.5100;0.4741;0.6393;-0.5481;-0.0101;0.1797
0000215468;-0.4525;-0.1796;0.3879;-0.4647;-0.0617;0.1287
0000215481;-0.2897;-1.7597;-0.1987;-0.2996;-0.0939;0.0261
0000215490;-0.4501;-2.8132;-0.4214;-0.1895;-0.0722;0.0072
0000215502;-0.4070;-4.3838;-0.6752;0.0009;-0.0179;-0.0356
0000215511;-0.0215;-3.2657;-1.6113;0.1092;-0.0842;-0.2673
0000215524;-0.2155;0.3879;-2.0183;0.3777;-0.1387;-0.3758
0000215533;-0.4357;2.0662;-0.7542;0.5668;-0.2625;-0.3079
0000215545;-0.5171;2.7677;0.2634;0.5229;-0.3343;-0.2250
0000215554;-0.1221;2.2625;-0.0766;0.3709;-0.3124;-0.2140
0000215563;0.4717;2.3343;-0.5483;0.2450;-0.2481;-0.1935
0000215576;0.7230;1.8747;-0.8308;0.1707;-0.1585;-0.1684
0000215585;0.2777;1.5419;-1.0534;0.1183;-0.1021;-0.1724
0000215653;-1.0127;0.3400;-1.0846;-0.0749;-0.0080;-0.1639
0000215662;-1.1372;0.3017;-1.0008;-0.0905;0.0076;-0.1343
0000215675;-1.4341;-0.0790;-1.0391;-0.1166;-0.0044;-0.1010
0000215684;-1.3264;-0.1915;-1.1157;-0.1182;-0.0105;-0.1031
0000215696;-1.4341;-0.3855;-1.2043;-0.1420;-0.0181;-0.1228
0000215705;-1.3240;-0.6273;-1.0942;-0.1502;-0.0161;-0.1651
0000215718;-1.2689;-0.8906;-0.9960;-0.1600;0.0061;-0.2594
0000215727;-1.2498;-0.8452;-1.0391;-0.1515;0.0221;-0.3345
0000215736;-1.6305;-1.0199;-1.0223;-0.1343;0.0560;-0.3681
0000215748;-1.7358;-0.8045;-1.0822;-0.1078;0.0909;-0.3591
0000215757;-1.8459;-0.5650;-1.0343;-0.1087;0.0839;-0.3127
0000215770;-2.0016;-0.1700;-0.9457;-0.1218;0.0641;-0.2451
0000215779;-1.8914;0.0814;-1.1061;-0.1585;0.0769;-0.2061
0000215791;-2.1979;0.1269;-0.9553;-0.1848;0.0947;-0.1644
0000215800;-2.2051;-0.0934;-0.9577;-0.2146;0.0773;-0.1681
0000215813;-2.0423;-0.4812;-0.9720;-0.2409;0.0298;-0.1657
0000215822;-1.6376;-0.4310;-1.0391;-0.2523;0.0120;-0.1659
0000215834;-1.5610;-0.8021;-1.1516;-0.2561;0.0163;-0.1663
0000215843;-1.4772;-0.8188;-0.9649;-0.2567;0.0330;-0.1621
0000215856;-1.6544;-0.8523;-1.0391;-0.2581;0.0556;-0.1498
0000215865;-1.6688;-0.9290;-1.0750;-0.2491;0.0658;-0.1315
0000215874;-1.5562;-0.8284;-1.0918;-0.2455;0.0703;-0.1096
0000215942;-1.5395;-0.6967;-0.8978;-0.1733;-0.0296;-0.0197
0000215951;-1.2139;-0.6632;-0.8021;-0.1749;-0.0160;0.0008
0000215964;-1.3001;-0.7111;-0.7638;-0.1416;0.0012;0.0169
0000215973;-1.0894;-0.7230;-0.8332;-0.1308;0.0149;0.0312
0000215985;-1.2498;-0.8499;-0.7709;-0.1037;0.0380;0.0497
0000215994;-1.2330;-0.9313;-0.7877;-0.0722;0.0665;0.0722
0000216007;-1.3934;-0.7973;-0.8811;-0.0501;0.0574;0.0758
0000216016;-1.4293;-0.6081;-0.7638;-0.0220;0.0552;0.0881
0000216028;-1.6281;-0.7518;-0.8571;0.0100;0.0545;0.1062
0000216037;-1.7119;-0.5722;-0.9984;0.0099;0.0274;0.0953
0000216046;-1.6568;-0.4741;-0.9840;0.0137;0.0188;0.1054
0000216059;-1.6999;-0.5076;-0.9385;0.0297;-0.0004;0.1166
0000216068;-1.4700;-0.2873;-1.0175;0.0253;-0.0153;0.1187
0000216080;-1.5610;-0.3831;-1.0319;0.0278;-0.0215;0.1203
0000216089;-1.5107;-0.4142;-0.9960;0.0300;-0.0290;0.1318
0000216102;-1.5251;-0.2921;-1.1253;0.0313;-0.0478;0.1244
0000216111;-1.4653;-0.3735;-1.0080;0.0305;-0.0636;0.1218
0000216123;-1.2474;-0.1987;-0.9553;0.0365;-0.0721;0.1158
0000216132;-1.2354;-0.2705;-0.9385;0.0241;-0.0657;0.1204
0000216145;-1.0319;-0.1939;-0.8978;0.0277;-0.0654;0.1083
0000216154;-1.1756;-0.1053;-0.9050;0.0136;-0.0633;0.1066
0000216163;-1.1277;-0.0287;-0.9313;0.0199;-0.0691;0.0981
0000216231;-0.7230;0.4525;-0.7685;-0.0669;-0.0541;0.1045
0000216240;-0.8763;0.3112;-0.7159;-0.0648;-0.0690;0.1046
0000216253;-0.6464;0.4812;-0.6488;-0.0694;-0.0629;0.0957
0000216262;-0.8547;0.2849;-0.7159;-0.0687;-0.0614;0.0907
0000216274;-0.6369;0.2825;-0.7350;-0.0682;-0.0608;0.0813
0000216283;-0.5483;0.3256;-0.7278;-0.0577;-0.0765;0.0634
0000216296;-0.6273;0.0862;-0.7207;-0.0572;-0.0589;0.0681
0000216305;-0.7685;-0.0287;-0.6656;-0.0578;-0.0518;0.0616
0000216317;-0.9146;-0.0263;-0.8356;-0.0454;-0.0456;0.0462
0000216326;-0.8332;0.1245;-0.7949;-0.0372;-0.0484;0.0354
0000216335;-0.8308;0.1748;-0.7638;-0.0364;-0.0492;0.0184
0000216348;-0.8164;-0.1437;-0.8835;-0.0145;-0.0502;-0.0139
0000216357;-0.9242;-0.2394;-0.7638;-0.0069;-0.0536;-0.0357
0000216369;-0.8188;-0.0096;-0.7230;0.0039;-0.0394;-0.0465
0000216378;-0.7039;0.0646;-0.7805;0.0160;-0.0336;-0.0585
0000216391;-0.9170;0.0599;-0.7135;0.0108;-0.0261;-0.0622
0000216400;-0.7805;0.2729;-0.7733;0.0063;-0.0300;-0.0746
0000216412;-0.6297;0.4381;-0.6488;0.0067;-0.0171;-0.0621
0000216421;-0.5602;0.2825;-0.6440;-0.0217;-0.0213;-0.0596
0000216434;-0.8452;0.2586;-0.6608;-0.0305;-0.0163;-0.0432
0000216443;-0.8859;0.1867;-0.6416;-0.0207;-0.0169;-0.0252
0000216452;-0.9098;0.0168;-0.5602;-0.0260;-0.0065;-0.0069
0000216520;-1.3767;0.1748;-0.7302;-0.0470;-0.0156;-0.0015
0000216529;-1.3264;-0.1460;-0.7542;-0.0456;-0.0112;-0.0192
0000216542;-1.3958;-0.3567;-0.8499;-0.0326;-0.0129;-0.0217
0000216551;-1.3001;-0.5411;-0.8619;-0.0191;-0.0304;-0.0285
0000216562;-1.1396;-0.5243;-0.8739;-0.0087;-0.0192;-0.0254
0000216571;-0.9960;-0.4381;-0.9242;0.0017;-0.0165;-0.0352
0000216585;-1.1995;-0.3376;-0.8811;0.0181;-0.0108;-0.0360
0000216594;-1.2210;-0.4549;-0.8787;0.0169;0.0065;-0.0350
0000216607;-1.3001;-0.3663;-0.8835;0.0125;0.0071;-0.0337
0000216616;-1.1971;-0.0383;-1.0630;0.0128;-0.0095;-0.0268
0000216628;-1.3048;0.0455;-0.9505;0.0052;-0.0238;-0.0340
0000216637;-1.2450;0.1365;-0.8380;-0.0052;-0.0221;-0.0305
0000216646;-1.5251;0.1245;-0.7278;-0.0091;-0.0272;-0.0310
0000216659;-1.3934;0.0622;-0.7781;-0.0195;-0.0290;-0.0222
0000216668;-1.4437;-0.0215;-0.9577;-0.0314;-0.0480;-0.0195
0000216680;-1.1971;-0.1604;-0.9409;-0.0369;-0.0544;-0.0061
0000216689;-1.1971;-0.0383;-0.9337;-0.0304;-0.0606;-0.0055
0000216702;-1.0606;-0.0168;-0.8212;-0.0340;-0.0536;0.0024
0000216711;-1.0534;-0.1580;-0.9050;-0.0276;-0.0644;-0.0084
0000216723;-1.0942;-0.2059;-0.9290;-0.0272;-0.0605;0.0021
0000216732;-0.9050;-0.0646;-0.9002;-0.0241;-0.0486;0.0033
0000216799;-0.9840;0.1125;-0.9170;-0.0188;-0.0674;0.0093
0000216808;-0.9888;0.0910;-0.8068;-0.0192;-0.0687;0.0169
0000216820;-0.8452;-0.0335;-0.7230;-0.0211;-0.0636;0.0128
0000216829;-1.0511;0.0168;-0.7015;-0.0238;-0.0517;0.0233
0000216838;-1.0415;-0.0144;-0.7470;-0.0207;-0.0610;0.0164
0000216851;-1.1372;0.0192;-0.7470;-0.0226;-0.0618;0.0156
0000216860;-1.0104;0.0886;-0.6512;-0.0246;-0.0621;0.0197
0000216872;-0.9194;0.0455;-0.8188;-0.0192;-0.0694;0.0160
0000216881;-1.0032;-0.1053;-0.7518;-0.0203;-0.0729;0.0092
0000216894;-0.9313;0.1006;-0.7685;-0.0179;-0.0703;0.0120
0000216903;-0.9361;0.1413;-0.6249;-0.0200;-0.0636;0.0169
0000216915;-1.0439;0.0910;-0.7207;-0.0180;-0.0757;0.0233
0000216924;-0.8643;0.1580;-0.6919;-0.0136;-0.0783;0.0176
0000216937;-0.8452;0.0144;-0.6871;-0.0095;-0.0762;0.0192
0000216946;-0.9242;0.1077;-0.6656;-0.0149;-0.0632;0.0191
0000216955;-0.8595;0.0862;-0.6464;-0.0140;-0.0616;0.0199
0000216967;-0.9529;0.0934;-0.6369;-0.0119;-0.0687;0.0218
0000216976;-0.8092;0.1604;-0.7757;-0.0163;-0.0723;0.0197
0000216989;-0.7781;0.2442;-0.6728;-0.0112;-0.0742;0.0172
0000216998;-0.9313;0.0910;-0.6919;-0.0195;-0.0641;0.0216
0000217010;-0.8164;0.1796;-0.7111;-0.0205;-0.0564;0.0167
0000217019;-0.9170;0.1676;-0.7398;-0.0274;-0.0518;0.0159
0000217086;-0.9601;0.0622;-0.6632;-0.0193;-0.0378;-0.0012
0000217095;-0.7949;0.2035;-0.7590;-0.0117;-0.0401;-0.0128
0000217107;-0.9409;0.2011;-0.7781;-0.0120;-0.0425;-0.0027
0000217116;-1.0175;0.0838;-0.7446;-0.0100;-0.0497;-0.0052
0000217125;-0.9697;0.0814;-0.6297;-0.0139;-0.0462;0.0065
0000217138;-0.7230;-0.0335;-0.6153;-0.0139;-0.0448;-0.0025
0000217147;-0.9242;-0.0168;-0.5866;0.0033;-0.0272;0.0171
0000217159;-0.7997;0.0048;-0.8332;-0.0091;-0.0442;0.0033
0000217168;-1.0582;0.0407;-0.7949;-0.0121;-0.0313;0.0037
0000217181;-0.8523;0.2227;-0.7039;-0.0171;-0.0350;0.0015
0000217190;-0.9888;0.2251;-0.6488;-0.0095;-0.0300;-0.0059
0000217202;-1.0630;0.2083;-0.6297;-0.0120;-0.0101;-0.0051
0000217211;-1.0080;0.3759;-0.6680;-0.0195;-0.0159;-0.0232
0000217224;-1.1588;0.0503;-0.7015;-0.0215;-0.0309;-0.0191
0000217233;-1.0271;-0.0383;-0.6369;-0.0256;-0.0179;-0.0176
0000217245;-0.8835;0.1389;-0.7063;-0.0228;-0.0226;-0.0139
0000217254;-0.9792;0.0455;-0.7039;-0.0213;-0.0296;-0.0205
0000217263;-1.0463;0.0455;-0.6608;-0.0238;-0.0204;-0.0140
0000217276;-0.8332;0.1341;-0.7518;-0.0211;-0.0225;-0.0176
0000217285;-0.7709;0.1197;-0.7087;-0.0238;-0.0192;-0.0128
0000217297;-0.9122;0.0479;-0.6991;-0.0205;-0.0218;-0.0179
0000217306;-0.9697;0.0982;-0.7566;-0.0168;-0.0281;-0.0217
0000217375;-1.0989;-0.0144;-0.7518;-0.0088;-0.0285;-0.0240
0000217384;-1.1492;0.0120;-0.6632;-0.0052;-0.0265;-0.0187
0000217396;-0.9026;0.1317;-0.6656;-0.0088;-0.0256;-0.0188
0000217405;-0.9098;-0.0096;-0.7087;-0.0039;-0.0308;-0.0169
0000217418;-1.0319;0.0575;-0.6752;-0.0097;-0.0220;-0.0129
0000217427;-0.9002;0.0814;-0.7877;-0.0055;-0.0294;-0.0165
0000217439;-0.9744;0.1413;-0.9002;-0.0047;-0.0381;-0.0173
0000217448;-0.9313;-0.0048;-0.7781;-0.0101;-0.0325;-0.0113
0000217457;-0.9984;0.0311;-0.7925;-0.0045;-0.0376;-0.0121
0000217470;-1.1061;0.0838;-0.7949;-0.0096;-0.0321;-0.0095
0000217479;-0.9385;0.0982;-0.6608;-0.0016;-0.0349;-0.0089
0000217491;-0.9529;0.0431;-0.7446;-0.0097;-0.0293;-0.0073
0000217500;-0.7733;0.0862;-0.7709;-0.0024;-0.0322;-0.0087
0000217513;-1.0678;-0.0287;-0.7805;-0.0088;-0.0312;0.0004
0000217522;-1.0774;-0.1676;-0.7685;-0.0185;-0.0289;-0.0072
0000217534;-1.0511;-0.0742;-0.7925;-0.0127;-0.0312;-0.0007
0000217543;-1.0271;0.0072;-0.7278;0.0005;-0.0277;0.0059
0000217556;-1.0271;-0.0215;-0.8236;-0.0048;-0.0454;0.0071
0000217565;-1.0032;-0.1077;-0.8523;-0.0065;-0.0374;0.0167
0000217577;-0.8882;0.0838;-0.8236;0.0031;-0.0490;0.0132
0000217586;-0.8667;0.1484;-0.7087;0.0049;-0.0512;0.0105
0000217595;-1.0127;0.1772;-0.6752;0.0005;-0.0381;0.0141
0000217664;-0.9577;0.0144;-0.7207;-0.0147;-0.0350;0.0013
0000217673;-0.8116;0.1652;-0.7566;-0.0179;-0.0293;-0.0019
0000217685;-0.8835;0.1245;-0.7183;-0.0137;-0.0310;-0.0027
0000217694;-1.0391;0.0144;-0.7398;-0.0132;-0.0369;-0.0060
0000217707;-0.9361;0.0287;-0.7446;-0.0088;-0.0364;-0.0052
0000217716;-0.9385;-0.0455;-0.6967;-0.0065;-0.0414;-0.0096
0000217728;-0.9768;0.0527;-0.7733;-0.0013;-0.0361;-0.0119
0000217737;-0.9170;0.1197;-0.7183;-0.0087;-0.0301;-0.0111
0000217750;-0.9218;0.1820;-0.7757;-0.0135;-0.0220;-0.0091
0000217759;-0.9840;0.0551;-0.7470;-0.0188;-0.0195;-0.0101
0000217768;-0.9697;0.1221;-0.7685;-0.0184;-0.0242;-0.0071
0000217780;-1.1396;-0.0862;-0.7374;-0.0123;-0.0358;-0.0077
0000217789;-0.9505;0.0862;-0.7590;-0.0139;-0.0350;-0.0032
0000217802;-1.0606;-0.0335;-0.7087;-0.0120;-0.0325;-0.0085
0000217811;-0.8787;0.0982;-0.7159;-0.0015;-0.0310;-0.0049
0000217823;-0.8739;0.1293;-0.7638;-0.0120;-0.0401;-0.0153
0000217832;-1.1396;0.0383;-0.6967;-0.0163;-0.0325;-0.0091
0000217845;-0.8380;0.3280;-0.7685;-0.0225;-0.0293;-0.0120
0000217854;-0.7590;0.1365;-0.7159;-0.0188;-0.0293;-0.0145
0000217866;-0.9888;0.0599;-0.7805;-0.0233;-0.0282;-0.0132
0000217875;-0.8906;0.0862;-0.7949;-0.0181;-0.0314;-0.0124
0000217944;-0.9744;0.2753;-0.7254;-0.0052;-0.0133;0.0036
0000217953;-0.9984;0.2131;-0.7494;-0.0139;-0.0305;-0.0099
0000217962;-1.0056;0.2825;-0.7230;-0.0051;-0.0329;-0.0152
0000217974;-1.1253;0.1484;-0.6847;-0.0137;-0.0376;-0.0215
0000217983;-0.9242;0.1460;-0.7997;-0.0193;-0.0305;-0.0165
0000217997;-1.0654;0.0024;-0.7135;-0.0238;-0.0284;-0.0137
0000218006;-0.7805;0.1820;-0.8092;-0.0109;-0.0233;-0.0172
0000218019;-0.9409;0.1077;-0.7805;-0.0132;-0.0242;-0.0157
0000218028;-0.9864;0.0862;-0.7733;-0.0169;-0.0183;-0.0107
0000218040;-1.0175;-0.0287;-0.7566;-0.0125;-0.0309;-0.0120
0000218049;-1.0798;-0.0120;-0.7446;-0.0151;-0.0277;-0.0123
0000218062;-0.8667;0.1891;-0.7135;-0.0135;-0.0349;-0.0192
0000218071;-0.9242;0.1652;-0.6321;-0.0156;-0.0269;-0.0136
0000218083;-1.0008;0.0694;-0.8188;-0.0113;-0.0313;-0.0141
0000218092;-0.9912;0.0144;-0.6560;-0.0071;-0.0373;-0.0176
0000218105;-0.8140;0.1293;-0.8260;-0.0063;-0.0302;-0.0163
0000218114;-1.0032;0.1173;-0.7302;-0.0115;-0.0300;-0.0092
0000218123;-0.8978;0.0958;-0.8021;-0.0072;-0.0292;-0.0088
0000218135;-1.0774;0.0144;-0.7494;-0.0056;-0.0262;-0.0072
0000218144;-1.0606;-0.1006;-0.7302;-0.0043;-0.0285;-0.0156
