time;acc_x;acc_y;acc_z;gyro_x;gyro_y;gyro_z
0000082276;-2.6408;-6.9168;3.6224;-0.0215;-0.0618;-0.0032
0000082284;-2.2817;-6.8666;3.6583;-0.0208;-0.0574;-0.0135
0000082291;-2.5043;-6.8594;3.5985;-0.0177;-0.0501;-0.0095
0000082299;-2.5450;-6.8738;3.6200;-0.0168;-0.0410;-0.0189
0000082307;-2.4780;-6.9192;3.5578;-0.0177;-0.0301;-0.0141
0000082315;-2.6959;-6.7876;3.5698;-0.0229;-0.0236;-0.0184
0000082323;-2.6887;-6.7469;3.4740;-0.0167;-0.0139;-0.0246
0000082331;-2.8467;-6.8187;3.4812;-0.0184;-0.0123;-0.0313
0000082339;-3.0191;-7.0222;3.4285;-0.0053;-0.0177;-0.0386
0000082347;-2.6145;-6.9839;3.4548;-0.0069;-0.0281;-0.0348
0000082355;-2.9042;-6.8905;3.5003;-0.0088;-0.0330;-0.0368
0000082363;-2.6647;-6.9145;3.5841;-0.0047;-0.0374;-0.0397
0000082371;-2.4181;-6.6870;3.6488;-0.0049;-0.0310;-0.0438
0000082379;-2.6193;-6.7301;3.6631;-0.0028;-0.0128;-0.0461
0000082387;-2.4780;-6.6846;3.6559;-0.0113;0.0033;-0.0390
0000082395;-2.5355;-6.7421;3.7062;-0.0141;0.0144;-0.0446
0000082403;-2.7701;-6.8378;3.5698;-0.0123;0.0169;-0.0448
0000082411;-2.8683;-6.8354;3.6583;-0.0109;0.0148;-0.0520
0000082419;-2.8874;-6.8283;3.6320;-0.0100;0.0064;-0.0541
0000082427;-2.9544;-6.9025;3.5338;-0.0095;-0.0060;-0.0478
0000082435;-3.0047;-6.8546;3.4979;-0.0108;-0.0148;-0.0440
0000082443;-2.8060;-6.7756;3.5793;-0.0060;-0.0268;-0.0465
0000082451;-2.8371;-6.7229;3.6536;-0.0021;-0.0248;-0.0416
0000082460;-2.7869;-6.8235;3.7948;-0.0056;-0.0175;-0.0310
0000082467;-2.5139;-6.5266;3.5865;-0.0028;-0.0256;-0.0317
0000082475;-2.8802;-6.7373;3.6583;-0.0083;-0.0215;-0.0290
0000082483;-3.0430;-6.6583;3.6966;-0.0045;-0.0256;-0.0285
0000082491;-2.8706;-6.5912;3.6081;-0.0125;-0.0314;-0.0285
0000082499;-3.2633;-6.6798;3.5698;-0.0056;-0.0520;-0.0230
0000082507;-3.2681;-6.7109;3.4309;-0.0069;-0.0644;-0.0256
0000082515;-3.1508;-6.7924;3.4189;0.0057;-0.0921;-0.0384
0000082523;-3.4093;-7.1275;3.4548;0.0081;-0.1063;-0.0365
0000082531;-3.3279;-7.2520;3.3878;0.0233;-0.1336;-0.0565
0000082539;-2.9880;-7.1611;3.3758;0.0397;-0.1484;-0.0625
0000082547;-2.9209;-7.2018;3.6559;0.0504;-0.1559;-0.0665
0000082555;-2.5953;-7.1347;3.6368;0.0709;-0.1613;-0.0749
0000082563;-2.7222;-7.0485;3.5865;0.0754;-0.1455;-0.0690
0000082571;-2.7461;-6.9887;3.6823;0.0731;-0.1322;-0.0713
0000082579;-2.7581;-6.8522;3.6416;0.0731;-0.1232;-0.0665
0000082587;-2.6288;-6.7540;3.6583;0.0718;-0.1211;-0.0646
0000082595;-2.9760;-6.7277;3.6344;0.0565;-0.1196;-0.0438
0000082603;-3.0718;-6.6846;3.4644;0.0368;-0.1320;-0.0278
0000082611;-3.2992;-6.6104;3.4955;0.0258;-0.1575;-0.0192
0000082619;-3.2465;-6.6822;3.6105;0.0131;-0.1768;-0.0051
0000082627;-3.2489;-6.5386;3.6009;-0.0141;-0.1903;0.0055
0000082635;-3.2298;-6.5697;3.4165;-0.0187;-0.2122;0.0111
0000082643;-3.0813;-6.4572;3.4931;-0.0376;-0.2254;0.0191
0000082651;-2.9257;-6.6104;3.5578;-0.0504;-0.2337;0.0207
0000082659;-2.7629;-6.5817;3.5386;-0.0580;-0.2325;0.0183
0000082667;-2.4780;-6.6080;3.5075;-0.0540;-0.2290;0.0168
0000082675;-2.3966;-6.7109;3.5865;-0.0514;-0.2037;0.0220
0000082683;-2.2649;-6.8761;3.5841;-0.0532;-0.1788;0.0145
0000082691;-2.4325;-7.0222;3.6033;-0.0389;-0.1652;0.0027
0000082699;-2.4876;-7.1443;3.5051;-0.0197;-0.1549;-0.0184
0000082707;-2.3583;-7.0749;3.6272;-0.0079;-0.1324;-0.0317
0000082715;-2.5786;-7.1491;3.5314;0.0061;-0.1252;-0.0536
0000082723;-2.4972;-7.2616;3.5482;0.0310;-0.1162;-0.0677
0000082731;-2.4995;-7.2305;3.5793;0.0458;-0.0990;-0.0729
0000082739;-2.4612;-7.2927;3.6655;0.0606;-0.0887;-0.0810
0000082747;-2.4349;-7.1443;3.6919;0.0738;-0.0835;-0.0833
0000082755;-2.4828;-7.2257;3.6081;0.0899;-0.0699;-0.0870
0000082763;-2.4972;-7.1539;3.7038;0.1009;-0.0520;-0.0869
0000082771;-2.4110;-7.1970;3.7541;0.1123;-0.0322;-0.0877
0000082779;-2.2673;-7.2161;3.9648;0.1332;-0.0221;-0.1021
0000082787;-2.1931;-7.1754;4.0630;0.1418;0.0071;-0.1014
0000082795;-2.2841;-7.2664;4.0270;0.1459;0.0356;-0.0978
0000082803;-2.1596;-7.0102;4.0103;0.1411;0.0699;-0.0841
0000082811;-2.4253;-6.8211;3.9337;0.1262;0.0941;-0.0564
0000082819;-2.6959;-6.7325;4.0079;0.1092;0.1006;-0.0380
0000082827;-2.7653;-6.5481;4.0079;0.0970;0.0893;-0.0234
0000082854;-3.0957;-6.6966;3.7852;0.0336;0.0055;0.0222
0000082862;-2.9975;-6.7421;3.8355;0.0129;-0.0013;0.0385
0000082870;-2.9832;-6.6726;3.9097;-0.0043;0.0001;0.0518
0000082878;-2.8395;-6.6152;3.7613;-0.0148;-0.0045;0.0557
0000082886;-2.7461;-6.4811;3.7709;-0.0236;-0.0115;0.0637
0000082894;-2.7533;-6.3734;3.7517;-0.0406;-0.0234;0.0554
0000082902;-2.8826;-6.5003;3.8307;-0.0477;-0.0400;0.0524
0000082910;-2.8563;-6.5697;3.7254;-0.0572;-0.0562;0.0437
0000082918;-2.7701;-6.6224;3.7924;-0.0622;-0.0698;0.0256
0000082926;-2.5355;-6.5338;3.8020;-0.0648;-0.0834;0.0077
0000082934;-2.5690;-6.5625;3.8379;-0.0703;-0.0791;-0.0009
0000082942;-2.6504;-6.8522;3.7876;-0.0791;-0.0786;-0.0073
0000082950;-2.5283;-6.7804;3.7852;-0.0730;-0.0855;-0.0229
0000082958;-2.5738;-6.8450;3.9361;-0.0775;-0.0687;-0.0244
0000082966;-2.4397;-6.9408;3.8595;-0.0743;-0.0645;-0.0260
0000082974;-2.5043;-6.9767;3.7565;-0.0658;-0.0586;-0.0325
0000082982;-2.4780;-7.0797;3.8331;-0.0564;-0.0380;-0.0269
0000082990;-2.5019;-7.0653;3.7373;-0.0462;-0.0328;-0.0326
0000082998;-2.4134;-7.0677;3.8355;-0.0309;-0.0281;-0.0490
0000083006;-2.4852;-7.2449;3.9121;-0.0273;-0.0125;-0.0441
0000083014;-2.2505;-7.1084;4.0654;-0.0153;-0.0041;-0.0453
0000083022;-2.0877;-6.9480;4.0606;-0.0203;0.0218;-0.0361
0000083030;-2.2434;-6.7708;3.9959;-0.0229;0.0472;-0.0326
0000083038;-2.2170;-6.8259;3.9696;-0.0216;0.0593;-0.0285
0000083046;-2.4301;-6.7900;3.8499;-0.0221;0.0649;-0.0241
0000083054;-2.8347;-6.9192;3.9313;-0.0289;0.0649;-0.0139
0000083062;-2.9640;-6.9001;3.7996;-0.0318;0.0550;-0.0081
0000083070;-3.1220;-6.9911;3.7565;-0.0345;0.0356;-0.0113
0000083078;-3.1388;-6.8067;3.7110;-0.0325;0.0099;-0.0057
0000083086;-3.0167;-6.8354;3.7350;-0.0412;-0.0028;0.0031
0000083094;-3.0622;-6.9576;3.5817;-0.0388;-0.0171;0.0057
0000083102;-2.8922;-6.8402;3.6607;-0.0432;-0.0193;0.0157
0000083110;-2.8778;-6.7493;3.6392;-0.0464;-0.0242;0.0128
0000083118;-2.7150;-6.6367;3.6679;-0.0549;-0.0293;0.0169
0000083126;-2.8371;-6.5146;3.5530;-0.0612;-0.0420;0.0131
0000083134;-3.0119;-6.6679;3.6488;-0.0624;-0.0564;0.0129
0000083142;-3.1173;-6.7373;3.7038;-0.0753;-0.0694;0.0120
0000083150;-2.9401;-6.7493;3.6679;-0.0858;-0.0881;0.0128
0000083158;-2.8754;-6.8761;3.7445;-0.0825;-0.1054;0.0161
0000083166;-2.7557;-6.7732;3.7062;-0.0911;-0.0974;0.0131
0000083174;-2.8108;-6.9145;3.7924;-0.0931;-0.0999;0.0005
0000083182;-2.7174;-6.9719;3.7757;-0.0965;-0.0998;-0.0031
0000083190;-2.6121;-6.9432;3.7278;-0.1042;-0.1002;-0.0003
0000083198;-2.6456;-6.8642;3.8642;-0.1057;-0.0994;-0.0003
0000083206;-2.8754;-7.0677;3.7781;-0.1029;-0.1010;0.0000
0000083214;-2.6360;-6.7684;3.7469;-0.1074;-0.1035;-0.0017
0000083222;-2.5690;-6.7971;3.8331;-0.1138;-0.1046;0.0067
0000083230;-2.8850;-6.9025;3.6799;-0.1171;-0.1071;0.0037
0000083238;-2.6983;-6.7588;3.7278;-0.1332;-0.1050;0.0108
0000083246;-2.7318;-6.7756;3.8403;-0.1458;-0.1023;0.0165
0000083254;-2.6456;-6.7900;3.8283;-0.1531;-0.1019;0.0204
0000083262;-2.7509;-6.8163;3.7110;-0.1592;-0.1017;0.0145
0000083270;-2.7102;-6.8091;3.7206;-0.1717;-0.0998;0.0317
0000083278;-2.6959;-6.7540;3.7996;-0.1825;-0.0981;0.0354
0000083286;-2.6983;-6.7253;3.7326;-0.1841;-0.1027;0.0456
0000083294;-2.7964;-6.8522;3.7158;-0.1958;-0.1011;0.0586
0000083302;-2.7821;-6.9719;3.7445;-0.1932;-0.1043;0.0574
0000083310;-2.8323;-7.0006;3.7206;-0.2005;-0.1061;0.0594
0000083318;-2.7078;-6.9959;3.7302;-0.2034;-0.1053;0.0605
0000083326;-2.6408;-7.0294;3.8307;-0.1997;-0.1140;0.0497
0000083334;-2.7485;-7.1036;3.7996;-0.2009;-0.1018;0.0570
0000083342;-2.6647;-6.9743;3.8044;-0.2004;-0.0934;0.0537
0000083350;-2.5091;-6.8929;3.8116;-0.2000;-0.0870;0.0561
0000083358;-2.5450;-6.9695;3.7517;-0.1984;-0.0878;0.0473
0000083366;-2.5642;-6.9264;3.6464;-0.1935;-0.0817;0.0516
0000083374;-2.5187;-6.8738;3.7972;-0.1982;-0.0765;0.0532
0000083382;-2.9449;-7.1778;3.8116;-0.1956;-0.0829;0.0452
0000083390;-2.6983;-6.9911;3.9025;-0.1912;-0.0855;0.0550
0000083398;-2.6288;-6.9983;3.8571;-0.1849;-0.0648;0.0404
0000083406;-2.7318;-7.0868;3.8642;-0.1833;-0.0594;0.0388
0000083490;-2.6600;-7.0174;3.8188;-0.0758;-0.0337;0.0023
0000083498;-2.8204;-7.0485;3.9456;-0.0625;-0.0354;-0.0123
0000083506;-2.7605;-7.1156;3.8810;-0.0506;-0.0360;-0.0244
0000083514;-2.8084;-7.0366;3.8427;-0.0430;-0.0302;-0.0233
0000083522;-2.5714;-6.9025;3.8595;-0.0385;-0.0292;-0.0298
0000083530;-2.5690;-6.9456;3.9073;-0.0296;-0.0334;-0.0373
0000083538;-2.6959;-7.0964;3.8523;-0.0107;-0.0436;-0.0444
0000083546;-2.7414;-7.0102;3.7996;-0.0035;-0.0389;-0.0394
0000083554;-2.7054;-7.1132;3.9313;0.0052;-0.0468;-0.0414
0000083562;-2.6528;-6.9408;3.8188;0.0096;-0.0472;-0.0386
0000083570;-2.6911;-7.0797;3.9002;0.0222;-0.0594;-0.0454
0000083578;-2.7078;-6.9983;3.8738;0.0277;-0.0554;-0.0420
0000083586;-2.6647;-7.0581;3.9672;0.0278;-0.0524;-0.0384
0000083594;-2.6432;-7.1204;3.9025;0.0417;-0.0509;-0.0437
0000083602;-2.6719;-7.1395;3.9768;0.0432;-0.0456;-0.0420
0000083610;-2.4780;-6.9456;3.9361;0.0484;-0.0430;-0.0472
0000083618;-2.3607;-6.9432;3.9696;0.0605;-0.0430;-0.0518
0000083626;-2.5546;-6.9743;3.9049;0.0594;-0.0317;-0.0486
0000083634;-2.6217;-7.1228;3.9289;0.0588;-0.0248;-0.0577
0000083642;-2.5187;-6.9719;3.9959;0.0711;-0.0229;-0.0616
0000083650;-2.4995;-6.9192;3.9265;0.0746;-0.0149;-0.0606
0000083658;-2.4373;-6.9599;3.9816;0.0771;-0.0056;-0.0645
0000083666;-2.5115;-6.9719;3.9744;0.0826;-0.0133;-0.0719
0000083674;-2.5019;-7.0006;3.9528;0.0798;-0.0055;-0.0671
0000083682;-2.4469;-6.8354;4.0007;0.0867;-0.0112;-0.0766
0000083690;-2.5786;-6.8331;3.9121;0.0781;-0.0031;-0.0689
0000083698;-2.5570;-6.8905;3.9648;0.0750;-0.0068;-0.0671
0000083706;-2.7940;-7.0102;3.9241;0.0791;-0.0128;-0.0674
0000083714;-2.8515;-6.9983;4.0031;0.0709;-0.0036;-0.0566
0000083722;-2.6576;-6.8019;3.9337;0.0641;-0.0039;-0.0538
0000083730;-2.6911;-6.8977;3.9504;0.0565;-0.0061;-0.0517
0000083738;-2.6169;-6.7971;4.0510;0.0581;-0.0123;-0.0484
0000083746;-2.7581;-6.8498;3.8379;0.0517;-0.0119;-0.0389
0000083754;-2.6169;-6.7852;3.9600;0.0396;-0.0127;-0.0298
0000083762;-2.6408;-6.7732;3.9456;0.0404;-0.0273;-0.0310
0000083770;-2.8084;-6.8594;3.8882;0.0292;-0.0286;-0.0208
0000083778;-2.6791;-6.8738;3.9289;0.0266;-0.0301;-0.0192
0000083786;-2.9042;-7.0797;3.9528;0.0141;-0.0244;-0.0160
0000083794;-2.7270;-6.9911;3.8906;0.0116;-0.0321;-0.0207
0000083802;-2.7198;-7.0294;3.9073;0.0083;-0.0265;-0.0172
0000083810;-2.6624;-6.8833;3.9887;0.0051;-0.0306;-0.0187
0000083818;-2.7031;-6.9192;3.9169;-0.0004;-0.0240;-0.0085
0000083826;-2.6360;-6.9240;3.9863;-0.0040;-0.0277;-0.0139
0000083834;-2.6336;-6.9863;3.9911;-0.0039;-0.0266;-0.0092
0000083842;-2.6719;-6.8570;4.0175;-0.0083;-0.0316;-0.0068
0000083850;-2.5953;-6.9576;4.0151;-0.0119;-0.0282;-0.0043
0000083858;-2.6743;-6.9839;4.0007;-0.0096;-0.0320;0.0015
0000083866;-2.6671;-6.9216;3.8690;-0.0041;-0.0325;-0.0099
0000083874;-2.6240;-7.0246;3.9385;-0.0104;-0.0309;-0.0055
0000083882;-2.7246;-6.9073;3.8714;-0.0120;-0.0265;-0.0041
0000083890;-2.6049;-6.9097;3.9504;-0.0103;-0.0350;-0.0065
0000083898;-2.6384;-7.1228;3.9193;-0.0073;-0.0334;-0.0011
0000083906;-2.7988;-7.1251;3.7948;0.0008;-0.0472;-0.0105
0000083914;-2.7054;-7.0916;3.8690;0.0044;-0.0514;-0.0120
0000083922;-2.6193;-7.0509;3.9313;0.0055;-0.0513;-0.0228
0000083930;-2.5235;-7.0150;3.9145;0.0168;-0.0574;-0.0225
0000083938;-2.8252;-7.0820;3.9193;0.0155;-0.0549;-0.0234
0000083946;-2.5474;-7.0653;3.9456;0.0113;-0.0493;-0.0220
0000083954;-2.7078;-6.9743;3.9600;0.0139;-0.0494;-0.0224
0000083962;-2.4636;-7.0318;3.9600;0.0189;-0.0504;-0.0326
0000083970;-2.7414;-7.1419;3.9480;0.0124;-0.0458;-0.0215
0000083978;-2.4612;-6.9121;3.9313;0.0152;-0.0540;-0.0232
0000083986;-2.8491;-7.1850;3.8618;0.0131;-0.0481;-0.0164
0000083994;-2.4900;-6.9312;3.9409;0.0125;-0.0452;-0.0137
0000084002;-2.5809;-7.0270;3.9720;0.0148;-0.0501;-0.0253
0000084010;-2.5331;-7.0054;4.0797;0.0156;-0.0430;-0.0218
0000084018;-2.8563;-7.0677;4.0079;0.0113;-0.0349;-0.0201
0000084026;-2.4708;-6.8594;4.0366;0.0100;-0.0338;-0.0218
0000084034;-2.5498;-7.0533;4.0294;0.0123;-0.0360;-0.0193
0000084042;-2.6288;-7.0390;4.0270;0.0117;-0.0362;-0.0143
0000084050;-2.6528;-6.9887;3.8978;0.0215;-0.0402;-0.0149
0000084135;-2.7414;-7.0964;3.9576;0.0084;-0.0273;-0.0105
0000084143;-2.4828;-6.8570;3.9648;0.0097;-0.0356;-0.0161
0000084151;-2.5666;-7.0294;4.0342;0.0055;-0.0314;-0.0141
0000084159;-2.4972;-6.8570;4.0606;-0.0023;-0.0250;-0.0075
0000084167;-2.4181;-6.9288;3.9025;-0.0057;-0.0204;-0.0081
0000084175;-2.3559;-6.7373;3.9504;-0.0048;-0.0298;-0.0093
0000084183;-2.6384;-7.0629;3.9911;-0.0008;-0.0293;-0.0119
0000084191;-2.5690;-6.9983;3.9816;-0.0061;-0.0228;-0.0117
0000084199;-2.6863;-6.8977;3.9217;-0.0029;-0.0204;-0.0151
0000084207;-2.6360;-6.9839;4.0534;-0.0089;-0.0253;-0.0109
0000084215;-2.6384;-6.9959;3.9073;-0.0021;-0.0309;-0.0109
0000084223;-2.7031;-7.0270;3.9193;-0.0105;-0.0252;-0.0053
0000084231;-2.7270;-6.9839;3.9217;-0.0103;-0.0314;-0.0039
0000084239;-2.5738;-6.9001;3.9217;-0.0063;-0.0317;-0.0043
0000084247;-2.6384;-6.8546;3.9528;-0.0129;-0.0293;-0.0040
0000084255;-2.6456;-6.9599;3.8882;-0.0080;-0.0352;-0.0077
0000084263;-2.5953;-7.0246;3.9720;-0.0137;-0.0308;-0.0035
0000084271;-2.7964;-7.0629;3.9768;-0.0192;-0.0353;-0.0104
0000084279;-2.5762;-6.9001;3.9145;-0.0161;-0.0338;-0.0053
0000084287;-2.7102;-7.0006;3.9145;-0.0179;-0.0382;-0.0093
0000084295;-2.5762;-6.9552;3.9025;-0.0111;-0.0404;-0.0160
0000084303;-2.5043;-6.9552;3.9600;-0.0185;-0.0329;-0.0100
0000084311;-2.6264;-7.0174;3.8810;-0.0200;-0.0344;-0.0108
0000084319;-2.6384;-6.9264;3.9313;-0.0144;-0.0398;-0.0129
0000084327;-2.6576;-6.9599;3.8786;-0.0173;-0.0380;-0.0131
0000084335;-2.5211;-6.8283;3.8930;-0.0249;-0.0338;-0.0087
0000084343;-2.5977;-6.8833;3.8834;-0.0232;-0.0372;-0.0128
0000084351;-2.7078;-7.0701;3.9169;-0.0286;-0.0305;-0.0073
0000084359;-2.6145;-6.8881;3.8283;-0.0332;-0.0308;-0.0076
0000084367;-2.5091;-6.7229;3.9097;-0.0308;-0.0360;-0.0144
0000084375;-2.6073;-7.0006;3.8451;-0.0366;-0.0328;-0.0096
0000084383;-2.7964;-6.9983;3.9025;-0.0329;-0.0340;-0.0149
0000084391;-2.7102;-6.9576;3.8020;-0.0356;-0.0310;-0.0084
0000084399;-2.5929;-6.8714;3.8690;-0.0344;-0.0296;-0.0124
0000084407;-2.6264;-6.9025;3.8499;-0.0369;-0.0240;-0.0121
0000084415;-2.7318;-6.9599;3.8618;-0.0316;-0.0297;-0.0141
0000084423;-2.7318;-6.9001;3.8164;-0.0273;-0.0296;-0.0132
0000084431;-2.6935;-6.9264;3.9337;-0.0313;-0.0357;-0.0145
0000084439;-2.7988;-7.0485;3.7254;-0.0274;-0.0421;-0.0148
0000084447;-2.7174;-6.9456;3.8810;-0.0332;-0.0336;-0.0129
0000084455;-2.7653;-7.0030;3.9073;-0.0298;-0.0346;-0.0135
0000084463;-2.8874;-6.9408;3.8738;-0.0337;-0.0282;-0.0127
0000084471;-2.6935;-7.0150;3.8810;-0.0269;-0.0329;-0.0136
0000084479;-2.6217;-6.9097;3.8882;-0.0372;-0.0238;-0.0063
0000084487;-2.7007;-6.9480;3.8666;-0.0318;-0.0325;-0.0104
0000084495;-2.7557;-6.9863;3.8188;-0.0373;-0.0286;-0.0039
0000084503;-2.6911;-6.8761;3.9193;-0.0429;-0.0360;-0.0045
0000084511;-2.6839;-6.8881;3.8954;-0.0404;-0.0326;-0.0031
0000084519;-2.7150;-7.0557;3.9409;-0.0401;-0.0348;-0.0039
0000084527;-2.5546;-6.9695;3.9169;-0.0440;-0.0317;0.0032
0000084535;-2.5474;-6.8378;3.8571;-0.0476;-0.0309;0.0039
0000084543;-2.5043;-6.7588;3.7781;-0.0414;-0.0326;-0.0011
0000084551;-2.5426;-6.9695;3.9361;-0.0452;-0.0277;0.0039
0000084559;-2.7054;-6.8761;3.8451;-0.0445;-0.0312;0.0023
0000084567;-2.6145;-6.8498;4.0151;-0.0432;-0.0288;0.0037
0000084575;-2.6647;-6.8929;3.9552;-0.0389;-0.0353;-0.0032
0000084583;-2.5618;-6.8498;3.9097;-0.0400;-0.0302;0.0017
0000084591;-2.6121;-6.9408;3.8188;-0.0409;-0.0244;0.0076
0000084599;-2.5642;-6.9216;3.8523;-0.0382;-0.0274;-0.0011
0000084607;-2.7054;-6.9695;3.9002;-0.0410;-0.0294;0.0041
0000084615;-2.6552;-7.0605;3.9169;-0.0345;-0.0294;-0.0013
0000084623;-2.5786;-6.9552;4.0247;-0.0400;-0.0191;0.0020
0000084631;-2.7581;-6.9647;3.8690;-0.0334;-0.0276;-0.0017
0000084639;-2.6384;-6.8235;3.8978;-0.0337;-0.0324;0.0047
0000084647;-2.6911;-6.8738;3.7661;-0.0350;-0.0316;0.0084
0000084655;-2.9090;-7.0629;3.9097;-0.0366;-0.0386;0.0119
0000084663;-2.7102;-6.9312;3.9049;-0.0313;-0.0469;0.0049
0000084671;-2.7031;-7.0102;3.9097;-0.0252;-0.0564;0.0027
0000084679;-2.4948;-6.8067;3.9025;-0.0264;-0.0529;0.0087
0000084765;-2.7222;-7.1371;3.9145;-0.0156;-0.0389;-0.0113
0000084773;-2.5235;-6.9576;4.0342;-0.0133;-0.0325;-0.0117
0000084781;-2.4517;-6.9456;3.9840;-0.0096;-0.0361;-0.0191
0000084789;-2.6815;-6.9145;3.9768;-0.0088;-0.0396;-0.0187
0000084797;-2.5498;-6.8666;4.0247;-0.0148;-0.0450;-0.0218
0000084805;-2.6767;-6.9767;3.9600;-0.0135;-0.0514;-0.0252
0000084813;-2.5690;-6.8211;3.9552;-0.0204;-0.0580;-0.0208
0000084821;-2.6217;-7.0150;3.9600;-0.0163;-0.0636;-0.0286
0000084829;-2.4636;-6.9001;4.0199;-0.0282;-0.0566;-0.0189
0000084837;-2.3367;-6.9623;4.1204;-0.0238;-0.0488;-0.0189
0000084845;-2.4612;-6.8881;4.0941;-0.0217;-0.0398;-0.0220
0000084853;-2.6456;-7.1515;3.9672;-0.0242;-0.0298;-0.0155
0000084861;-2.6552;-7.0318;4.0486;-0.0232;-0.0218;-0.0141
0000084869;-2.5283;-7.1132;3.9385;-0.0152;-0.0277;-0.0173
0000084877;-2.5762;-6.9863;3.8595;-0.0147;-0.0274;-0.0135
0000084885;-2.5642;-6.9623;3.9025;-0.0071;-0.0384;-0.0135
0000084893;-2.8371;-7.0892;3.9193;-0.0117;-0.0356;-0.0088
0000084901;-2.7869;-7.0150;3.9169;-0.0192;-0.0309;-0.0013
0000084909;-2.6169;-6.8139;3.8978;-0.0157;-0.0346;-0.0045
0000084917;-2.4469;-6.7516;3.9169;-0.0135;-0.0341;-0.0060
0000084925;-2.5833;-6.8618;3.9433;-0.0163;-0.0324;0.0004
0000084933;-2.4756;-6.8450;3.9049;-0.0189;-0.0305;0.0025
0000084941;-2.7557;-7.0006;3.8259;-0.0143;-0.0357;0.0009
0000084949;-2.6073;-6.8498;3.9193;-0.0063;-0.0500;-0.0025
0000084957;-2.6743;-6.8977;4.0031;-0.0041;-0.0581;0.0011
0000084965;-2.7916;-6.9264;4.0247;-0.0004;-0.0714;-0.0089
0000084973;-2.7797;-6.8929;3.9265;0.0136;-0.0962;-0.0258
0000084981;-2.6887;-6.8115;3.9720;0.0261;-0.1160;-0.0294
0000084989;-2.8036;-6.9408;4.0606;0.0342;-0.1318;-0.0414
0000084997;-2.8467;-7.1323;4.0127;0.0549;-0.1589;-0.0671
0000085005;-2.6839;-6.9863;4.0438;0.0617;-0.1629;-0.0778
0000085013;-2.7390;-7.1156;4.0725;0.0809;-0.1752;-0.1030
0000085021;-2.7294;-7.1443;3.9648;0.1006;-0.1767;-0.1151
0000085029;-2.6240;-6.9695;3.9840;0.1239;-0.1970;-0.1330
0000085037;-2.7725;-6.9528;3.9840;0.1476;-0.2122;-0.1548
0000085045;-2.6767;-7.0629;4.0318;0.1579;-0.2241;-0.1772
0000085053;-2.5091;-6.8714;4.0223;0.1827;-0.2334;-0.1978
0000085061;-2.3679;-6.9767;3.9840;0.1907;-0.2273;-0.2029
0000085069;-2.2865;-7.1323;4.0438;0.2029;-0.2130;-0.2166
0000085077;-2.0973;-6.7636;3.9025;0.2041;-0.1888;-0.2145
0000085085;-2.1548;-6.8785;4.0175;0.2166;-0.1596;-0.2234
0000085093;-2.3463;-6.8019;4.0031;0.2098;-0.1222;-0.2196
0000085101;-2.3080;-6.6295;4.0821;0.2068;-0.1054;-0.2234
0000085109;-2.5522;-6.6343;4.0510;0.2010;-0.0962;-0.2164
0000085117;-2.8204;-6.9121;4.0175;0.1939;-0.0881;-0.2065
0000085125;-2.8730;-6.9240;4.0677;0.1921;-0.1078;-0.1981
0000085133;-2.7342;-6.9240;4.1515;0.1989;-0.1194;-0.1901
0000085141;-2.6001;-6.8259;4.1228;0.1968;-0.1255;-0.1724
0000085149;-2.6360;-6.8618;4.1156;0.1986;-0.1235;-0.1627
0000085157;-2.5594;-6.8977;4.1875;0.2074;-0.1268;-0.1603
0000085165;-2.5833;-6.7852;4.1707;0.1912;-0.1138;-0.1499
0000085173;-2.6528;-6.8163;4.1563;0.1741;-0.1183;-0.1431
0000085181;-2.4828;-6.7636;4.1396;0.1619;-0.1330;-0.1392
0000085189;-2.6552;-6.7564;4.2952;0.1560;-0.1387;-0.1250
0000085197;-2.3391;-6.3446;4.2162;0.1306;-0.1339;-0.1071
0000085205;-2.4301;-6.5745;4.2593;0.1143;-0.1470;-0.1047
0000085213;-2.5379;-6.5984;4.2760;0.0909;-0.1556;-0.1021
0000085221;-2.7581;-6.5888;4.2569;0.0775;-0.1683;-0.1102
0000085229;-2.4493;-6.6391;4.3886;0.0480;-0.1768;-0.1147
0000085237;-2.4253;-6.7397;4.3431;0.0273;-0.1859;-0.1163
0000085245;-2.3870;-6.8211;4.3574;0.0184;-0.1943;-0.1143
0000085253;-2.0973;-6.7469;4.3934;-0.0096;-0.1755;-0.1022
0000085261;-1.9513;-6.9432;4.3694;-0.0313;-0.1559;-0.0958
0000085269;-1.9537;-6.9432;4.3096;-0.0532;-0.1440;-0.0943
0000085277;-2.0207;-7.1898;4.2832;-0.0665;-0.1190;-0.0807
0000085285;-2.1404;-7.1347;4.3048;-0.0778;-0.1051;-0.0750
0000085293;-2.1811;-7.2377;4.3407;-0.0825;-0.0890;-0.0726
0000085301;-2.5091;-7.4484;4.4436;-0.0834;-0.0757;-0.0577
0000085309;-2.5426;-7.3143;4.2976;-0.0977;-0.0698;-0.0376
0000085317;-2.6336;-7.2975;4.4580;-0.1152;-0.0693;-0.0180
0000085325;-2.4660;-7.0868;4.3862;-0.1271;-0.0737;0.0095
0000085411;-3.5267;-6.6463;4.0199;-0.4470;-0.2070;0.2305
0000085419;-3.5291;-6.7157;3.9768;-0.4751;-0.2658;0.2481
0000085427;-3.5267;-6.7900;3.9169;-0.4924;-0.3355;0.2651
0000085435;-3.6081;-6.8785;3.8188;-0.5133;-0.3821;0.2914
0000085443;-3.5841;-6.9360;3.6512;-0.5209;-0.4727;0.2847
0000085451;-3.3303;-7.0366;3.8523;-0.5345;-0.5251;0.2783
0000085459;-3.1436;-7.1132;4.0510;-0.5328;-0.5648;0.2645
0000085467;-2.9712;-7.2353;4.2593;-0.5292;-0.5910;0.2553
0000085475;-2.7581;-7.2856;4.3742;-0.5093;-0.6093;0.2388
0000085483;-3.2394;-7.9416;4.4436;-0.4827;-0.6146;0.2258
0000085491;-3.2705;-8.1211;4.5969;-0.4418;-0.6411;0.2132
0000085499;-3.5578;-8.5473;4.6017;-0.3798;-0.6765;0.2104
0000085507;-3.5386;-8.6766;4.4748;-0.2875;-0.7147;0.2025
0000085515;-3.3662;-8.5066;4.4628;-0.2036;-0.7513;0.1895
0000085523;-3.1125;-8.2001;4.3766;-0.1187;-0.7995;0.1565
0000085531;-2.6839;-7.6207;4.1994;-0.0581;-0.8426;0.1038
0000085539;-2.2601;-7.1635;4.1635;-0.0245;-0.8346;0.0349
0000085547;-1.7382;-6.6463;4.4125;-0.0084;-0.8184;-0.0390
0000085555;-1.4198;-6.4284;4.6471;0.0028;-0.7694;-0.1015
0000085563;-0.9960;-6.1603;4.6017;-0.0252;-0.7059;-0.1424
0000085571;-1.0056;-6.1316;4.7094;-0.0473;-0.6614;-0.1735
0000085579;-1.1779;-6.1004;4.6136;-0.0730;-0.6363;-0.1784
0000085587;-1.5658;-6.1962;4.8315;-0.0955;-0.6115;-0.1412
0000085595;-1.9848;-6.4404;4.8794;-0.1104;-0.6161;-0.1114
0000085603;-1.9489;-6.2537;4.6926;-0.1160;-0.6391;-0.0765
0000085611;-2.0806;-6.5074;4.8171;-0.1275;-0.6540;-0.0440
0000085619;-2.0925;-6.6080;4.9799;-0.1183;-0.6552;-0.0088
0000085627;-1.9369;-6.6702;4.9943;-0.1116;-0.6712;0.0076
0000085635;-1.6376;-6.6846;5.1164;-0.1151;-0.6635;0.0123
0000085643;-1.5227;-6.6774;5.2864;-0.1327;-0.6491;0.0108
0000085651;-1.2186;-6.7181;5.3941;-0.1446;-0.6367;0.0081
0000085659;-0.9409;-6.5338;5.4372;-0.1679;-0.6046;0.0085
0000085667;-0.6105;-6.3375;5.2625;-0.1944;-0.5669;0.0220
0000085675;-0.6369;-6.4428;5.3582;-0.2217;-0.5477;0.0377
0000085683;-0.7015;-6.6511;5.5641;-0.2455;-0.5436;0.0633
0000085691;-0.7781;-6.8211;5.8012;-0.2609;-0.5361;0.1017
0000085699;-0.7470;-7.1323;5.8849;-0.2938;-0.5261;0.1339
0000085707;-0.9361;-7.5346;6.0382;-0.2984;-0.5105;0.1664
0000085715;-1.0223;-7.4579;5.9927;-0.2996;-0.5085;0.1921
0000085723;-0.9984;-7.3837;6.1627;-0.2951;-0.4999;0.2078
0000085731;-0.6416;-7.1299;6.4308;-0.3075;-0.4940;0.1970
0000085739;-0.6273;-7.0078;6.5841;-0.3395;-0.4642;0.1518
0000085747;-0.7398;-6.9552;6.6295;-0.3511;-0.4173;0.1085
0000085755;-0.5531;-6.6655;6.5745;-0.3766;-0.3964;0.0809
0000085763;-0.7733;-6.7493;6.4835;-0.4080;-0.3962;0.0577
0000085771;-0.9720;-6.7588;6.8546;-0.4451;-0.3924;0.0525
0000085779;-0.7350;-6.8307;7.0964;-0.4766;-0.3914;0.0628
0000085787;-0.7829;-6.9408;7.0533;-0.4936;-0.3605;0.0689
0000085795;-0.6033;-7.0078;6.9216;-0.5075;-0.3299;0.0955
0000085803;-0.4621;-7.1108;6.6942;-0.4895;-0.3072;0.1387
0000085811;-0.4908;-7.2616;6.3901;-0.4489;-0.2814;0.1904
0000085819;-0.2658;-7.2616;6.1531;-0.4036;-0.2541;0.2356
0000085827;-0.0958;-6.9384;5.4731;-0.3501;-0.2325;0.2334
0000085835;0.0527;-7.0725;5.7892;-0.3112;-0.2457;0.1925
0000085843;-0.2322;-7.4484;6.1124;-0.2753;-0.2414;0.1484
0000085851;-0.0479;-7.6279;6.1723;-0.2346;-0.2246;0.1018
0000085859;-0.1077;-8.0924;6.3782;-0.1835;-0.1709;0.0834
0000085867;-0.1197;-8.5162;6.5266;-0.1224;-0.1179;0.0586
0000085875;-0.1341;-8.5880;6.3949;-0.0628;-0.0541;0.0428
0000085883;0.2682;-8.5688;6.4691;0.0072;-0.0011;0.0204
0000085891;0.3352;-8.7340;6.3039;0.0682;0.0819;0.0096
0000085899;0.4357;-8.7388;6.1052;0.1238;0.1496;-0.0269
0000085907;0.5291;-8.4683;5.5306;0.1751;0.1628;-0.0638
0000085915;0.1365;-8.0924;4.8339;0.1986;0.1788;-0.1074
0000085923;-0.3974;-8.0637;4.6807;0.2192;0.1160;-0.1629
0000085931;-1.0726;-8.1451;5.0996;0.2160;-0.0112;-0.2006
0000085939;-2.1500;-8.1786;5.9664;0.1961;-0.0817;-0.1743
0000085947;-3.0598;-8.3653;6.3446;0.1713;-0.0817;-0.1075
0000085955;-3.4931;-8.2648;6.2584;0.1335;-0.1741;-0.0671
0000085963;-3.1268;-8.1092;6.4117;0.1140;-0.2890;-0.0679
0000086049;-0.8045;-8.1283;6.2776;0.1038;-0.1046;-0.2854
0000086057;-1.1660;-8.2815;6.3231;0.1336;-0.1331;-0.3234
0000086065;-1.4006;-8.5377;6.5290;0.1697;-0.1476;-0.3397
0000086073;-1.6903;-8.5353;6.4811;0.2272;-0.1359;-0.3441
0000086081;-1.4533;-8.4946;6.7349;0.2715;-0.1310;-0.3388
0000086089;-1.2210;-8.4874;6.5457;0.3384;-0.1366;-0.3557
0000086097;-0.5339;-8.4013;6.4356;0.3905;-0.1291;-0.3882
0000086105;-0.2227;-8.5449;5.9759;0.4333;-0.0958;-0.4345
0000086113;0.2658;-8.5760;5.8275;0.4763;-0.0851;-0.4898
0000086121;0.6009;-8.6263;5.8012;0.5037;-0.0730;-0.5384
0000086129;0.4142;-8.8442;5.8299;0.5472;-0.0473;-0.5921
0000086137;0.4980;-8.5377;5.7245;0.5796;-0.0398;-0.6198
0000086145;0.2179;-8.7987;5.6000;0.6146;-0.0588;-0.6466
0000086153;-0.0766;-8.6239;5.4684;0.6515;-0.1026;-0.6941
0000086161;-0.3998;-8.4779;5.5450;0.6564;-0.1195;-0.7329
0000086169;-1.0534;-8.2097;5.9807;0.6190;-0.1584;-0.7649
0000086177;-1.4676;-7.9128;6.9887;0.5420;-0.2818;-0.7802
0000086185;-1.8651;-7.1323;7.8913;0.4189;-0.4157;-0.7811
0000086193;-2.0853;-5.9065;8.0732;0.2959;-0.4856;-0.7045
0000086201;-2.3152;-4.5729;7.5513;0.2014;-0.4760;-0.5580
0000086209;-2.4684;-3.9959;6.4548;0.1568;-0.4742;-0.3989
0000086217;-2.4708;-4.0869;5.8251;0.1065;-0.5012;-0.2547
0000086225;-2.2362;-5.3630;5.8945;0.0702;-0.5580;-0.1816
0000086233;-1.6161;-7.0150;5.6958;0.0870;-0.6891;-0.1340
0000086241;-0.8859;-8.2911;5.2792;0.1436;-0.7903;-0.0754
0000086249;-0.0622;-9.3039;5.2529;0.2164;-0.8442;-0.0232
0000086257;0.7590;-9.7300;5.4109;0.3020;-0.8516;-0.0060
0000086265;1.1301;-9.4451;5.5043;0.3657;-0.7941;-0.0385
0000086273;1.3144;-8.7843;5.5569;0.3917;-0.7490;-0.1183
0000086281;0.7518;-8.1642;5.7964;0.3865;-0.7536;-0.1901
0000086289;0.4764;-7.4316;5.9616;0.3613;-0.7830;-0.2094
0000086297;0.1077;-6.8666;6.5194;0.3215;-0.8416;-0.1812
0000086305;-0.5171;-6.1794;6.7660;0.2646;-0.8284;-0.1314
0000086313;-0.8404;-5.6192;6.5745;0.1820;-0.8030;-0.0765
0000086321;-1.4174;-5.5019;6.4045;0.0949;-0.8219;-0.0268
0000086329;-1.4389;-5.8466;6.3159;0.0228;-0.8940;0.0163
0000086337;-1.4581;-6.3135;6.3877;-0.0397;-0.9262;0.0493
0000086345;-0.8619;-6.8043;6.2417;-0.0742;-0.9803;0.0750
0000086353;-0.6273;-7.4986;6.1603;-0.0866;-1.0176;0.0949
0000086361;0.0958;-7.7213;6.0525;-0.0849;-1.0460;0.1114
0000086369;0.5219;-7.9440;6.0549;-0.0725;-1.0349;0.1279
0000086377;1.2402;-7.9057;6.0478;-0.0608;-1.0116;0.1323
0000086385;1.2210;-7.7261;6.3063;-0.0545;-0.9706;0.1370
0000086393;1.2785;-7.4723;6.3901;-0.0695;-0.9116;0.1458
0000086401;1.5850;-6.9432;6.1770;-0.0830;-0.8604;0.1571
0000086409;1.4174;-6.7109;6.1699;-0.1023;-0.8094;0.1871
0000086417;1.4533;-6.6990;6.1962;-0.1219;-0.7790;0.2097
0000086425;1.4030;-6.9073;6.2345;-0.1240;-0.7546;0.2405
0000086433;1.2641;-7.1467;6.3901;-0.1326;-0.7284;0.2747
0000086441;1.4006;-7.4268;6.2944;-0.1311;-0.7124;0.2956
0000086449;1.3192;-7.7237;6.2489;-0.1166;-0.7087;0.3135
0000086457;0.8428;-8.1882;6.3422;-0.0989;-0.6961;0.3136
0000086465;0.9553;-8.0924;6.3159;-0.0913;-0.6817;0.3060
0000086473;0.7398;-8.0685;6.5003;-0.0730;-0.6857;0.2746
0000086481;0.5866;-7.6471;6.7253;-0.0580;-0.6832;0.2172
0000086489;0.5004;-7.2305;6.8642;-0.0560;-0.6678;0.1669
0000086497;0.3591;-6.9695;7.0006;-0.0548;-0.6841;0.1096
0000086505;0.6153;-6.8474;7.1467;-0.0498;-0.7164;0.0673
0000086513;1.0223;-6.8881;7.2089;-0.0549;-0.7353;0.0589
0000086521;1.5395;-6.5218;7.1467;-0.0862;-0.7200;0.0536
0000086529;1.6161;-6.5553;7.2616;-0.1163;-0.6726;0.0562
0000086537;1.7549;-5.9975;7.3789;-0.1791;-0.6162;0.0613
0000086545;1.6807;-5.7245;7.2784;-0.2463;-0.5581;0.0469
0000086553;1.5778;-5.5593;7.3933;-0.3260;-0.5063;0.0242
0000086561;1.2785;-5.7461;7.4244;-0.3765;-0.4834;-0.0039
0000086569;1.1588;-6.2800;7.4627;-0.4038;-0.4659;0.0055
0000086577;1.2210;-6.6008;7.2425;-0.3976;-0.4686;0.0304
0000086585;1.4054;-6.9671;7.2329;-0.3709;-0.4626;0.0765
0000086593;1.4796;-7.3334;7.2951;-0.3333;-0.4594;0.1029
0000086601;1.5203;-7.5968;7.3789;-0.2975;-0.4401;0.1243
0000086609;1.9106;-7.7500;7.4316;-0.2442;-0.4155;0.1715
0000086617;1.6520;-8.0517;7.4436;-0.1816;-0.3741;0.2253
0000086708;1.7382;-7.2329;7.7381;0.0758;-0.0468;0.2289
0000086716;1.7933;-7.2640;7.8051;0.0662;-0.0218;0.2056
0000086724;2.0997;-7.4292;7.7189;0.0905;-0.0265;0.1844
0000086732;1.9201;-7.6614;7.6255;0.1186;0.0180;0.1795
0000086740;2.0518;-8.0349;7.6303;0.1799;0.0677;0.1691
0000086748;1.7933;-8.4036;7.3239;0.2372;0.1190;0.1520
0000086756;2.2553;-8.5018;7.3837;0.3174;0.1146;0.1553
0000086764;2.2218;-8.6694;7.6399;0.4116;0.1335;0.1529
0000086772;2.1763;-8.3390;7.5369;0.4660;0.1948;0.1298
0000086780;1.7621;-7.7931;7.5657;0.4722;0.2382;0.1011
0000086788;1.8675;-7.1036;7.6136;0.4738;0.2401;0.0977
0000086796;1.9010;-6.4404;7.6926;0.4479;0.2822;0.1021
0000086804;1.8268;-6.1004;7.7093;0.3805;0.3411;0.1025
0000086812;1.4581;-6.0214;7.7668;0.3352;0.3383;0.0945
0000086820;1.2474;-6.1627;7.4795;0.2835;0.3833;0.0931
0000086828;1.5490;-6.0861;7.2856;0.2297;0.3826;0.0981
0000086836;1.4653;-5.9759;7.3454;0.1960;0.3833;0.0987
0000086844;1.0558;-6.0813;7.4603;0.1568;0.4303;0.0851
0000086852;1.5610;-6.0358;7.3789;0.1423;0.4205;0.0806
0000086860;1.8196;-6.2058;7.7093;0.1472;0.4407;0.0978
0000086868;1.6065;-6.3662;7.6686;0.1632;0.4572;0.1266
0000086876;1.6712;-6.5434;7.6423;0.1935;0.5069;0.1494
0000086884;1.4461;-7.0030;7.5465;0.2482;0.5435;0.1795
0000086892;1.0247;-7.2472;7.5154;0.3015;0.5549;0.1966
0000086900;0.6081;-7.1180;7.5034;0.3280;0.5790;0.1955
0000086908;0.5100;-6.8067;7.2377;0.3487;0.5566;0.2132
0000086916;0.5650;-6.1076;7.4986;0.3379;0.5614;0.2213
0000086924;0.5387;-5.6216;7.3526;0.3007;0.5955;0.2326
0000086932;0.6369;-5.2289;7.3550;0.2681;0.6058;0.2582
0000086940;0.9625;-5.2146;7.3717;0.2344;0.6191;0.2641
0000086948;1.2474;-5.3463;7.2568;0.2097;0.6468;0.2615
0000086956;1.4964;-5.6216;7.0294;0.1845;0.6839;0.2511
0000086964;1.6400;-5.9664;7.1299;0.1685;0.7496;0.2090
0000086972;1.5778;-6.3255;7.0078;0.1819;0.7767;0.1551
0000086980;1.3096;-6.3135;6.9671;0.1891;0.8491;0.1130
0000086988;0.5028;-6.3518;6.7900;0.1871;0.9074;0.0738
0000086996;0.1604;-6.1770;6.8761;0.1919;0.8881;0.0187
0000087004;0.2945;-6.1076;6.8618;0.1732;0.8992;-0.0156
0000087012;0.3065;-6.3973;6.7660;0.1639;0.9044;-0.0457
0000087020;0.4549;-6.5338;6.6176;0.1288;0.9221;-0.0877
0000087028;0.8021;-6.4045;6.5122;0.0903;0.9573;-0.1143
0000087036;0.8260;-6.5936;6.6798;0.0462;1.0248;-0.1478
0000087044;1.0942;-6.5960;6.3877;0.0572;1.0152;-0.1675
0000087052;0.8882;-6.9623;6.4236;0.0545;1.0648;-0.1820
0000087060;1.1133;-7.1587;6.3662;0.0581;1.1173;-0.2132
0000087068;0.8667;-7.4531;6.0478;0.0791;1.1692;-0.2565
0000087076;0.2274;-7.8171;5.8131;0.0842;1.2105;-0.2910
0000087084;0.2993;-8.1092;6.1531;0.1260;1.2384;-0.3194
0000087092;-0.2394;-7.9224;6.0693;0.1657;1.2681;-0.3379
0000087100;-0.4022;-7.2688;5.8730;0.1724;1.2859;-0.3565
0000087108;-0.4310;-6.7612;5.8251;0.1781;1.2832;-0.3745
0000087116;-0.2993;-6.2824;5.9185;0.1639;1.3324;-0.3889
0000087124;-0.1317;-6.2848;5.8203;0.1620;1.3514;-0.4018
0000087132;-0.4022;-6.4811;5.6072;0.1680;1.3840;-0.3988
0000087140;-0.5722;-6.5314;5.5306;0.1648;1.4001;-0.3933
0000087148;-0.7685;-6.6295;5.7197;0.1687;1.4194;-0.3878
0000087156;-1.0247;-6.7540;5.8586;0.1791;1.4454;-0.3804
0000087164;-1.5012;-6.6104;5.7628;0.1937;1.4564;-0.3750
0000087172;-1.6328;-6.3949;5.8610;0.2065;1.4518;-0.3604
0000087180;-1.8962;-6.2082;5.8131;0.2004;1.4639;-0.3343
0000087188;-2.0973;-6.0406;5.9017;0.1941;1.4610;-0.3075
0000087196;-2.1931;-5.7461;5.9233;0.1808;1.4396;-0.2920
0000087204;-2.2314;-5.5713;6.0166;0.1597;1.4282;-0.2527
0000087212;-2.3535;-5.5689;5.9927;0.1372;1.4228;-0.2181
0000087220;-2.3727;-5.5282;6.0382;0.1156;1.4210;-0.1767
0000087228;-2.5857;-5.7078;5.8754;0.1120;1.4097;-0.1380
0000087236;-2.7294;-5.9568;5.8897;0.1152;1.3999;-0.1041
0000087244;-2.5857;-6.0023;5.8897;0.1224;1.3868;-0.0695
0000087252;-2.6911;-6.1004;5.6623;0.1148;1.3987;-0.0386
0000087260;-2.9928;-5.9280;5.5833;0.1088;1.4053;-0.0208
0000087268;-3.1747;-5.5043;5.6503;0.0783;1.4032;0.0027
0000087276;-3.3303;-5.1906;5.6336;0.0498;1.3936;0.0112
0000087285;-3.4692;-5.0853;5.4324;0.0132;1.3837;0.0132
0000087373;-4.0151;-6.2824;4.5490;-0.1623;1.2873;-0.1478
0000087382;-3.9983;-6.6152;4.1420;-0.1443;1.2720;-0.1645
0000087391;-3.6775;-6.9049;4.1156;-0.1198;1.2561;-0.1705
0000087400;-3.7158;-7.0509;3.9935;-0.0981;1.2600;-0.1619
0000087409;-3.5913;-6.8833;3.7852;-0.0670;1.2592;-0.1684
0000087418;-3.6416;-6.7229;3.5769;-0.0530;1.2593;-0.1673
0000087427;-3.5003;-6.4643;3.4812;-0.0446;1.2609;-0.1880
0000087436;-3.5267;-6.5625;3.3279;-0.0425;1.2606;-0.2105
0000087445;-3.4812;-6.6224;3.0598;-0.0570;1.2694;-0.2341
0000087454;-3.2513;-6.1196;2.9113;-0.0678;1.2879;-0.2702
0000087463;-3.3662;-6.2680;2.8084;-0.1005;1.3079;-0.2960
0000087472;-3.3016;-6.2201;2.6480;-0.1126;1.3165;-0.3254
0000087481;-3.1053;-6.0597;2.4780;-0.1300;1.3237;-0.3604
0000087490;-3.3112;-6.2321;2.2146;-0.1520;1.3378;-0.4104
0000087499;-3.4788;-6.1244;1.9776;-0.1755;1.3459;-0.4435
0000087508;-3.5267;-5.8131;1.6855;-0.2028;1.3745;-0.4695
0000087517;-4.3359;-5.5162;0.9960;-0.2514;1.4005;-0.4784
0000087526;-5.0949;-4.9105;0.9170;-0.2863;1.4229;-0.4763
0000087535;-5.8131;-5.3439;1.8651;-0.3030;1.4386;-0.4714
0000087544;-5.3486;-6.0214;1.8794;-0.2886;1.3471;-0.4062
0000087553;-4.8459;-6.8091;0.5746;-0.2950;1.2512;-0.3325
0000087562;-3.8283;-7.2185;0.2682;-0.3080;1.1884;-0.2521
0000087571;-3.0430;-7.4603;0.3639;-0.3074;1.1855;-0.1908
0000087580;-2.7533;-7.7668;0.5770;-0.3023;1.2521;-0.1435
0000087589;-2.8347;-7.7117;0.1987;-0.2890;1.3575;-0.1239
0000087598;-3.3567;-7.7237;0.4310;-0.2932;1.4691;-0.1259
0000087607;-4.0510;-7.7117;0.3926;-0.2730;1.4975;-0.1729
0000087616;-4.4580;-7.6662;0.4405;-0.2630;1.4474;-0.2276
0000087625;-4.9129;-7.7524;0.4381;-0.2482;1.3853;-0.2964
0000087634;-4.5633;-7.7045;0.6752;-0.2491;1.3069;-0.3740
0000087643;-4.0606;-7.6662;0.5914;-0.2561;1.2685;-0.4271
0000087652;-3.8547;-7.9224;0.4477;-0.2718;1.3190;-0.4250
0000087661;-4.0151;-7.9559;0.1221;-0.2876;1.4127;-0.3640
0000087670;-4.7214;-7.6806;-0.8428;-0.3659;1.5275;-0.2697
0000087679;-5.7581;-7.1658;-0.8068;-0.4425;1.6385;-0.1218
0000087688;-6.9695;-6.7876;-0.3017;-0.4466;1.5793;-0.0601
0000087697;-7.7165;-6.9216;0.7135;-0.4005;1.4004;-0.1123
0000087706;-7.7045;-6.9528;0.6823;-0.3837;1.1971;-0.2334
0000087715;-6.5697;-7.2401;0.2921;-0.3435;1.0424;-0.3092
0000087724;-4.5681;-6.8785;-0.3184;-0.3335;0.7436;-0.5641
0000087733;-3.1077;-6.2656;-0.5028;-0.4026;0.6037;-0.8491
0000087742;-3.4069;-6.7995;-0.7302;-0.5223;0.8517;-0.8358
0000087751;-3.7828;-7.1299;-1.0846;-0.5518;1.1193;-0.6956
0000087760;-4.8052;-7.7213;-1.1947;-0.6614;1.1437;-0.6324
0000087769;-5.5976;-9.1075;-0.8835;-0.6310;1.1727;-0.5128
0000087778;-6.1004;-9.2512;-1.5395;-0.6302;1.0497;-0.3989
0000087787;-6.2680;-9.3111;-1.4844;-0.5796;0.8394;-0.3946
0000087796;-5.5569;-9.4068;-1.0894;-0.5427;0.7100;-0.4338
0000087805;-4.8818;-9.1123;-1.0798;-0.5161;0.6305;-0.4871
0000087814;-4.1132;-8.9064;-1.1133;-0.5108;0.6150;-0.4962
0000087823;-3.7206;-8.9783;-1.2737;-0.5023;0.5935;-0.5135
0000087832;-3.5841;-8.9663;-1.2929;-0.5165;0.5838;-0.5396
0000087841;-3.0742;-8.9352;-1.3575;-0.5196;0.5746;-0.5525
0000087850;-2.7940;-8.6790;-1.6448;-0.5291;0.5994;-0.5536
0000087859;-3.0023;-8.5593;-2.2146;-0.5319;0.6263;-0.5525
0000087868;-2.8802;-8.1977;-2.8371;-0.5192;0.6664;-0.5309
0000087877;-3.1220;-8.4539;-2.7653;-0.5348;0.7056;-0.4904
0000087886;-3.3040;-8.7700;-2.7821;-0.5145;0.7294;-0.4462
0000087895;-3.5195;-9.3948;-2.9904;-0.4740;0.7264;-0.3777
0000087904;-3.9552;-9.7396;-2.7174;-0.4094;0.6879;-0.3226
0000087913;-4.0941;-10.0628;-2.5738;-0.3527;0.6181;-0.2827
0000087922;-3.6200;-9.8641;-3.0670;-0.3119;0.5176;-0.2847
0000087931;-3.1771;-9.6798;-3.2944;-0.3111;0.4547;-0.2948
0000087940;-2.4325;-9.1578;-3.2465;-0.3060;0.4271;-0.3022
0000087949;-1.7861;-8.5976;-3.2489;-0.3171;0.4394;-0.3130
0000087958;-1.5395;-8.5449;-3.3399;-0.3110;0.4703;-0.3283
0000087967;-1.2450;-8.5138;-3.5362;-0.3208;0.5291;-0.3391
0000087976;-1.4437;-8.6910;-3.6727;-0.2939;0.5612;-0.3617
0000087985;-1.5850;-8.8226;-3.7278;-0.2438;0.5752;-0.3813
0000087994;-2.0063;-9.2177;-3.5554;-0.1867;0.5582;-0.4066
0000088081;-1.6376;-8.3462;-3.5626;0.0033;0.1131;-0.6387
0000088090;-1.6831;-8.7628;-3.7757;0.0518;0.0921;-0.5721
0000088099;-1.7669;-9.2296;-3.7493;0.0807;0.0597;-0.4972
0000088108;-1.9632;-9.6798;-4.1276;0.1394;0.0093;-0.4329
0000088117;-1.6520;-9.6606;-4.4460;0.1848;-0.0364;-0.3336
0000088126;-1.8603;-10.4267;-4.3527;0.1992;-0.0963;-0.2088
0000088135;-1.4988;-9.7061;-4.2545;0.2056;-0.0985;-0.0838
0000088144;-0.8643;-9.9264;-3.9433;0.1920;-0.0929;0.0417
0000088153;-1.1923;-9.3661;-4.0079;0.1475;-0.0757;0.1576
0000088162;-1.8124;-8.8921;-3.7948;0.0436;0.0312;0.1637
0000088171;-2.5474;-8.9735;-3.7541;-0.0819;0.1560;0.0981
0000088180;-3.2825;-9.2895;-4.0534;-0.2000;0.2113;-0.0405
0000088189;-5.0326;-10.1466;-4.8818;-0.4129;0.3780;-0.1415
0000088198;-6.9528;-11.0301;-6.2872;-0.7233;0.6821;-0.2065
0000088207;-9.0740;-11.4563;-7.0174;-0.9286;0.9149;-0.1472
0000088216;-11.0636;-11.5496;-5.7030;-0.8296;0.7795;0.1328
0000088225;-11.5927;-11.5017;-3.5291;-0.4666;0.3159;0.4415
0000088234;-10.7931;-11.9159;-3.0215;-0.1147;-0.1232;0.5636
0000088243;-8.6694;-12.3661;-4.0223;0.0645;-0.4628;0.4275
0000088252;-5.5689;-12.4738;-4.3910;0.1725;-0.7518;0.2835
0000088261;-2.8491;-12.1649;-3.7900;0.2667;-0.8127;0.2990
0000088270;-1.0750;-11.4994;-3.3016;0.3287;-0.6844;0.4389
0000088279;0.0742;-9.8282;-3.1819;0.3321;-0.5187;0.5506
0000088288;0.1460;-7.9679;-3.2010;0.2246;-0.3886;0.5661
0000088297;-0.0718;-6.2010;-3.4309;0.0264;-0.3131;0.4983
0000088306;-0.5315;-5.0446;-2.9281;-0.1958;-0.2407;0.3764
0000088315;-1.0918;-4.9201;-2.2865;-0.3672;-0.1707;0.2856
0000088324;-1.7693;-5.3463;-2.1859;-0.4639;-0.1471;0.2979
0000088333;-2.2745;-6.1794;-2.4636;-0.5260;-0.1557;0.3632
0000088342;-2.3798;-7.7213;-3.2370;-0.5901;-0.1792;0.3920
0000088351;-2.2146;-9.0237;-3.3399;-0.6306;-0.2064;0.4004
0000088360;-2.0853;-9.4284;-3.5386;-0.6424;-0.1585;0.4214
0000088369;-2.0997;-9.3853;-3.7445;-0.6143;-0.0995;0.4477
0000088378;-2.6791;-8.9136;-3.6224;-0.5626;-0.0557;0.4628
0000088387;-3.2848;-8.2720;-3.4955;-0.5175;-0.0683;0.4433
0000088396;-3.6655;-7.9392;-3.5362;-0.5072;-0.1191;0.4117
0000088405;-3.9624;-7.9440;-3.3758;-0.5055;-0.1873;0.3980
0000088414;-4.0366;-7.7572;-2.9568;-0.5104;-0.2395;0.4239
0000088423;-3.9145;-7.4268;-2.8659;-0.5080;-0.3096;0.4764
0000088432;-3.9720;-7.2496;-3.0478;-0.5052;-0.3624;0.5149
0000088441;-3.8283;-7.0701;-2.9736;-0.5080;-0.4064;0.5303
0000088450;-3.5817;-7.1443;-3.4668;-0.5197;-0.4066;0.5533
0000088459;-3.6200;-7.4268;-3.7397;-0.5105;-0.3977;0.5689
0000088468;-3.7158;-7.8219;-3.9504;-0.5060;-0.4057;0.5872
0000088477;-3.4812;-8.2552;-4.1683;-0.4875;-0.4353;0.5894
0000088486;-3.2968;-8.6862;-4.2760;-0.4461;-0.4346;0.6011
0000088495;-3.2082;-8.9328;-4.5777;-0.3802;-0.4367;0.6219
0000088504;-2.7988;-8.9902;-4.8411;-0.3003;-0.4469;0.6467
0000088513;-2.8635;-9.1961;-5.0206;-0.2435;-0.4433;0.6650
0000088522;-2.8108;-9.3853;-5.0901;-0.1700;-0.4419;0.6804
0000088531;-2.9904;-9.5744;-4.8100;-0.1162;-0.4073;0.7132
0000088540;-2.8228;-9.2847;-5.0470;-0.0242;-0.4382;0.7556
0000088549;-3.0430;-8.9591;-5.1020;0.0416;-0.4870;0.8064
0000088558;-3.3327;-8.7915;-4.7381;0.0659;-0.5644;0.8282
0000088567;-3.6248;-8.5641;-4.4125;0.0564;-0.6303;0.8435
0000088576;-3.5314;-8.1044;-4.1396;0.0629;-0.6947;0.8945
0000088585;-3.5195;-7.8219;-4.3096;0.0687;-0.7388;0.9651
0000088594;-3.4500;-7.6614;-4.4412;0.0850;-0.7917;1.0007
0000088603;-3.3926;-7.7668;-4.3503;0.1160;-0.8025;1.0144
0000088612;-3.1388;-7.9655;-3.9480;0.1740;-0.8037;1.0257
0000088621;-2.9066;-8.2600;-3.3902;0.2138;-0.7985;0.9938
0000088630;-2.8587;-8.3989;-2.6815;0.2220;-0.8002;0.9206
0000088639;-2.7653;-8.2863;-2.5426;0.2454;-0.8330;0.8607
0000088648;-2.5594;-7.6758;-2.3703;0.2559;-0.8672;0.8600
0000088657;-2.8443;-7.0318;-2.0518;0.2509;-0.8792;0.8452
0000088666;-3.2609;-6.5553;-1.1851;0.1824;-0.7969;0.8343
0000088675;-3.7326;-6.0454;-0.5363;0.1055;-0.6895;0.7909
0000088684;-4.3407;-5.6431;-0.2203;0.0426;-0.6103;0.7679
0000088693;-5.0111;-5.1787;0.1532;0.0356;-0.5893;0.7646
0000088702;-5.3127;-4.9488;0.3017;0.0846;-0.5661;0.7699
0000088789;-2.8012;-3.4860;-0.4812;0.0542;-0.7226;0.7781
0000088798;-3.0646;-3.7014;-1.0127;0.0313;-0.6801;0.7615
0000088807;-3.1532;-4.1563;-0.9936;0.0177;-0.6487;0.7100
0000088816;-3.0478;-4.1994;-0.7063;0.0249;-0.6042;0.6801
0000088825;-2.8156;-4.7309;-0.8188;0.0602;-0.5677;0.6716
0000088834;-2.8204;-5.0111;-1.3791;0.1065;-0.5389;0.6710
0000088843;-2.9592;-5.1475;-1.7957;0.1346;-0.5301;0.6736
0000088852;-3.0430;-5.1571;-1.7502;0.1427;-0.5577;0.6448
0000088861;-3.0694;-5.0087;-1.4700;0.1447;-0.5633;0.5955
0000088870;-3.1675;-4.7860;-1.4389;0.1258;-0.5341;0.5656
0000088879;-3.0406;-4.1731;-1.3096;0.1087;-0.5280;0.5600
0000088888;-3.4022;-4.0869;-1.2402;0.0689;-0.5055;0.5657
0000088897;-3.4022;-3.6895;-1.0199;0.0301;-0.4904;0.5369
0000088906;-3.6847;-3.5458;-1.0870;-0.0204;-0.4687;0.4911
0000088915;-3.5937;-3.6966;-1.2594;-0.0839;-0.4443;0.4431
0000088924;-3.8211;-3.8451;-1.0056;-0.1475;-0.4357;0.4120
0000088933;-4.0486;-4.2593;-0.8045;-0.2025;-0.4486;0.4034
0000088942;-4.1061;-4.2904;-0.5626;-0.2314;-0.4900;0.4125
0000088951;-4.0486;-4.2306;-0.5435;-0.2699;-0.5051;0.4390
0000088960;-3.7996;-4.0031;-0.7063;-0.2944;-0.5171;0.4394
0000088969;-3.4668;-4.0534;-0.7877;-0.3162;-0.4855;0.4453
0000088978;-3.3303;-4.2401;-0.9074;-0.3166;-0.4529;0.4413
0000088987;-3.0789;-4.4604;-0.9457;-0.3088;-0.4076;0.4343
0000088996;-2.8108;-4.5370;-0.8547;-0.2954;-0.3683;0.4202
0000089005;-3.0335;-4.6495;-0.4238;-0.2721;-0.3243;0.4002
0000089014;-2.9975;-4.6495;-0.3543;-0.2374;-0.3035;0.3652
0000089023;-3.0071;-4.5921;-0.3591;-0.2000;-0.3084;0.3391
0000089032;-2.8012;-4.7094;-0.3950;-0.1502;-0.3094;0.2939
0000089041;-2.7438;-4.7309;-0.3280;-0.1103;-0.2747;0.2543
0000089050;-2.6240;-5.0494;-0.2610;-0.0657;-0.2682;0.2145
0000089059;-2.7725;-5.1164;-0.0910;-0.0368;-0.2318;0.1719
0000089068;-2.7916;-5.2241;-0.1053;-0.0285;-0.2049;0.1555
0000089077;-3.1316;-5.1020;-0.0407;-0.0043;-0.1869;0.1502
0000089086;-3.3806;-4.7309;0.0024;0.0065;-0.1783;0.1744
0000089095;-3.6296;-4.4628;0.0335;0.0128;-0.2001;0.2124
0000089104;-3.5362;-4.1994;0.1030;0.0204;-0.2290;0.2467
0000089113;-3.4907;-4.0151;0.1867;0.0064;-0.2434;0.2471
0000089122;-3.5410;-3.9600;0.2083;-0.0203;-0.2332;0.2481
0000089131;-3.3734;-3.6655;0.3831;-0.0409;-0.2611;0.2410
0000089140;-3.2944;-3.6368;0.4166;-0.0679;-0.2769;0.2418
0000089149;-3.0430;-3.3279;0.5267;-0.0941;-0.2774;0.2340
0000089158;-2.9305;-3.3591;0.6823;-0.1290;-0.2613;0.2233
0000089167;-2.6887;-3.2561;0.5746;-0.1592;-0.2076;0.2266
0000089176;-2.7078;-3.2489;0.7470;-0.1697;-0.1817;0.2076
0000089185;-2.8898;-3.0813;0.6871;-0.1641;-0.1486;0.1783
0000089194;-2.8970;-3.5314;0.5004;-0.1529;-0.1567;0.1326
0000089203;-2.7174;-3.8786;0.3807;-0.1260;-0.1725;0.0821
0000089212;-2.8347;-4.3024;0.3089;-0.0798;-0.1787;0.0392
0000089221;-2.7869;-4.4915;0.3184;-0.0242;-0.1720;0.0020
0000089230;-2.8778;-4.4915;0.2873;0.0274;-0.1628;-0.0297
0000089239;-2.9808;-4.6687;0.4142;0.0781;-0.1563;-0.0408
0000089248;-3.0765;-4.2306;0.4262;0.1227;-0.1717;-0.0586
0000089257;-3.1795;-4.1204;0.4477;0.1479;-0.1735;-0.0492
0000089266;-3.1603;-3.9217;0.3783;0.1732;-0.1864;-0.0494
0000089275;-3.1819;-3.4860;0.3160;0.1821;-0.1937;-0.0450
0000089284;-3.1388;-3.2848;0.4932;0.1978;-0.2029;-0.0533
0000089293;-2.9856;-3.1891;0.4932;0.1915;-0.1933;-0.0751
0000089302;-2.9090;-3.4213;0.4717;0.1833;-0.1827;-0.0983
0000089311;-2.7270;-3.4716;0.5722;0.1751;-0.1553;-0.1127
0000089320;-2.5594;-3.6200;0.3879;0.1720;-0.1252;-0.1160
0000089329;-2.2697;-3.6105;0.5650;0.1595;-0.0769;-0.1168
0000089338;-2.3415;-3.6392;0.5483;0.1545;-0.0320;-0.1147
0000089347;-2.4780;-3.7541;0.5171;0.1388;0.0124;-0.1054
0000089356;-2.5115;-3.8259;0.4357;0.1310;0.0425;-0.0830
0000089365;-2.9784;-3.5195;0.4190;0.1214;0.0558;-0.0837
0000089374;-2.8443;-3.4285;0.4788;0.1050;0.0781;-0.0875
0000089383;-2.8683;-3.3375;0.5411;0.0838;0.0959;-0.0965
0000089392;-3.1723;-3.5291;0.4286;0.0658;0.1001;-0.1148
0000089401;-3.1125;-3.6344;0.3017;0.0560;0.0926;-0.1274
0000089410;-3.3184;-3.6559;0.2658;0.0310;0.1059;-0.1275
0000089551;-3.4955;-4.0510;-0.1628;-0.1791;0.0556;-0.2946
0000089560;-3.5267;-4.1037;-0.0622;-0.1952;0.0532;-0.2923
0000089569;-3.5817;-4.0677;-0.1030;-0.2017;0.0400;-0.2955
0000089578;-3.6224;-4.0654;-0.2131;-0.2017;0.0238;-0.2920
0000089587;-3.7373;-4.2665;-0.1269;-0.2068;0.0165;-0.3054
0000089596;-3.6655;-4.3742;-0.0886;-0.2160;0.0060;-0.3071
0000089605;-3.5458;-4.5562;-0.0431;-0.2038;-0.0012;-0.3147
0000089614;-3.6272;-4.6711;-0.0718;-0.1989;-0.0077;-0.3054
0000089623;-3.4931;-4.8339;-0.0910;-0.1978;-0.0250;-0.3080
0000089632;-3.4836;-4.8435;-0.2370;-0.1869;-0.0222;-0.3039
0000089641;-3.5243;-4.8483;-0.2801;-0.1791;-0.0240;-0.2960
0000089650;-3.4644;-4.6950;-0.1269;-0.1636;-0.0316;-0.2904
0000089659;-3.5314;-4.8004;-0.0766;-0.1580;-0.0268;-0.2918
0000089668;-3.3734;-4.6400;-0.1867;-0.1508;-0.0332;-0.2954
0000089677;-3.3160;-4.8100;-0.2993;-0.1576;-0.0289;-0.2757
0000089686;-3.5698;-5.0063;-0.2969;-0.1589;-0.0258;-0.2598
0000089695;-3.4429;-4.8985;-0.1604;-0.1455;-0.0161;-0.2312
0000089704;-3.3615;-4.7669;-0.1293;-0.1339;0.0004;-0.2050
0000089713;-3.3758;-4.9153;-0.0742;-0.1227;0.0061;-0.1936
0000089722;-3.4692;-5.1380;0.0144;-0.0913;0.0107;-0.1993
0000089731;-3.3232;-5.2936;-0.0766;-0.0641;0.0286;-0.1833
0000089740;-3.5769;-5.6910;0.0742;-0.0242;0.0300;-0.1816
0000089749;-3.6536;-5.7197;0.1006;0.0123;0.0402;-0.1615
0000089758;-3.8930;-5.8107;0.0910;0.0546;0.0225;-0.1544
0000089767;-3.7804;-5.6336;0.1987;0.0930;-0.0047;-0.1510
0000089776;-3.8571;-5.7389;0.1437;0.1156;-0.0135;-0.1464
0000089785;-3.7565;-5.4971;0.1030;0.1379;-0.0177;-0.1327
0000089794;-3.4405;-5.2720;0.1676;0.1616;-0.0310;-0.1338
0000089803;-3.3423;-5.2122;0.1413;0.1752;-0.0302;-0.1326
0000089812;-3.4620;-5.2433;0.1460;0.1733;-0.0220;-0.1295
0000089821;-3.3950;-5.2553;0.0622;0.1703;-0.0165;-0.1363
0000089830;-3.2920;-5.1044;0.0527;0.1641;-0.0083;-0.1324
0000089839;-3.3854;-5.1930;0.0120;0.1537;-0.0029;-0.1367
0000089848;-3.3351;-5.0422;0.0407;0.1360;0.0067;-0.1356
0000089857;-3.4620;-5.1930;-0.0144;0.1258;0.0080;-0.1452
0000089866;-3.4165;-4.8698;0.0838;0.1041;0.0128;-0.1451
0000089875;-3.5123;-4.9368;-0.0575;0.0958;0.0099;-0.1436
0000089884;-3.4955;-4.8387;-0.0934;0.0874;0.0132;-0.1438
0000089893;-3.5123;-5.0063;-0.1293;0.0718;0.0167;-0.1406
0000089902;-3.5267;-4.9488;-0.1365;0.0624;0.0195;-0.1436
0000089911;-3.4117;-4.7836;-0.1077;0.0490;0.0265;-0.1478
0000089920;-3.3591;-4.7214;-0.1844;0.0381;0.0278;-0.1532
0000089929;-3.4812;-4.7549;-0.0335;0.0296;0.0406;-0.1471
0000089938;-3.4620;-4.7597;-0.0479;0.0293;0.0396;-0.1498
0000089947;-3.4333;-4.6519;-0.2873;0.0240;0.0380;-0.1508
0000089956;-3.6176;-4.8028;-0.1269;0.0129;0.0382;-0.1383
0000089965;-3.5386;-4.7405;-0.0886;0.0084;0.0392;-0.1370
0000089974;-3.5482;-4.7046;-0.1365;0.0103;0.0330;-0.1343
0000089983;-3.5338;-4.6687;-0.1460;-0.0035;0.0333;-0.1303
0000089992;-3.4572;-4.5633;-0.1748;-0.0115;0.0408;-0.1218
0000090001;-3.5075;-4.7262;-0.1963;-0.0248;0.0429;-0.1170
0000090010;-3.6272;-4.8052;-0.1772;-0.0325;0.0476;-0.1187
0000090019;-3.4716;-4.7716;-0.1508;-0.0484;0.0530;-0.1164
0000090028;-3.4165;-4.7573;-0.2562;-0.0518;0.0494;-0.1182
0000090037;-3.4788;-5.0374;-0.1748;-0.0598;0.0553;-0.1142
0000090046;-3.5889;-5.1380;-0.1460;-0.0632;0.0561;-0.1062
0000090055;-3.4381;-5.0254;-0.2418;-0.0634;0.0465;-0.1114
0000090064;-3.5027;-5.1068;-0.2801;-0.0658;0.0509;-0.1031
0000090073;-3.6009;-5.3439;-0.2394;-0.0641;0.0504;-0.1031
0000090082;-3.7350;-5.4803;-0.2634;-0.0606;0.0480;-0.1046
0000090091;-3.4429;-5.3630;-0.2227;-0.0667;0.0505;-0.1030
0000090100;-3.6152;-5.3893;-0.2825;-0.0654;0.0562;-0.1006
0000090109;-3.6823;-5.4588;-0.3519;-0.0645;0.0488;-0.1019
0000090118;-3.4524;-5.3319;-0.2490;-0.0602;0.0450;-0.1007
0000090127;-3.5674;-5.4109;-0.2634;-0.0544;0.0517;-0.0913
0000090136;-3.4955;-5.4420;-0.2825;-0.0517;0.0522;-0.0793
0000090145;-3.5027;-5.5234;-0.3448;-0.0489;0.0494;-0.0794
0000090154;-3.4189;-5.4253;-0.3065;-0.0381;0.0481;-0.0818
0000090163;-3.4405;-5.4923;-0.3256;-0.0377;0.0630;-0.0767
0000090172;-3.4668;-5.4348;-0.3831;-0.0224;0.0489;-0.0799
0000090260;-3.4357;-5.2289;-0.2969;0.0233;0.0147;-0.0585
0000090269;-3.5195;-5.3846;-0.4118;0.0301;0.0171;-0.0628
0000090278;-3.5099;-5.3486;-0.2897;0.0264;0.0127;-0.0723
0000090287;-3.6272;-5.4229;-0.4334;0.0257;0.0244;-0.0644
0000090296;-3.6966;-5.3343;-0.3328;0.0224;0.0284;-0.0545
0000090305;-3.7254;-5.4468;-0.3280;0.0222;0.0280;-0.0541
0000090314;-3.6536;-5.4085;-0.3424;0.0185;0.0304;-0.0514
0000090323;-3.4381;-5.2337;-0.3639;0.0136;0.0269;-0.0546
0000090332;-3.4165;-5.3127;-0.3472;0.0168;0.0171;-0.0628
0000090341;-3.7014;-5.4923;-0.3903;0.0129;0.0320;-0.0501
0000090350;-3.5985;-5.3822;-0.3711;0.0192;0.0262;-0.0432
0000090359;-3.6512;-5.3463;-0.3639;0.0147;0.0325;-0.0382
0000090368;-3.5650;-5.3032;-0.4118;0.0116;0.0313;-0.0354
0000090377;-3.5626;-5.3367;-0.4310;0.0071;0.0242;-0.0336
0000090386;-3.4931;-5.3247;-0.4046;0.0044;0.0213;-0.0328
0000090395;-3.4692;-5.2720;-0.3807;0.0119;0.0109;-0.0350
0000090404;-3.6152;-5.3702;-0.3879;-0.0005;0.0316;-0.0197
0000090413;-3.6799;-5.4037;-0.5028;-0.0019;0.0215;-0.0104
0000090422;-3.5051;-5.2361;-0.4860;-0.0013;0.0080;-0.0173
0000090431;-3.6129;-5.3965;-0.4741;-0.0053;0.0167;-0.0233
0000090440;-3.3160;-5.1595;-0.4717;-0.0125;0.0229;-0.0139
0000090449;-3.6655;-5.4636;-0.5148;-0.0208;0.0201;-0.0137
0000090458;-3.5913;-5.3175;-0.5148;-0.0161;0.0081;-0.0080
0000090467;-3.6488;-5.2409;-0.5818;-0.0180;0.0029;-0.0117
0000090476;-3.7900;-5.4684;-0.5243;-0.0213;0.0109;-0.0045
0000090485;-3.5602;-5.3510;-0.5698;-0.0209;-0.0029;-0.0253
0000090494;-3.6655;-5.3558;-0.5650;-0.0226;0.0112;-0.0137
0000090503;-3.6129;-5.3008;-0.6512;-0.0270;0.0103;-0.0056
0000090512;-3.5099;-5.3486;-0.5722;-0.0282;-0.0048;-0.0073
0000090521;-3.4788;-5.3678;-0.5267;-0.0277;-0.0033;-0.0099
0000090530;-3.4668;-5.3247;-0.6153;-0.0306;-0.0001;-0.0107
0000090539;-3.6440;-5.5138;-0.5483;-0.0228;0.0073;-0.0148
0000090548;-3.6727;-5.3774;-0.5842;-0.0177;0.0040;-0.0085
0000090557;-3.5865;-5.3606;-0.5938;-0.0242;0.0039;-0.0044
0000090566;-3.5961;-5.3175;-0.5842;-0.0203;-0.0005;-0.0072
0000090575;-3.6272;-5.3893;-0.4693;-0.0213;-0.0035;-0.0071
0000090584;-3.6536;-5.2409;-0.5243;-0.0172;-0.0161;-0.0147
0000090593;-3.6847;-5.5067;-0.4908;-0.0207;-0.0071;-0.0052
0000090602;-3.6009;-5.3893;-0.5674;-0.0196;-0.0179;-0.0053
0000090611;-3.6057;-5.2170;-0.4956;-0.0180;-0.0249;0.0007
0000090620;-3.7182;-5.4779;-0.5938;-0.0187;-0.0240;-0.0007
0000090629;-3.6248;-5.3941;-0.5339;-0.0127;-0.0253;-0.0016
0000090638;-3.5075;-5.4181;-0.5387;-0.0161;-0.0236;-0.0001
0000090647;-3.6559;-5.3391;-0.5387;-0.0093;-0.0332;-0.0045
0000090656;-3.6727;-5.5522;-0.5674;-0.0179;-0.0229;-0.0004
0000090665;-3.4740;-5.2457;-0.5914;-0.0120;-0.0308;-0.0023
0000090672;-3.5530;-5.3534;-0.5818;-0.0085;-0.0325;-0.0036
0000090680;-3.5075;-5.2912;-0.4717;-0.0103;-0.0328;0.0028
0000090688;-3.5913;-5.4061;-0.5531;-0.0108;-0.0301;-0.0001
0000090696;-3.5075;-5.2481;-0.5219;-0.0093;-0.0261;0.0065
0000090704;-3.7206;-5.3822;-0.6009;-0.0127;-0.0213;0.0085
0000090712;-3.6033;-5.2481;-0.5962;-0.0109;-0.0273;0.0096
0000090720;-3.7948;-5.3774;-0.5076;-0.0161;-0.0272;0.0092
0000090728;-3.5219;-5.2720;-0.5267;-0.0120;-0.0300;0.0055
