time;acc_x;acc_y;acc_z;gyro_x;gyro_y;gyro_z
0000206193;6.2872;-14.1809;5.8682;-0.0087;0.3878;-0.2296
0000206201;5.9735;-13.9079;5.7724;0.0059;0.4163;-0.2831
0000206208;5.5162;-13.9271;5.6623;0.0340;0.4387;-0.3079
0000206216;5.0613;-13.9941;5.5737;0.0288;0.4505;-0.3180
0000206225;4.7309;-13.8050;5.5785;0.0284;0.4515;-0.3208
0000206233;4.7740;-13.6948;5.6024;0.0212;0.4427;-0.3292
0000206245;4.7645;-13.8648;5.5737;0.0302;0.4128;-0.3355
0000206253;4.5083;-14.1378;5.5976;0.0366;0.3942;-0.3429
0000206261;4.5921;-13.9989;5.5785;0.0349;0.3784;-0.3437
0000206272;4.9033;-13.9630;5.5545;0.0326;0.3611;-0.3395
0000206280;4.8243;-14.2024;5.6120;0.0437;0.3456;-0.3335
0000206292;5.0709;-14.1162;5.4875;0.0661;0.3321;-0.3320
0000206300;4.9249;-14.1210;5.4253;0.0718;0.3276;-0.3222
0000206311;4.9584;-14.0324;5.2912;0.0665;0.3154;-0.3019
0000206319;5.0709;-13.8983;5.2409;0.0552;0.3139;-0.2951
0000206331;5.3989;-13.5775;5.0757;0.0422;0.3120;-0.2864
0000206339;5.1404;-13.8098;5.0805;0.0429;0.3122;-0.2926
0000206347;5.0470;-13.8481;5.0661;0.0321;0.3098;-0.2912
0000206414;4.9368;-14.1114;4.9249;-0.0097;0.2178;-0.4746
0000206422;5.0422;-14.1449;5.0182;-0.0257;0.2193;-0.4898
0000206434;5.3702;-13.9702;5.1068;-0.0390;0.2377;-0.5088
0000206442;5.2768;-14.0396;5.0518;-0.0424;0.2502;-0.5180
0000206453;5.2696;-14.0659;5.0685;-0.0393;0.2666;-0.5181
0000206461;5.0015;-14.1449;4.9847;-0.0396;0.2707;-0.5173
0000206473;4.7956;-14.1090;4.9704;-0.0432;0.2671;-0.5239
0000206481;4.7764;-14.0947;4.9321;-0.0598;0.2566;-0.5204
0000206492;5.0111;-13.6158;4.8291;-0.0853;0.2392;-0.5236
0000206500;4.8554;-13.6829;4.6064;-0.1147;0.2372;-0.5295
0000206508;5.0685;-13.6446;4.3766;-0.1524;0.2240;-0.5325
0000206520;5.3486;-13.5703;4.1731;-0.2174;0.2230;-0.5263
0000206528;5.3223;-13.6900;4.1372;-0.2505;0.2226;-0.5263
0000206539;5.2816;-14.0396;3.8954;-0.2968;0.2184;-0.5377
0000206547;5.1308;-14.1186;3.8283;-0.3311;0.2138;-0.5383
0000206559;4.8626;-14.5520;3.7110;-0.3716;0.1923;-0.5490
0000206567;4.8578;-14.4921;3.7014;-0.3977;0.1739;-0.5570
0000206578;4.8100;-14.5184;4.4293;-0.4335;0.1641;-0.5650
0000206586;5.0422;-14.7363;4.7836;-0.4421;0.1673;-0.5652
0000206594;5.4300;-14.7315;5.1475;-0.4525;0.1888;-0.5601
0000206606;6.1938;-15.0332;5.4947;-0.4767;0.2405;-0.5581
0000206614;6.8019;-15.2559;5.8610;-0.5076;0.2932;-0.5395
0000206681;7.2065;-15.8879;6.0861;-0.5345;1.0840;-0.3022
0000206689;6.1746;-15.9406;6.3111;-0.5007;1.0541;-0.3220
0000206701;5.2241;-15.8448;6.7277;-0.4546;0.9312;-0.3785
0000206709;4.6759;-15.9190;6.7181;-0.3858;0.8163;-0.4110
0000206720;3.9696;-15.8329;6.2513;-0.2795;0.6403;-0.4362
0000206728;3.9385;-15.5120;6.2297;-0.2088;0.5213;-0.4000
0000206740;4.1707;-14.9374;6.2345;-0.1045;0.3625;-0.2817
0000206748;4.5610;-14.6166;6.2465;-0.0342;0.2691;-0.1929
0000206756;5.2864;-14.0588;6.1675;0.0152;0.1827;-0.1057
0000206767;6.1842;-13.6757;6.1411;0.0454;0.0966;-0.0188
0000206775;6.9983;-13.3812;6.1675;0.0558;0.0612;0.0135
0000206787;7.7572;-13.0269;6.0669;0.0609;0.0484;0.0306
0000206795;8.0134;-13.0364;5.9879;0.0588;0.0585;0.0207
0000206806;8.1044;-13.0963;6.0334;0.0618;0.0758;-0.0302
0000206814;8.0182;-13.1992;5.9352;0.0621;0.0975;-0.0600
0000206826;7.8578;-13.2758;6.0118;0.0758;0.1014;-0.1223
0000206834;7.5106;-13.4339;5.9735;0.0903;0.0973;-0.1502
0000206842;7.3167;-13.5009;6.1483;0.1108;0.0710;-0.1835
0000206853;6.9049;-13.8552;6.2848;0.1001;0.0360;-0.1998
0000206861;6.6846;-14.1473;6.1699;0.1062;-0.0019;-0.2140
0000206873;6.7229;-14.5089;6.1244;0.1331;-0.0452;-0.2137
0000206881;6.7828;-14.5472;6.0501;0.1400;-0.0646;-0.2018
0000206949;6.4069;-14.2599;5.3056;0.1196;-0.2411;-0.0257
0000206957;6.4596;-14.2287;5.1523;0.1195;-0.2629;0.0246
0000206969;6.7325;-13.7906;5.1595;0.1046;-0.3123;0.0697
0000206977;6.5841;-14.1114;4.9847;0.0795;-0.3333;0.0886
0000206985;6.7780;-14.2240;4.9919;0.0813;-0.3616;0.0827
0000206997;7.1587;-14.1545;5.1236;0.0870;-0.3712;0.0879
0000207004;7.3215;-14.2503;5.1404;0.0913;-0.3708;0.0807
0000207016;7.5441;-14.3197;5.0661;0.1227;-0.3601;0.0694
0000207024;7.7045;-14.3125;4.8698;0.1095;-0.3427;0.0641
0000207035;7.8434;-14.2790;4.7956;0.0779;-0.3096;0.0537
0000207043;7.6543;-14.2958;4.8267;0.0464;-0.2625;0.0616
0000207055;7.6255;-14.4203;4.8698;0.0436;-0.2054;0.0747
0000207063;7.4124;-14.6286;5.0182;0.0649;-0.1776;0.0751
0000207074;7.3382;-14.6693;4.9656;0.0810;-0.1416;0.0858
0000207082;7.1611;-14.7339;4.8937;0.1019;-0.1323;0.0785
0000207090;7.0797;-14.7243;5.0566;0.1182;-0.1326;0.0839
0000207102;7.0557;-14.7411;5.0015;0.1331;-0.1355;0.1038
0000207110;7.0174;-14.5567;4.9560;0.1458;-0.1355;0.1255
0000207121;6.6942;-14.6046;4.8722;0.1511;-0.1524;0.1388
0000207129;6.6870;-14.3868;4.9728;0.1338;-0.1547;0.1430
0000207141;6.9815;-14.3748;4.9871;0.1119;-0.1633;0.1208
0000207149;6.9935;-14.3724;4.9656;0.1065;-0.1528;0.1031
0000207217;7.0581;-14.4969;4.8076;-0.0222;-0.0353;-0.0497
0000207225;6.9336;-14.5974;4.6543;-0.0461;-0.0208;-0.0433
0000207233;7.1012;-14.4682;4.6136;-0.0727;-0.0025;-0.0298
0000207245;6.9959;-14.5280;4.4867;-0.0938;0.0177;-0.0153
0000207253;6.9671;-14.4777;4.4053;-0.0982;0.0152;-0.0201
0000207264;7.0509;-14.3676;4.4173;-0.1179;0.0338;-0.0044
0000207272;7.0366;-14.5328;4.4005;-0.1262;0.0405;0.0124
0000207284;7.0222;-14.2670;4.1970;-0.1476;0.0541;0.0514
0000207292;6.9001;-14.2814;4.2928;-0.1663;0.0745;0.0793
0000207303;6.9025;-14.3939;4.2186;-0.1788;0.0795;0.1071
0000207311;6.9408;-14.7483;4.2521;-0.1896;0.0807;0.1166
0000207319;7.0916;-14.7866;4.1372;-0.1981;0.0805;0.1250
0000207331;6.9360;-14.8608;4.1156;-0.2021;0.0773;0.1270
0000207339;6.9073;-15.0739;4.1061;-0.1953;0.0677;0.1288
0000207350;6.7445;-15.0021;3.9480;-0.1875;0.0722;0.1617
0000207358;6.8642;-15.0164;3.8954;-0.1643;0.0570;0.1701
0000207370;6.6248;-15.0907;3.9816;-0.1412;0.0384;0.1815
0000207378;6.8690;-14.9638;4.1156;-0.1306;0.0321;0.1911
0000207389;6.8354;-15.2104;4.1276;-0.1147;0.0254;0.1837
0000207397;6.6870;-15.3540;4.2090;-0.1022;0.0265;0.1835
0000207405;6.8738;-15.3588;4.1851;-0.0895;0.0416;0.1944
0000207417;6.9576;-15.5647;4.0079;-0.0722;0.0753;0.2120
0000207425;7.2353;-15.5288;4.0989;-0.0632;0.1231;0.2157
0000207493;6.5769;-15.8424;4.5657;0.0589;0.4751;-0.1651
0000207501;6.0382;-15.9358;4.2737;0.0606;0.4866;-0.1872
0000207513;5.5258;-16.0603;4.7860;0.0412;0.4650;-0.2082
0000207521;5.3558;-16.2399;5.0829;0.0370;0.4378;-0.2253
0000207532;4.7669;-16.4889;5.5713;0.0477;0.3742;-0.2626
0000207540;4.6448;-16.5870;5.7772;0.0350;0.3139;-0.2867
0000207548;4.4891;-16.3261;6.1292;0.0284;0.2434;-0.3119
0000207560;4.5849;-16.0627;6.0071;0.0175;0.1412;-0.3156
0000207568;4.7621;-15.8400;5.7293;0.0071;0.0838;-0.3127
0000207580;5.4013;-15.1912;6.7325;-0.0079;-0.0195;-0.3192
0000207588;5.6743;-15.5503;6.5290;-0.0260;-0.0967;-0.3436
0000207599;6.4045;-15.3804;5.9161;-0.0600;-0.1739;-0.3960
0000207607;6.7588;-15.1840;6.2704;-0.0967;-0.1773;-0.4135
0000207619;7.4747;-14.5113;6.4356;-0.1331;-0.1276;-0.4177
0000207627;8.2145;-13.8696;6.2800;-0.1299;-0.0548;-0.4056
0000207638;8.6143;-13.2136;6.2513;-0.1094;0.0372;-0.4040
0000207646;9.0142;-12.4953;6.3494;-0.1023;0.1037;-0.4169
0000207658;8.6766;-12.1242;6.5266;-0.0737;0.1936;-0.4385
0000207666;8.1810;-11.9423;6.7493;-0.0422;0.2411;-0.4475
0000207674;7.9392;-11.6574;6.7205;0.0101;0.2603;-0.4708
0000207686;6.9336;-11.5879;6.5984;0.0644;0.2817;-0.4895
0000207694;6.4739;-11.6933;6.6870;0.0901;0.2834;-0.4759
0000207762;5.5785;-13.4841;6.3375;-0.1168;-0.0414;-0.2073
0000207770;5.6312;-13.8265;6.2944;-0.1541;-0.0645;-0.1506
0000207781;6.1196;-14.2335;6.3135;-0.1955;-0.0773;-0.0899
0000207789;6.3590;-14.3676;6.4380;-0.2008;-0.0803;-0.0480
0000207801;6.1603;-15.0787;6.6008;-0.1633;-0.0753;0.0049
0000207809;6.2584;-15.1457;6.5386;-0.1119;-0.0802;0.0381
0000207817;5.9759;-15.1314;6.4117;-0.0629;-0.0806;0.0885
0000207828;5.6479;-15.1529;6.3901;-0.0085;-0.0981;0.1545
0000207836;5.4588;-14.8656;6.3087;0.0185;-0.1226;0.1895
0000207848;5.2936;-14.4322;5.9999;0.0224;-0.1495;0.2567
0000207856;5.4468;-14.1425;5.8658;0.0200;-0.1680;0.2866
0000207867;5.4971;-13.9271;5.6024;0.0017;-0.1885;0.3219
0000207875;5.7341;-13.6086;5.3822;-0.0184;-0.1925;0.3361
0000207887;6.1746;-13.5536;5.2816;-0.0548;-0.1945;0.3400
0000207895;6.6032;-13.5320;5.1164;-0.0743;-0.1757;0.3459
0000207906;6.6702;-13.8074;4.9608;-0.0830;-0.1709;0.3359
0000207914;6.9264;-13.9414;4.8890;-0.0974;-0.1519;0.3363
0000207922;6.9504;-14.1473;4.7836;-0.1007;-0.1328;0.3243
0000207934;6.9719;-14.4801;4.8195;-0.0894;-0.1096;0.3028
0000207942;6.7588;-14.6693;4.6232;-0.0582;-0.0937;0.2791
0000207954;6.4643;-14.9255;4.5849;-0.0072;-0.0810;0.2202
0000207962;6.3710;-14.7746;4.5011;0.0274;-0.0783;0.1685
0000208030;5.9592;-14.1593;4.0797;0.0159;-0.2362;-0.0012
0000208038;5.7772;-14.3676;4.0606;-0.0308;-0.2597;0.0043
0000208049;5.9640;-14.3628;3.7493;-0.0990;-0.3068;0.0036
0000208057;6.1986;-14.5184;3.3543;-0.1460;-0.3283;0.0065
0000208069;6.4260;-14.6693;3.3902;-0.1785;-0.3675;-0.0092
0000208077;6.2704;-14.9973;3.3423;-0.1848;-0.3773;-0.0257
0000208085;6.1483;-15.2966;3.3303;-0.1731;-0.3964;-0.0480
0000208096;6.6224;-15.2199;3.3351;-0.1522;-0.3998;-0.0633
0000208104;6.5410;-15.3301;3.2298;-0.1195;-0.4080;-0.0759
0000208116;6.6415;-15.3373;3.4141;-0.0943;-0.4092;-0.0898
0000208124;6.4452;-15.1768;3.2753;-0.0906;-0.4098;-0.0897
0000208135;6.4955;-14.9542;3.2465;-0.1006;-0.4018;-0.0963
0000208143;6.4212;-14.9901;3.4117;-0.1211;-0.4002;-0.0963
0000208155;6.4691;-14.8105;3.4261;-0.1479;-0.4045;-0.0943
0000208163;6.5338;-14.7435;3.6224;-0.1755;-0.4017;-0.0917
0000208174;6.7277;-14.8680;4.0773;-0.1853;-0.3713;-0.0761
0000208182;6.8714;-14.9733;4.3503;-0.1875;-0.3319;-0.0612
0000208194;6.7756;-15.5192;4.5993;-0.1419;-0.2617;-0.0488
0000208202;6.8307;-15.8472;4.6040;-0.0931;-0.2190;-0.0618
0000208210;6.9456;-15.8664;4.4963;-0.0541;-0.1808;-0.0810
0000208223;7.1204;-15.8017;3.9002;-0.0230;-0.1470;-0.1128
0000208230;6.8067;-15.8065;3.5314;-0.0207;-0.1348;-0.1184
0000208298;4.8602;-17.5040;5.0685;-0.0460;-0.6139;0.3980
0000208306;5.6264;-17.7889;5.1763;0.0017;-0.6259;0.5028
0000208317;7.0509;-17.4872;5.7293;0.0588;-0.5967;0.6508
0000208325;7.9224;-17.0778;6.4021;0.1460;-0.5562;0.7260
0000208337;8.8657;-15.8017;6.5242;0.2117;-0.4386;0.8001
0000208345;9.1937;-14.9470;6.8019;0.2082;-0.3336;0.8256
0000208353;9.2584;-14.1569;7.0198;0.1490;-0.2201;0.8243
0000208364;9.3948;-13.4506;7.1826;0.0448;-0.0616;0.7859
0000208372;9.3901;-13.3022;7.9224;-0.0314;0.0667;0.7274
0000208384;9.2847;-13.9917;7.6662;-0.1799;0.2695;0.6239
0000208392;8.5832;-14.7243;6.6272;-0.2221;0.3789;0.5304
0000208403;6.7469;-14.9302;6.1794;-0.1876;0.4666;0.3685
0000208411;5.8562;-14.5831;6.6870;-0.1832;0.4561;0.2369
0000208423;4.4173;-13.9989;6.4380;-0.2356;0.3325;0.0428
0000208431;3.7230;-13.9845;6.1172;-0.2718;0.2145;-0.0528
0000208442;3.4955;-13.5177;5.7485;-0.2655;0.0285;-0.1172
0000208450;3.4955;-13.4123;5.5426;-0.2437;-0.0979;-0.1264
0000208458;3.8978;-13.2950;5.4492;-0.2113;-0.2101;-0.1003
0000208470;4.9249;-13.2016;5.4971;-0.1643;-0.3537;-0.0230
0000208478;5.7988;-13.0053;5.6671;-0.1266;-0.4390;0.0296
0000208490;6.9599;-13.3285;5.9831;-0.0782;-0.4967;0.1208
0000208498;7.7333;-13.4650;6.2106;-0.0426;-0.4979;0.1707
0000208566;7.6686;-13.3668;5.7940;0.1506;0.1184;0.0681
0000208574;7.2113;-13.5344;5.8275;0.1339;0.1278;0.0015
0000208585;7.0006;-13.7906;5.9328;0.0907;0.1282;-0.0665
0000208593;7.0102;-14.1114;5.8826;0.0821;0.1112;-0.1150
0000208601;6.9168;-14.3245;5.8514;0.0665;0.0899;-0.1403
0000208613;6.6032;-14.8536;5.8083;0.0306;0.0566;-0.1784
0000208621;6.5003;-15.1146;5.7509;0.0196;0.0326;-0.1933
0000208632;6.4189;-15.0859;5.6360;0.0222;-0.0203;-0.2221
0000208640;6.5745;-15.1984;5.5378;0.0321;-0.0545;-0.2368
0000208652;6.4667;-15.0715;5.3534;0.0390;-0.1022;-0.2304
0000208660;6.6272;-14.7387;5.2122;0.0661;-0.1347;-0.2128
0000208671;6.9408;-14.5687;5.0589;0.0477;-0.1749;-0.1765
0000208679;7.0485;-14.4299;4.9464;0.0485;-0.1968;-0.1415
0000208691;7.1802;-14.3197;4.8483;0.0621;-0.2069;-0.1146
0000208699;7.4053;-14.2814;4.6855;0.0645;-0.2173;-0.1015
0000208707;7.1180;-14.4945;4.5801;0.0506;-0.2270;-0.0954
0000208718;7.0198;-14.5424;4.5442;0.0434;-0.2210;-0.0723
0000208726;7.0246;-14.5759;4.4412;0.0488;-0.2061;-0.0596
0000208738;6.9001;-14.8249;4.4796;0.0510;-0.1974;-0.0662
0000208746;7.2520;-14.6836;4.4173;0.0633;-0.1908;-0.0697
0000208758;7.0820;-14.7818;4.3215;0.0791;-0.1609;-0.0484
0000208766;7.1443;-14.6190;4.2713;0.0709;-0.1567;-0.0546
0000208834;7.2185;-14.6980;4.0438;0.0141;-0.1049;0.0258
0000208842;7.1228;-14.7842;4.0342;0.0128;-0.0798;0.0650
0000208850;7.0174;-14.8895;4.0151;0.0217;-0.0659;0.0839
0000208861;6.8235;-15.2056;3.8571;0.0252;-0.0324;0.1163
0000208869;6.7995;-15.2319;3.7493;0.0386;-0.0233;0.1246
0000208881;6.5936;-15.2894;3.6272;0.0665;-0.0063;0.1318
0000208889;6.5817;-15.5096;3.6488;0.0807;0.0045;0.1284
0000208900;6.7876;-15.2654;3.6943;0.1090;0.0213;0.1368
0000208908;6.7828;-15.2894;3.5530;0.1300;0.0312;0.1204
0000208920;7.0126;-15.1673;3.5817;0.1490;0.0510;0.0953
0000208928;7.2329;-14.8800;3.5243;0.1514;0.0723;0.0811
0000208936;7.4029;-14.8943;3.4333;0.1340;0.1045;0.0802
0000208948;7.3023;-14.5879;3.3112;0.1163;0.1571;0.0905
0000208956;7.3478;-14.4562;3.1149;0.0966;0.1928;0.0929
0000208967;7.0797;-14.3221;3.1196;0.0633;0.2216;0.1001
0000208975;7.2568;-14.3197;2.9664;0.0285;0.2368;0.1047
0000208987;7.3382;-14.2359;3.0646;-0.0163;0.2570;0.1015
0000208995;7.3957;-14.2814;3.2465;-0.0298;0.2717;0.0918
0000209006;7.4220;-14.4921;3.4548;-0.0333;0.2911;0.0851
0000209014;7.2903;-14.6597;3.6368;-0.0376;0.3131;0.0811
0000209022;7.5010;-14.7124;3.6751;-0.0516;0.3452;0.0866
0000209034;7.4340;-14.7674;3.3854;-0.1007;0.4073;0.0885
0000209042;7.5369;-14.7890;3.5075;-0.1407;0.4598;0.0913
0000209110;5.7030;-17.3771;5.2241;-0.0269;0.4394;-0.1868
0000209118;5.4133;-17.3101;5.9951;-0.0217;0.3980;-0.2190
0000209130;4.4436;-17.6979;5.9161;-0.0249;0.2754;-0.2983
0000209138;3.8523;-18.2510;6.3782;-0.0290;0.1765;-0.3600
0000209149;3.4812;-18.3540;7.5920;0.0015;0.0192;-0.4417
0000209157;3.4812;-18.5000;7.4555;0.0410;-0.0998;-0.4803
0000209165;3.7972;-18.1888;6.9097;0.0973;-0.2144;-0.5125
0000209177;5.0278;-17.1712;6.4643;0.1816;-0.3383;-0.5269
0000209185;6.0645;-16.1297;6.4069;0.1880;-0.3677;-0.4935
0000209196;7.1060;-14.7842;6.9647;0.1527;-0.3768;-0.4410
0000209204;7.5322;-14.5591;7.1682;0.1460;-0.3854;-0.4132
0000209216;8.2624;-14.1689;6.7277;0.1332;-0.3365;-0.4005
0000209224;8.4324;-13.8217;6.6631;0.1374;-0.2801;-0.3894
0000209235;8.7293;-13.0652;6.7732;0.1583;-0.2008;-0.3797
0000209243;8.7293;-12.6174;6.5864;0.1772;-0.1310;-0.3593
0000209255;8.9926;-11.6909;6.4811;0.2276;-0.0254;-0.3553
0000209263;8.8178;-11.1474;6.3638;0.2475;0.0480;-0.3528
0000209271;8.5473;-10.8864;6.2991;0.2666;0.1208;-0.3615
0000209282;7.9727;-10.5465;6.2058;0.2781;0.2058;-0.3716
0000209290;7.3430;-10.4842;6.1914;0.2590;0.2569;-0.3645
0000209302;6.6439;-10.7763;6.2034;0.1988;0.2818;-0.3403
0000209310;6.1699;-11.1402;6.1866;0.1290;0.2926;-0.3130
0000209378;5.4612;-14.7004;6.5434;-0.0636;0.1196;-0.0841
0000209386;5.6934;-14.7531;6.4236;-0.0558;0.0979;-0.0450
0000209398;5.7676;-14.6597;6.4691;-0.0462;0.0802;0.0350
0000209406;5.7389;-14.6190;6.4883;-0.0462;0.0767;0.0934
0000209414;5.7221;-14.6238;6.5338;-0.0290;0.0715;0.1442
0000209425;5.7892;-14.5903;6.4356;0.0140;0.0486;0.2021
0000209433;5.5378;-14.4777;6.3614;0.0546;0.0211;0.2290
0000209445;5.5019;-14.1904;6.1148;0.0955;-0.0019;0.2770
0000209453;5.6264;-13.7954;6.0789;0.1111;-0.0232;0.2839
0000209464;5.5689;-13.6230;5.9113;0.1029;-0.0269;0.3027
0000209472;5.9017;-13.4243;5.7796;0.0939;-0.0281;0.2983
0000209484;6.1100;-13.4147;5.6336;0.0734;-0.0156;0.2674
0000209492;6.4332;-13.1944;5.4420;0.0558;0.0101;0.2475
0000209500;6.5122;-13.4817;5.4277;0.0448;0.0421;0.2302
0000209511;6.7373;-13.4171;5.3008;0.0377;0.0805;0.2002
0000209519;6.8115;-13.5009;5.2098;0.0341;0.1047;0.1715
0000209531;6.6439;-13.6469;5.0853;0.0381;0.1322;0.1212
0000209539;6.4452;-13.7930;5.1667;0.0550;0.1386;0.0831
0000209550;6.2465;-13.8840;5.0685;0.0763;0.1483;0.0317
0000209558;5.7772;-14.1593;5.0733;0.1007;0.1243;-0.0060
0000209570;5.5019;-14.4322;5.0566;0.1331;0.0721;-0.0404
0000209578;5.3702;-14.3915;4.9943;0.1435;0.0302;-0.0560
0000209586;5.2840;-14.2551;5.0159;0.1363;-0.0167;-0.0530
0000209654;6.3231;-14.0779;4.2737;-0.0935;-0.3596;0.0613
0000209662;6.2968;-14.2335;4.1994;-0.1215;-0.3762;0.0465
0000209674;6.7852;-14.0300;4.0486;-0.1573;-0.3800;0.0261
0000209682;6.7014;-14.3077;3.9720;-0.1740;-0.3786;0.0083
0000209693;6.9911;-14.3030;3.9504;-0.2029;-0.3663;-0.0181
0000209701;7.0102;-14.3915;3.9696;-0.2200;-0.3524;-0.0318
0000209713;6.9911;-14.5903;3.8762;-0.2421;-0.3359;-0.0470
0000209721;6.9599;-14.3437;3.8427;-0.2549;-0.3317;-0.0621
0000209732;6.8331;-14.6334;4.0342;-0.2693;-0.3132;-0.0629
0000209740;6.7828;-14.6405;4.1420;-0.2722;-0.3158;-0.0630
0000209748;6.3638;-15.0164;4.1946;-0.2637;-0.3135;-0.0533
0000209760;6.1196;-15.2774;4.2258;-0.2451;-0.3250;-0.0296
0000209768;5.9687;-15.5695;4.2689;-0.2320;-0.3331;-0.0083
0000209779;5.7796;-15.9119;4.3215;-0.1821;-0.3584;0.0157
0000209787;5.5976;-16.1824;4.3144;-0.1382;-0.3786;0.0281
0000209799;5.6479;-16.4075;4.2904;-0.0610;-0.4379;0.0485
0000209807;5.7652;-16.2901;4.3215;-0.0072;-0.4675;0.0729
0000209818;5.9975;-16.2135;4.1084;0.0526;-0.5049;0.1108
0000209826;6.0166;-15.9095;4.0414;0.0629;-0.5325;0.1520
0000209838;6.0071;-15.4833;3.7757;0.0277;-0.5765;0.2305
0000209846;6.0094;-15.2295;3.6344;-0.0096;-0.6175;0.2766
0000209854;5.8706;-14.9350;3.6176;-0.0556;-0.6554;0.3279
0000209922;7.7740;-16.2925;5.3391;-0.3352;-0.6872;0.6266
0000209930;9.1530;-16.8743;5.5785;-0.4106;-0.5553;0.6749
0000209942;10.9104;-17.5950;6.5386;-0.3977;-0.2739;0.6937
0000209950;11.5736;-17.9876;7.1515;-0.3248;-0.0614;0.6658
0000209961;11.7627;-17.7817;6.7493;-0.2078;0.2252;0.5696
0000209969;11.0875;-17.1736;6.2560;-0.1167;0.4282;0.4638
0000209981;9.2057;-15.6054;6.4620;-0.0474;0.6646;0.2963
0000209989;7.3071;-14.7650;7.0868;-0.0915;0.7290;0.1825
0000210001;5.4205;-13.9247;6.5888;-0.2455;0.7169;0.0216
0000210009;3.8595;-13.9917;5.8251;-0.3565;0.6575;-0.0513
0000210017;3.0981;-13.6182;5.6503;-0.4269;0.5577;-0.1139
0000210029;1.8292;-13.5009;6.1076;-0.4730;0.3111;-0.1553
0000210037;1.3168;-13.6924;6.3087;-0.4419;0.1362;-0.1515
0000210049;2.0016;-13.7523;5.6312;-0.2911;-0.0733;-0.1162
0000210057;3.2585;-13.4602;5.5067;-0.1234;-0.1977;-0.0484
0000210069;4.6831;-13.1633;5.5234;0.1150;-0.3420;0.1144
0000210077;5.3558;-12.8593;5.5713;0.2185;-0.4329;0.2133
0000210088;6.3734;-12.2416;5.6982;0.2698;-0.5165;0.3483
0000210096;6.7516;-11.9590;5.9424;0.2538;-0.5510;0.4423
0000210104;7.1132;-11.7244;6.0262;0.2150;-0.5748;0.5157
0000210116;7.3287;-12.0931;6.3375;0.1021;-0.5585;0.6027
0000210124;7.5800;-12.4786;6.6224;0.0168;-0.5287;0.6299
0000210190;7.1275;-14.3437;6.1890;0.1403;-0.1711;0.0954
0000210198;6.6702;-14.1210;5.9807;0.1135;-0.1915;0.0409
0000210210;6.0238;-14.2048;5.7676;0.0282;-0.2454;-0.0388
0000210218;5.9472;-14.1761;5.5857;-0.0137;-0.2814;-0.0705
0000210230;5.7269;-14.5615;5.3463;-0.0622;-0.3559;-0.1214
0000210238;5.8371;-14.9350;5.3558;-0.0845;-0.4072;-0.1398
0000210250;6.1411;-15.3660;5.2337;-0.0807;-0.4595;-0.1335
0000210258;6.4452;-15.3468;5.2768;-0.0837;-0.4783;-0.1059
0000210266;6.7612;-15.4570;5.1643;-0.0585;-0.4958;-0.0850
0000210278;6.9935;-15.4881;5.0422;-0.0262;-0.4906;-0.0272
0000210286;7.4388;-15.4546;5.1116;-0.0031;-0.4863;-0.0048
0000210298;7.7644;-15.1122;4.8123;0.0686;-0.4455;0.0341
0000210306;7.6591;-15.0500;4.7860;0.1134;-0.4155;0.0450
0000210318;7.7093;-14.5184;4.6807;0.1366;-0.3569;0.0437
0000210326;7.5776;-14.4059;4.5418;0.1380;-0.3228;0.0384
0000210338;7.4867;-13.9462;4.2545;0.1446;-0.2899;-0.0008
0000210346;7.4627;-13.7260;4.2282;0.1544;-0.2681;-0.0233
0000210358;7.3358;-13.5991;4.2329;0.1471;-0.2384;-0.0440
0000210366;7.3430;-13.5584;4.2018;0.1278;-0.2213;-0.0488
0000210374;7.4172;-13.5751;4.1755;0.1061;-0.1907;-0.0430
0000210442;6.7995;-14.6477;3.9983;0.0450;0.0300;0.0357
0000210450;6.6415;-14.7219;3.8379;0.0422;0.0402;0.0349
0000210462;6.7109;-14.8345;3.5674;0.0388;0.0593;0.0392
0000210470;6.6870;-14.7148;3.4548;0.0312;0.0817;0.0552
0000210482;6.6726;-14.7579;3.2968;0.0167;0.1170;0.0686
0000210490;6.8091;-14.4610;3.1939;-0.0045;0.1452;0.0681
0000210502;6.8738;-14.3389;3.0263;-0.0506;0.1994;0.0637
0000210510;7.1395;-14.0588;2.9616;-0.0881;0.2439;0.0526
0000210518;7.4962;-13.7786;2.9712;-0.1276;0.3014;0.0325
0000210530;7.9128;-13.6661;2.8180;-0.2048;0.3928;-0.0020
0000210538;8.0996;-13.6757;2.6935;-0.2397;0.4483;-0.0380
0000210550;8.5808;-14.0971;2.6624;-0.2863;0.5084;-0.0810
0000210558;8.6694;-14.3987;2.9161;-0.3072;0.5585;-0.1021
0000210570;8.1068;-15.1577;3.2394;-0.3439;0.6594;-0.0993
0000210578;8.0445;-15.4354;3.4500;-0.3579;0.7221;-0.0859
0000210590;7.3047;-16.0316;3.6607;-0.3208;0.7858;-0.0815
0000210598;6.5505;-16.5439;3.8930;-0.2827;0.7863;-0.1026
0000210606;6.2513;-16.7618;4.1324;-0.2310;0.7613;-0.1296
0000210618;5.7078;-17.3580;4.1899;-0.1748;0.6993;-0.1668
0000210626;5.3032;-17.7195;4.1420;-0.1323;0.6511;-0.1625
0000210638;5.6072;-17.5782;4.3167;-0.0554;0.5854;-0.1354
0000210646;5.6695;-17.6046;4.4724;-0.0008;0.5496;-0.1138
0000210714;4.0247;-18.1744;6.4787;0.2467;0.0954;-0.4694
0000210722;4.3167;-17.5280;6.2704;0.2950;0.0079;-0.5033
0000210734;4.9967;-16.1178;6.2058;0.3215;-0.1254;-0.5051
0000210742;5.1619;-15.3109;6.0765;0.2813;-0.1781;-0.4704
0000210754;5.6024;-14.2024;5.8586;0.1801;-0.2374;-0.4096
0000210762;6.0382;-13.6805;5.8754;0.1088;-0.2646;-0.3812
0000210770;6.2704;-13.5799;5.9233;0.0485;-0.2698;-0.3381
0000210782;6.8809;-13.3596;6.2249;0.0193;-0.2557;-0.2711
0000210790;7.4867;-13.1322;6.3782;0.0413;-0.2337;-0.2314
0000210802;7.4340;-13.1777;6.3375;0.0989;-0.2064;-0.1791
0000210810;7.3502;-13.0292;6.1794;0.1283;-0.1777;-0.1656
0000210822;7.2425;-12.4929;6.1627;0.1759;-0.1621;-0.1692
0000210830;7.2975;-11.9686;6.1052;0.1992;-0.1583;-0.1847
0000210842;7.0126;-11.5065;5.9352;0.2162;-0.1350;-0.1885
0000210850;6.6798;-11.3437;5.9065;0.2252;-0.1252;-0.1964
0000210862;6.5266;-11.3868;6.0789;0.2128;-0.1062;-0.2096
0000210870;6.5290;-11.6238;6.1459;0.1884;-0.0893;-0.2141
0000210878;6.2800;-11.9159;6.3446;0.1588;-0.0745;-0.2256
0000210890;5.7940;-12.4522;6.3638;0.1351;-0.0838;-0.2539
0000210898;5.7796;-12.7635;6.3614;0.1308;-0.1030;-0.2706
0000210910;5.3893;-13.3405;6.4524;0.1238;-0.1250;-0.2697
0000210918;5.5450;-13.3405;6.5266;0.1151;-0.1307;-0.2689
0000210986;5.7604;-14.7363;6.8570;0.0264;-0.1391;0.1218
0000210994;5.5545;-14.7914;6.6870;0.0493;-0.1378;0.1920
0000211006;5.5091;-14.5089;6.4452;0.0837;-0.1512;0.2798
0000211014;5.4588;-14.1976;6.2369;0.0911;-0.1533;0.3236
0000211022;5.5617;-13.9606;6.2441;0.1033;-0.1563;0.3392
0000211034;5.6407;-13.8600;6.0980;0.1152;-0.1400;0.3317
0000211042;6.0166;-13.7044;5.9280;0.1274;-0.1264;0.3176
0000211054;6.2177;-13.6733;5.6479;0.1435;-0.0954;0.2738
0000211062;6.3470;-13.6661;5.4229;0.1577;-0.0766;0.2407
0000211074;6.6655;-13.5632;5.2409;0.1679;-0.0389;0.1997
0000211082;6.9336;-13.5895;5.1739;0.1649;-0.0171;0.1767
0000211094;6.6343;-13.6948;5.0542;0.1491;-0.0016;0.1439
0000211102;6.5314;-13.7068;4.8937;0.1416;0.0023;0.1314
0000211110;6.2513;-13.7379;4.9512;0.1287;0.0071;0.1250
0000211122;5.9161;-13.9343;4.9488;0.1291;0.0071;0.1154
0000211130;5.5929;-13.9821;4.9488;0.1382;-0.0218;0.1066
0000211142;5.3774;-14.1928;4.8961;0.1315;-0.0673;0.0947
0000211150;5.3223;-14.4035;4.8100;0.1191;-0.1131;0.0741
0000211162;5.4205;-14.2647;4.6974;0.1019;-0.1857;0.0544
0000211170;5.4588;-14.3293;4.5705;0.0791;-0.2348;0.0484
0000211182;5.4085;-14.4083;4.6184;0.0350;-0.3020;0.0640
0000211190;5.6407;-14.2503;4.6256;0.0160;-0.3460;0.0733
0000211198;5.8490;-14.2814;4.5705;-0.0179;-0.3746;0.0933
0000211267;7.4986;-14.8153;4.1252;-0.1756;-0.3379;-0.0450
0000211276;7.5824;-14.8488;4.0438;-0.1701;-0.2960;-0.0886
0000211289;7.3358;-15.0835;3.9073;-0.1398;-0.2487;-0.1475
0000211298;7.1874;-15.0284;3.8044;-0.1371;-0.2225;-0.1665
0000211311;6.6822;-15.1721;3.8618;-0.1283;-0.1888;-0.1988
0000211320;6.5888;-15.3229;4.0151;-0.1077;-0.1688;-0.2066
0000211333;6.5936;-15.2774;4.4293;-0.0818;-0.1471;-0.2076
0000211342;6.5577;-15.3636;4.3862;-0.0566;-0.1426;-0.2060
0000211355;6.7373;-14.9542;4.3886;-0.0313;-0.1330;-0.1697
0000211364;6.6990;-14.8464;4.5203;-0.0285;-0.1207;-0.1423
0000211377;6.6511;-14.7746;4.3239;-0.0342;-0.1001;-0.0914
0000211386;6.6583;-14.4873;4.1731;-0.0558;-0.0910;-0.0622
0000211395;6.6774;-14.4299;3.8044;-0.0891;-0.0879;-0.0274
0000211408;6.2848;-14.4729;3.4740;-0.1707;-0.1276;0.0189
0000211417;5.6910;-14.9494;3.3830;-0.2317;-0.1924;0.0648
0000211430;4.9321;-15.5192;3.0335;-0.3240;-0.3265;0.1399
0000211439;4.2545;-15.7754;2.7749;-0.4002;-0.4274;0.2041
0000211452;3.6416;-16.2327;2.2362;-0.4975;-0.6115;0.3010
0000211461;3.6200;-16.2471;2.2051;-0.5454;-0.7376;0.3644
0000211474;4.0438;-16.4865;3.0047;-0.5333;-0.8972;0.4378
0000211483;4.7692;-17.2718;3.6152;-0.4739;-0.9451;0.4744
0000211552;8.7819;-15.0164;7.1802;0.0837;0.0845;0.5597
0000211561;7.5824;-13.7140;7.2616;-0.0029;0.1919;0.4911
0000211570;6.4979;-12.9622;6.8833;-0.1186;0.3003;0.4391
0000211583;5.6312;-12.9646;6.2704;-0.2510;0.4377;0.3154
0000211592;5.7293;-13.0723;6.2560;-0.3111;0.4942;0.1839
0000211605;6.2225;-12.9838;6.4260;-0.3176;0.5261;0.0314
0000211614;6.2656;-13.2088;6.2991;-0.2797;0.5325;-0.0100
0000211627;5.7557;-13.0795;6.0597;-0.2166;0.5281;0.0260
0000211636;5.4229;-12.6438;5.8275;-0.2118;0.4811;0.0626
0000211649;4.8578;-12.4259;5.9017;-0.2094;0.3681;0.1038
0000211658;4.7094;-12.3206;6.0310;-0.2066;0.2617;0.1259
0000211667;4.6448;-12.4235;6.1292;-0.2133;0.1544;0.1375
0000211680;4.9153;-12.9502;6.1555;-0.2161;0.0249;0.1753
0000211689;5.5186;-13.0604;6.2704;-0.1751;-0.0454;0.1936
0000211705;6.6128;-13.1346;6.4596;-0.1006;-0.0858;0.2113
0000211714;7.3263;-13.4841;6.5314;-0.1043;-0.0723;0.2041
0000211727;8.2193;-13.7882;6.0406;-0.1291;-0.0036;0.1872
0000211736;8.6215;-13.5248;5.5881;-0.1395;0.0654;0.1825
0000211748;8.7556;-13.2663;5.4803;-0.1796;0.1647;0.1688
0000211757;8.4396;-12.9742;5.2720;-0.2497;0.2234;0.1423
0000211766;7.7979;-13.0963;4.8123;-0.3231;0.2451;0.1051
0000211835;6.0693;-17.8703;6.6391;-0.1451;-0.0946;-0.3027
0000211844;7.2880;-17.9398;6.5003;0.0533;-0.0438;-0.3247
0000211856;9.0070;-17.2837;6.0478;0.2558;0.0690;-0.3218
0000211865;9.4978;-16.5655;5.6096;0.3459;0.1640;-0.3413
0000211878;9.2320;-15.2391;4.7884;0.4279;0.2844;-0.4021
0000211887;8.4731;-14.4801;4.4963;0.4085;0.3336;-0.4592
0000211899;7.0725;-13.9438;4.2353;0.2487;0.3604;-0.5257
0000211908;6.1483;-14.0995;4.1156;0.1178;0.3359;-0.5632
0000211921;4.9536;-14.4155;3.9025;0.0101;0.2509;-0.5553
0000211930;4.4796;-14.6070;4.0318;-0.0181;0.1735;-0.5184
0000211939;4.4077;-14.7698;3.9289;-0.0265;0.0909;-0.4417
0000211951;4.7190;-15.2654;4.0510;0.0025;-0.0139;-0.3504
0000211960;5.2218;-15.3037;4.1108;0.0561;-0.0838;-0.2915
0000211973;6.1914;-15.4641;4.1204;0.1232;-0.1447;-0.2202
0000211982;6.8235;-15.5312;4.1228;0.1659;-0.1478;-0.1884
0000211994;7.5274;-15.2152;3.7302;0.2197;-0.1073;-0.1633
0000212003;7.6447;-15.1721;3.8571;0.2360;-0.0398;-0.1589
0000212016;7.7764;-14.8010;3.7804;0.2411;0.0557;-0.2052
0000212025;7.8937;-14.5663;3.7350;0.2208;0.1296;-0.2447
0000212034;7.5537;-14.5591;3.7397;0.1839;0.1951;-0.2856
0000212046;7.2688;-14.4394;3.6009;0.1427;0.2770;-0.3174
0000212055;6.9216;-14.6070;3.4812;0.1218;0.3285;-0.3272
0000212124;6.4596;-14.6310;2.7677;-0.0404;0.4310;-0.1223
0000212133;6.9097;-14.4634;2.7078;-0.0697;0.4680;-0.0890
0000212145;7.5872;-14.5160;2.8036;-0.1310;0.5457;-0.0773
0000212154;8.0421;-14.5615;2.9018;-0.1783;0.6225;-0.0855
0000212167;8.7891;-14.8201;3.0263;-0.2453;0.7560;-0.1122
0000212176;9.0237;-15.1337;2.8491;-0.2815;0.8597;-0.1404
0000212188;9.0118;-15.4618;2.6169;-0.3287;1.0072;-0.1725
0000212197;8.1163;-16.0148;2.4995;-0.3351;1.1030;-0.2066
0000212206;7.5561;-16.4577;2.3463;-0.3321;1.1699;-0.2497
0000212219;6.7804;-17.0922;2.9042;-0.2622;1.1915;-0.3488
0000212228;5.9065;-17.7315;3.4093;-0.1873;1.1546;-0.4330
0000212240;4.4676;-18.7370;4.0366;-0.0392;1.0203;-0.5201
0000212249;3.6990;-19.0243;4.1659;0.0938;0.9154;-0.5288
0000212262;2.7845;-18.7466;4.6783;0.3095;0.7230;-0.4995
0000212271;2.4804;-18.4138;5.0566;0.4323;0.5772;-0.4784
0000212283;2.7845;-17.3580;5.0182;0.5191;0.3652;-0.4767
0000212292;2.8036;-16.4817;5.1332;0.5072;0.2245;-0.4787
0000212301;3.4620;-15.5120;4.9656;0.4442;0.0929;-0.4722
0000212314;4.4436;-14.9494;5.0374;0.2711;-0.0442;-0.4726
0000212323;4.8650;-14.9901;5.2672;0.1653;-0.1978;-0.5081
0000212335;4.9249;-15.8448;6.1220;0.0765;-0.4343;-0.5939
0000212344;5.0278;-16.5272;5.8155;0.0089;-0.6066;-0.6944
0000212413;10.6853;-12.6294;5.9664;0.3684;-0.1379;-0.3492
0000212422;10.1825;-12.0764;5.9903;0.3936;0.0338;-0.2928
0000212434;9.0118;-11.4395;5.8538;0.4018;0.2244;-0.2304
0000212443;7.7572;-11.1402;5.8514;0.3575;0.3291;-0.1881
0000212456;6.2465;-10.6231;6.0142;0.2627;0.3994;-0.1795
0000212465;5.6096;-10.5153;6.0573;0.1915;0.3944;-0.2044
0000212474;4.7214;-10.7308;5.9687;0.1108;0.3782;-0.2209
0000212486;4.9105;-11.0277;5.9664;-0.0087;0.3340;-0.2667
0000212495;5.2481;-11.4156;6.0717;-0.0791;0.2935;-0.2880
0000212508;5.9951;-12.0357;5.7748;-0.1404;0.2395;-0.3363
0000212517;6.3997;-12.5576;5.8538;-0.1843;0.2126;-0.3641
0000212529;6.6463;-13.2328;6.1579;-0.2109;0.1683;-0.4197
0000212538;6.5601;-13.7116;6.2632;-0.2126;0.1183;-0.4678
0000212551;6.4524;-14.4227;6.3901;-0.1861;0.0614;-0.4946
0000212560;6.4596;-14.7555;6.5601;-0.1356;0.0139;-0.4802
0000212572;6.3422;-15.1290;6.8067;-0.0488;-0.0312;-0.4126
0000212581;6.3255;-15.3277;6.7924;-0.0040;-0.0404;-0.3300
0000212590;6.5290;-15.0116;6.6583;0.0268;-0.0448;-0.2282
0000212603;7.2712;-14.4322;6.3686;-0.0105;-0.0013;-0.0485
0000212612;7.5872;-14.2790;6.1555;-0.0823;0.0642;0.0709
0000212624;7.9871;-14.0276;5.8778;-0.1852;0.1460;0.1647
0000212633;8.0661;-14.0204;5.7174;-0.2527;0.2154;0.1993
0000212702;6.8354;-14.6070;4.1803;-0.3295;0.5498;-0.1555
0000212711;6.4452;-14.8177;4.1372;-0.3389;0.5570;-0.1909
0000212723;6.5266;-14.8177;3.9409;-0.3285;0.5413;-0.2244
0000212732;6.3015;-14.6980;3.8954;-0.3132;0.5051;-0.2384
0000212741;5.9328;-14.8680;3.9552;-0.3006;0.4674;-0.2439
0000212754;5.6264;-14.9733;3.9097;-0.2698;0.3730;-0.2419
0000212763;5.7581;-14.8488;3.9289;-0.2439;0.3088;-0.2314
0000212775;5.7988;-15.1002;3.7996;-0.2054;0.2455;-0.1764
0000212784;6.0238;-15.2343;3.8092;-0.1637;0.1993;-0.1223
0000212797;6.2824;-15.3923;3.8283;-0.0990;0.1379;-0.0536
0000212806;6.4596;-15.6198;3.8786;-0.0637;0.0997;-0.0168
0000212818;6.3734;-15.7634;3.9792;-0.0450;0.0773;0.0384
0000212827;6.1770;-16.0866;3.9840;-0.0224;0.0584;0.0695
0000212840;6.0310;-16.1273;3.8259;0.0508;0.0345;0.0921
0000212849;6.0334;-16.1609;3.8858;0.1019;0.0144;0.0901
0000212858;6.2010;-15.8161;3.7924;0.1502;-0.0123;0.0755
0000212870;6.2249;-15.8400;3.6727;0.1965;-0.0514;0.0433
0000212879;6.4260;-15.6772;3.6368;0.2149;-0.0754;0.0322
0000212892;6.3470;-15.6533;3.5410;0.2517;-0.1246;0.0314
0000212901;6.2608;-15.3660;3.3327;0.2789;-0.1620;0.0412
0000212913;6.0669;-15.0308;3.1364;0.2923;-0.2144;0.0625
0000212922;5.8275;-14.7626;2.9137;0.2809;-0.2599;0.0666
0000212991;5.1404;-13.6829;3.0622;-0.1256;-0.7809;0.2735
0000213000;5.4588;-14.0324;3.1556;-0.2004;-0.8230;0.3200
0000213009;6.3255;-14.3772;3.5674;-0.2433;-0.8300;0.3591
0000213021;6.9336;-15.3540;4.0606;-0.2650;-0.7878;0.4056
0000213030;7.6399;-15.7898;3.9816;-0.2658;-0.7258;0.4165
0000213043;8.0565;-16.3380;3.2561;-0.2641;-0.5993;0.4034
0000213052;8.1020;-16.3045;2.5762;-0.2749;-0.5223;0.3680
0000213064;8.0134;-15.9167;1.9201;-0.2978;-0.4465;0.2903
0000213073;7.5417;-15.8017;1.5874;-0.3071;-0.4198;0.2449
0000213086;6.6607;-15.4594;1.8459;-0.3211;-0.4006;0.2132
0000213095;5.8083;-15.8305;3.5291;-0.2778;-0.4194;0.1891
0000213107;5.4516;-16.6876;4.1970;-0.1599;-0.4245;0.1895
0000213116;5.7892;-17.0754;3.5147;-0.0865;-0.4049;0.2615
0000213125;6.6032;-16.8695;3.8714;-0.0498;-0.3978;0.3644
0000213138;8.0302;-16.4841;6.6535;-0.0020;-0.3500;0.5011
0000213147;9.1554;-17.4322;10.4100;0.1001;-0.2489;0.5903
0000213158;11.3294;-19.7186;11.1618;0.0855;0.0497;0.7685
0000213167;12.6294;-19.8886;8.4252;-0.0004;0.3162;1.0790
0000213181;10.7021;-16.4482;6.8785;0.2220;0.6474;1.3659
0000213190;8.1882;-14.2479;7.2042;0.3315;0.8227;1.1996
0000213259;4.4508;-14.2527;5.8754;0.2840;-0.1065;-0.5283
0000213268;5.9065;-13.3908;6.0669;0.2939;-0.2078;-0.4165
0000213277;7.1012;-12.4427;5.7676;0.2411;-0.2979;-0.2826
0000213289;8.2456;-11.8968;5.4444;0.1828;-0.3608;-0.0779
0000213298;8.5545;-11.7483;5.4277;0.1775;-0.3597;0.0601
0000213311;8.8873;-11.6430;5.4636;0.2389;-0.2793;0.1840
0000213320;8.9854;-11.8130;5.5641;0.2725;-0.2089;0.2268
0000213332;8.8657;-12.0859;5.4277;0.2801;-0.1251;0.2125
0000213341;8.8609;-12.3565;5.4109;0.2623;-0.0733;0.1919
0000213354;8.2983;-13.0173;5.3941;0.1609;0.0095;0.1708
0000213363;8.1331;-13.5847;5.4875;0.0887;0.0466;0.1531
0000213372;7.5968;-14.3820;5.5809;0.0326;0.0902;0.1572
0000213384;6.7397;-15.4258;5.6288;0.0397;0.1057;0.1816
0000213393;6.1220;-15.8185;5.7006;0.0649;0.0685;0.1832
0000213406;5.4133;-15.9909;5.6240;0.1039;-0.0628;0.1472
0000213415;4.9847;-15.7993;5.4492;0.1041;-0.1841;0.1151
0000213427;5.0709;-15.1481;5.4420;0.0521;-0.3524;0.0735
0000213436;5.0829;-14.8225;5.4923;-0.0304;-0.4652;0.0722
0000213449;5.6336;-14.8943;5.3151;-0.1335;-0.6019;0.0823
0000213458;6.2010;-14.7986;5.3223;-0.1376;-0.6891;0.0769
0000213470;6.7947;-14.6980;5.2409;-0.1115;-0.7597;0.0861
0000213479;7.3215;-14.6022;5.1954;-0.0901;-0.7823;0.1115
0000213488;7.2425;-14.6621;4.9799;-0.1009;-0.7947;0.1192
0000213557;7.7668;-14.8991;4.3096;0.0171;-0.5903;0.2305
0000213566;7.8338;-14.7076;4.4053;0.0765;-0.5465;0.2593
0000213578;7.5944;-14.4897;4.1946;0.1464;-0.4870;0.2682
0000213587;7.7165;-14.4083;4.2114;0.1917;-0.4491;0.2493
0000213600;7.7548;-14.1880;4.0941;0.2012;-0.3760;0.2129
0000213609;8.0110;-13.8720;3.9863;0.1888;-0.3231;0.1703
0000213621;8.0086;-13.9438;3.9768;0.1587;-0.2553;0.1140
0000213630;8.0469;-14.2647;3.9744;0.1134;-0.1933;0.0886
0000213639;7.8769;-14.4706;3.8595;0.0809;-0.1392;0.0811
0000213652;7.6638;-14.8033;3.8140;0.0262;-0.0737;0.1063
0000213661;7.4268;-14.9350;3.8235;-0.0183;-0.0452;0.1251
0000213673;7.1611;-15.0739;3.6607;-0.0661;-0.0254;0.1507
0000213682;6.7684;-15.3732;3.3567;-0.0943;0.0039;0.1745
0000213695;6.5577;-15.4163;3.2298;-0.1031;0.0230;0.1865
0000213704;6.7205;-15.2942;2.8515;-0.0947;0.0496;0.1951
0000213716;7.1371;-14.9374;2.7461;-0.0982;0.0910;0.2141
0000213725;7.1323;-14.9302;2.8060;-0.1038;0.1372;0.2249
0000213734;7.4795;-14.9973;2.9233;-0.1055;0.1911;0.2176
0000213747;7.9871;-14.9733;3.1580;-0.1230;0.3044;0.2125
0000213756;8.5473;-14.9111;3.5793;-0.1070;0.4056;0.2052
0000213768;8.6742;-15.2942;3.8834;-0.0786;0.5423;0.2101
0000213777;8.5856;-15.2822;3.7757;-0.0538;0.6626;0.1953
0000213846;5.1715;-16.1010;4.0270;-0.0941;0.8390;-0.2810
0000213855;4.5538;-16.2782;3.9744;-0.1046;0.7474;-0.2746
0000213867;3.7637;-16.5511;4.4388;-0.1271;0.5809;-0.2546
0000213876;3.3447;-16.9318;4.4963;-0.1609;0.4391;-0.2490
0000213885;3.2537;-17.2670;4.5729;-0.1859;0.2868;-0.2405
0000213898;3.6775;-17.3939;6.4620;-0.1491;0.0729;-0.2245
0000213907;3.3998;-18.3540;7.4867;-0.0910;-0.0978;-0.2382
0000213919;3.4429;-19.4912;6.4141;-0.0412;-0.3321;-0.3301
0000213928;3.7158;-19.3619;5.9233;0.0596;-0.4935;-0.3988
0000213941;5.0518;-17.5806;6.1483;0.2675;-0.6293;-0.4230
0000213950;6.1483;-16.1704;6.2082;0.3492;-0.6354;-0.3985
0000213962;7.2305;-14.4706;6.0310;0.3451;-0.5557;-0.3138
0000213971;8.0086;-13.2950;5.9352;0.2794;-0.4635;-0.2677
0000213984;8.7173;-12.4451;5.9568;0.2224;-0.3269;-0.2380
0000213993;8.7436;-12.0380;5.9999;0.2128;-0.2289;-0.2141
0000214002;8.4180;-11.8872;6.1148;0.2333;-0.1507;-0.2101
0000214014;7.9990;-11.3294;6.1746;0.3012;-0.0580;-0.1861
0000214023;7.3095;-11.2288;6.1555;0.3315;0.0008;-0.1572
0000214036;6.2704;-11.1809;6.1316;0.3352;0.0117;-0.1529
0000214045;5.9041;-11.2312;6.0501;0.3096;-0.0116;-0.1723
0000214057;5.7293;-11.4610;6.0094;0.2689;-0.0650;-0.2232
0000214066;5.9089;-11.7029;6.0262;0.2421;-0.0989;-0.2502
0000214135;5.1667;-14.7962;6.8402;0.0448;-0.1875;-0.2785
0000214144;5.2074;-15.1218;6.9504;0.0754;-0.1927;-0.2220
0000214156;5.2026;-15.5312;7.0150;0.1135;-0.1916;-0.1340
0000214165;5.2170;-15.4019;7.2377;0.1580;-0.2206;-0.0798
0000214174;5.2505;-15.4354;7.1730;0.2249;-0.2409;0.0107
0000214187;5.5929;-15.1984;6.7876;0.2836;-0.2518;0.1748
0000214196;5.7557;-14.6070;6.7564;0.2912;-0.2406;0.2840
0000214208;6.0861;-14.2216;6.6008;0.2567;-0.2398;0.3873
0000214217;6.1100;-14.3413;6.5457;0.2376;-0.2221;0.4461
0000214230;6.5170;-14.1114;6.2632;0.2082;-0.1721;0.4860
0000214239;6.6128;-14.0827;6.1435;0.2069;-0.1348;0.4739
0000214251;6.8738;-14.1186;5.7174;0.2042;-0.0703;0.4173
0000214260;7.0437;-14.0157;5.5306;0.2110;-0.0172;0.3503
0000214269;7.0844;-14.0037;5.5043;0.2296;0.0318;0.2715
0000214282;7.1539;-13.9079;5.0230;0.2611;0.1063;0.1623
0000214291;6.8378;-13.9773;5.0398;0.2727;0.1672;0.1182
0000214303;6.6798;-13.8481;4.9680;0.2904;0.2178;0.0681
0000214312;6.2537;-13.7116;4.9368;0.3042;0.2277;0.0421
0000214325;5.5522;-13.6900;5.0302;0.3192;0.1992;0.0211
0000214334;5.0159;-13.8624;5.0302;0.3198;0.1589;0.0197
0000214346;4.5179;-14.0133;5.0063;0.3265;0.0596;0.0308
0000214353;4.1707;-13.9630;5.0685;0.3259;-0.0300;0.0362
0000214361;3.9504;-13.9702;5.1212;0.3214;-0.1366;0.0480
