time;acc_x;acc_y;acc_z;gyro_x;gyro_y;gyro_z
0000135765;4.7166;-15.2247;4.1827;-0.0201;-0.0925;-0.0004
0000135774;4.8028;-15.1529;4.0270;-0.0175;-0.0947;0.0057
0000135781;4.9943;-15.0356;4.0582;-0.0205;-0.1009;0.0055
0000135789;5.0182;-14.9805;4.1252;-0.0173;-0.1151;0.0024
0000135797;4.8004;-15.2008;4.1803;-0.0161;-0.1232;0.0039
0000135805;4.8866;-15.0763;4.1803;-0.0215;-0.1208;0.0089
0000135813;5.0781;-14.9614;4.1899;-0.0297;-0.1199;0.0068
0000135821;5.2529;-14.8800;4.1468;-0.0336;-0.1210;-0.0008
0000135830;5.2672;-14.8919;4.2258;-0.0352;-0.1226;0.0063
0000135837;5.2170;-14.9374;4.1970;-0.0414;-0.1256;0.0072
0000135845;5.1547;-14.9470;4.1468;-0.0560;-0.1176;0.0065
0000135853;5.2840;-14.9829;4.0342;-0.0570;-0.1198;-0.0045
0000135861;5.3367;-14.9231;3.9409;-0.0655;-0.1094;-0.0071
0000135869;5.1308;-15.2128;4.0270;-0.0722;-0.1126;-0.0032
0000135877;5.2457;-15.0835;4.0223;-0.0666;-0.1071;-0.0017
0000135885;5.2625;-15.1625;4.1300;-0.0533;-0.1122;-0.0045
0000135893;5.1044;-15.1864;4.0438;-0.0325;-0.1122;-0.0007
0000135901;5.1332;-15.0883;4.0414;-0.0326;-0.1055;0.0007
0000135909;5.1906;-15.2175;4.0294;-0.0211;-0.1087;0.0024
0000135917;4.9919;-15.2391;4.0606;-0.0069;-0.1188;0.0035
0000135925;5.3056;-14.9350;4.0079;-0.0043;-0.1238;0.0087
0000135933;5.0278;-15.1002;4.0366;-0.0007;-0.1264;0.0039
0000135941;5.0015;-15.0404;4.0869;0.0081;-0.1270;0.0021
0000135949;5.1787;-14.9662;4.1803;0.0179;-0.1318;0.0001
0000135957;5.0326;-15.0236;4.1180;0.0249;-0.1422;0.0059
0000135965;5.0709;-14.9231;4.2162;0.0125;-0.1396;0.0065
0000135973;5.3103;-14.9638;4.1946;0.0077;-0.1435;0.0064
0000135981;5.2672;-14.7387;4.2042;-0.0036;-0.1446;0.0047
0000135989;5.3534;-14.7315;4.1779;-0.0244;-0.1476;0.0076
0000135997;5.2433;-14.7028;4.2521;-0.0414;-0.1641;0.0021
0000136005;5.2648;-14.9015;4.1803;-0.0549;-0.1584;0.0009
0000136013;5.3175;-14.8177;4.1444;-0.0498;-0.1745;-0.0039
0000136021;5.2840;-14.9278;4.0965;-0.0438;-0.1761;-0.0063
0000136029;5.2816;-15.0284;3.9816;-0.0172;-0.1875;-0.0172
0000136037;5.2289;-14.9877;3.9073;-0.0049;-0.1904;-0.0369
0000136045;5.3870;-14.7531;3.7828;0.0203;-0.2121;-0.0689
0000136053;5.1906;-14.9542;3.6248;0.0314;-0.2193;-0.1014
0000136061;5.1116;-14.8800;3.5961;0.0473;-0.2467;-0.1460
0000136069;4.9105;-14.9781;3.5530;0.0714;-0.2920;-0.1960
0000136077;4.7621;-15.0404;3.7302;0.0858;-0.3285;-0.2377
0000136085;4.7046;-15.1050;3.8331;0.1070;-0.3780;-0.2647
0000136093;4.6304;-15.4187;3.9217;0.1239;-0.4234;-0.2899
0000136101;4.5801;-15.5025;4.1683;0.1460;-0.4710;-0.3028
0000136109;4.8554;-15.4809;4.3096;0.1636;-0.4980;-0.2923
0000136117;4.9368;-15.5288;4.3527;0.1635;-0.5148;-0.2602
0000136125;5.0494;-15.7562;4.4149;0.1512;-0.5433;-0.2225
0000136133;5.1068;-15.7945;4.5466;0.1384;-0.5833;-0.1780
0000136141;5.3295;-15.8544;4.5274;0.1198;-0.6075;-0.1311
0000136149;5.3056;-15.9765;4.6040;0.1163;-0.6456;-0.0778
0000136157;5.3103;-15.9286;4.5011;0.1031;-0.6775;-0.0196
0000136165;5.2696;-15.7227;4.4412;0.0862;-0.7069;0.0446
0000136173;5.1332;-15.6485;4.5035;0.0693;-0.7592;0.1088
0000136181;4.8554;-15.4570;4.4772;0.0440;-0.7957;0.1757
0000136189;4.5729;-15.3181;4.2258;0.0180;-0.8356;0.2451
0000136197;4.3646;-15.0954;4.2018;0.0047;-0.8928;0.2955
0000136205;4.2090;-14.9039;4.1180;-0.0049;-0.9521;0.3361
0000136213;3.9840;-14.9422;4.1084;-0.0184;-1.0086;0.3772
0000136221;4.0941;-14.7315;3.9528;-0.0244;-1.0666;0.4000
0000136229;3.9433;-14.6453;3.9528;-0.0205;-1.1366;0.4105
0000136237;3.9265;-14.5783;3.8427;-0.0241;-1.1914;0.4207
0000136245;4.3455;-14.5304;3.7828;-0.0326;-1.2432;0.4213
0000136253;4.6088;-14.6238;3.9097;-0.0252;-1.2997;0.4058
0000136261;5.1595;-14.6453;3.9169;-0.0161;-1.3271;0.3961
0000136269;5.2816;-14.8057;4.0582;-0.0048;-1.3503;0.3844
0000136277;5.7174;-14.8704;3.8954;0.0164;-1.3731;0.3652
0000136285;6.0310;-14.9901;3.9217;0.0344;-1.3698;0.3563
0000136293;6.3375;-14.8967;3.9097;0.0290;-1.3531;0.3511
0000136301;6.4284;-15.0093;4.0223;0.0318;-1.3464;0.3425
0000136309;6.4452;-15.2104;4.0534;0.0176;-1.3119;0.3467
0000136317;6.7828;-15.0643;4.0749;0.0107;-1.2854;0.3480
0000136344;6.5290;-15.5551;4.4676;0.0240;-1.1997;0.3351
0000136352;6.4093;-15.5719;4.4604;0.0340;-1.1756;0.3309
0000136360;6.6152;-15.5551;4.5274;0.0546;-1.1522;0.3301
0000136368;6.3279;-15.6700;4.4963;0.0604;-1.1270;0.3417
0000136376;6.2249;-15.7898;4.5394;0.0818;-1.1102;0.3448
0000136384;6.0885;-15.9167;4.5801;0.1155;-1.1041;0.3488
0000136392;6.0262;-15.8496;4.7573;0.1502;-1.1049;0.3487
0000136400;5.8802;-15.8855;4.8028;0.1936;-1.1058;0.3452
0000136408;5.9951;-15.7730;4.8770;0.2441;-1.1142;0.3340
0000136416;5.4516;-15.9741;4.8961;0.2942;-1.1367;0.3215
0000136424;5.5091;-15.7467;4.9680;0.3520;-1.1811;0.3056
0000136432;5.3941;-15.5982;4.9656;0.3966;-1.2185;0.3031
0000136440;5.2625;-15.6605;4.8411;0.4434;-1.2645;0.2978
0000136448;5.3750;-15.3420;4.8123;0.4796;-1.3087;0.3027
0000136456;5.4157;-15.0930;4.8650;0.5009;-1.3582;0.3122
0000136464;5.4731;-14.9590;4.6615;0.5319;-1.4244;0.3218
0000136472;5.5210;-14.7076;4.6591;0.5490;-1.4623;0.3385
0000136480;5.6168;-14.3892;4.5681;0.5621;-1.5023;0.3525
0000136488;5.8897;-14.2192;4.4149;0.5772;-1.5517;0.3713
0000136496;6.0430;-13.9845;4.4939;0.5760;-1.5884;0.4049
0000136504;6.0669;-14.0540;4.5418;0.5674;-1.6182;0.4315
0000136512;6.5697;-14.0971;4.3862;0.5648;-1.6385;0.4670
0000136520;6.7804;-13.9271;4.2904;0.5490;-1.6318;0.5256
0000136528;7.0533;-14.0564;4.3048;0.5436;-1.6248;0.5817
0000136536;7.2065;-14.0157;4.2545;0.5225;-1.5881;0.6474
0000136544;7.4220;-14.3556;4.2138;0.5005;-1.5471;0.7081
0000136552;7.6734;-14.4179;4.3000;0.4855;-1.5071;0.7504
0000136560;7.7764;-14.7148;4.4604;0.4662;-1.4493;0.7806
0000136568;7.8362;-14.7148;4.7142;0.4537;-1.4144;0.7913
0000136576;7.6998;-15.3253;4.6855;0.4391;-1.3873;0.7787
0000136584;7.8003;-15.3397;4.5657;0.4238;-1.3574;0.7631
0000136592;7.9368;-15.3780;4.5394;0.4033;-1.3249;0.7421
0000136600;7.6806;-15.3516;4.7884;0.3832;-1.3154;0.7148
0000136608;7.5753;-15.2822;5.0159;0.3460;-1.3097;0.6915
0000136616;7.4915;-15.3851;5.2313;0.3327;-1.3201;0.6583
0000136624;7.3861;-15.4019;5.1739;0.3487;-1.3074;0.6428
0000136632;7.2544;-15.3612;5.0063;0.3441;-1.2925;0.6340
0000136640;7.1970;-15.3133;5.0877;0.3344;-1.2991;0.6054
0000136648;7.4699;-15.2606;5.0111;0.3188;-1.2866;0.5934
0000136656;7.6231;-15.1697;4.9297;0.3284;-1.2957;0.5758
0000136664;7.5274;-14.9949;4.9488;0.3255;-1.2784;0.5522
0000136672;7.8171;-14.8776;4.8746;0.3212;-1.2702;0.5155
0000136680;7.8171;-14.7483;4.6519;0.3094;-1.2469;0.4887
0000136688;8.1523;-14.4538;4.5777;0.3022;-1.2373;0.4530
0000136696;8.3989;-14.2551;4.4388;0.2838;-1.2096;0.4377
0000136704;8.3007;-14.3006;4.3814;0.2626;-1.1719;0.4207
0000136712;8.5617;-13.9773;4.3024;0.2587;-1.1413;0.4116
0000136720;8.6862;-13.7475;4.1635;0.2617;-1.1134;0.3890
0000136728;8.6766;-13.8337;4.0845;0.2483;-1.0685;0.3702
0000136736;8.6479;-13.8098;3.9840;0.2286;-1.0168;0.3555
0000136745;8.8298;-13.6733;4.0366;0.2098;-0.9791;0.3416
0000136752;8.6526;-13.8816;3.8978;0.1885;-0.9178;0.3544
0000136760;8.4946;-14.0516;4.0031;0.1645;-0.8585;0.3732
0000136768;8.3965;-14.2383;3.9600;0.1623;-0.8030;0.3848
0000136776;8.4707;-14.2982;4.0582;0.1547;-0.7545;0.4008
0000136784;8.4635;-14.4490;4.0677;0.1506;-0.7029;0.4133
0000136792;8.3246;-14.4945;4.2713;0.1432;-0.6570;0.4237
0000136800;8.3151;-14.3030;4.2928;0.1380;-0.6171;0.4319
0000136808;8.3629;-14.4035;4.3215;0.1427;-0.5905;0.4429
0000136816;8.2720;-14.5137;4.2713;0.1415;-0.5536;0.4592
0000136824;8.3007;-14.3892;4.2353;0.1366;-0.5257;0.4754
0000136832;8.1690;-14.7219;4.2114;0.1370;-0.5128;0.4864
0000136840;8.1618;-14.7148;4.1659;0.1234;-0.4907;0.5033
0000136848;8.1235;-15.0978;4.2186;0.1155;-0.4636;0.5249
0000136856;8.1331;-15.2199;4.2210;0.1134;-0.4522;0.5429
0000136864;8.0158;-15.3612;4.3263;0.1311;-0.4445;0.5570
0000136872;7.9344;-15.4450;4.4293;0.1418;-0.4279;0.5720
0000136880;7.9128;-15.4067;4.4460;0.1463;-0.4112;0.5836
0000136888;8.0062;-15.2391;4.3694;0.1533;-0.4029;0.5901
0000136896;7.7524;-15.2511;4.2641;0.1520;-0.4016;0.5931
0000136904;7.9703;-15.0332;4.2329;0.1420;-0.3890;0.5911
0000136912;8.0876;-14.8824;4.2066;0.1275;-0.3778;0.5893
0000136998;9.1363;-13.9678;4.1875;-0.0750;-0.0851;0.4247
0000137006;8.8705;-14.1330;4.0773;-0.1102;-0.0476;0.3982
0000137014;8.9543;-13.9965;4.2306;-0.1391;-0.0228;0.3669
0000137022;8.5066;-14.1761;4.3503;-0.1600;0.0000;0.3460
0000137030;8.3246;-14.1928;4.6400;-0.1736;0.0111;0.3216
0000137038;8.0182;-14.2551;4.9775;-0.1837;0.0155;0.3070
0000137046;7.6854;-14.6070;5.3295;-0.1928;0.0027;0.2851
0000137054;7.5513;-14.5879;5.3678;-0.2105;-0.0374;0.2527
0000137062;7.0413;-14.6693;5.2553;-0.2357;-0.0889;0.2129
0000137070;6.7109;-14.8656;5.2529;-0.2794;-0.1428;0.1815
0000137078;6.3925;-14.8632;5.4181;-0.3120;-0.2148;0.1490
0000137086;6.2656;-14.7555;5.5569;-0.3416;-0.2757;0.1412
0000137094;6.4356;-14.7196;5.5713;-0.3643;-0.3311;0.1388
0000137102;6.3710;-14.7267;5.8514;-0.3752;-0.3647;0.1643
0000137110;6.5170;-14.8488;6.9552;-0.3744;-0.3878;0.1851
0000137118;6.6032;-15.2606;7.5513;-0.3563;-0.4366;0.1986
0000137126;6.5050;-15.9238;7.3837;-0.3491;-0.4886;0.1845
0000137134;6.3159;-16.6421;7.2353;-0.3367;-0.5522;0.1627
0000137142;6.2848;-17.1425;7.0964;-0.3087;-0.5971;0.1487
0000137150;6.6367;-16.9079;6.9935;-0.2633;-0.6211;0.1581
0000137158;7.0701;-16.5176;6.7421;-0.2024;-0.6206;0.1860
0000137166;7.4986;-15.5791;6.5529;-0.1748;-0.5789;0.2249
0000137174;8.0421;-14.7100;6.4212;-0.1733;-0.5217;0.2625
0000137182;8.3893;-13.8744;6.3015;-0.1908;-0.4355;0.2898
0000137190;8.4898;-13.3309;6.1028;-0.2056;-0.3579;0.3116
0000137198;8.2648;-12.8808;6.0358;-0.2046;-0.2935;0.3160
0000137206;8.1403;-12.3708;6.0956;-0.2100;-0.2398;0.3147
0000137214;7.6950;-12.3493;6.0166;-0.2261;-0.1921;0.3072
0000137222;6.9552;-12.4115;6.1148;-0.2398;-0.1672;0.2874
0000137230;6.3638;-12.6845;6.0932;-0.2297;-0.1541;0.2697
0000137238;5.9879;-12.6653;6.2632;-0.2106;-0.1504;0.2526
0000137246;5.5354;-13.0556;6.2393;-0.1832;-0.1633;0.2270
0000137254;5.4205;-13.0077;6.3087;-0.1442;-0.1877;0.2024
0000137262;5.1380;-13.3980;6.3015;-0.1107;-0.2177;0.1883
0000137270;5.0829;-13.3405;6.4069;-0.0754;-0.2587;0.1703
0000137278;4.9464;-13.4841;6.3997;-0.0618;-0.2934;0.1784
0000137286;4.7094;-13.6302;6.3422;-0.0560;-0.3392;0.1960
0000137294;4.8914;-13.4363;6.0885;-0.0686;-0.3753;0.2288
0000137302;4.8914;-13.7116;6.0478;-0.0870;-0.4100;0.2659
0000137310;5.0709;-13.7164;5.9520;-0.1148;-0.4478;0.3027
0000137318;5.5474;-13.8002;5.8059;-0.1448;-0.4755;0.3307
0000137326;5.5976;-14.1330;5.9161;-0.1651;-0.4939;0.3603
0000137334;5.8562;-14.2335;5.8706;-0.1692;-0.5147;0.3921
0000137342;6.0262;-14.5424;5.7868;-0.1581;-0.5309;0.4116
0000137350;6.2153;-14.8057;5.7197;-0.1595;-0.5205;0.4447
0000137358;6.1699;-14.8345;5.8227;-0.1511;-0.5105;0.4730
0000137366;6.0094;-14.9614;5.7628;-0.1442;-0.5140;0.4894
0000137374;5.9903;-15.0428;5.7988;-0.1331;-0.5175;0.5019
0000137382;6.0047;-14.9901;5.8179;-0.1294;-0.5059;0.5052
0000137390;5.9065;-15.1840;5.7413;-0.1284;-0.5161;0.5053
0000137398;5.8802;-15.0380;5.7245;-0.1327;-0.5155;0.4964
0000137406;5.9352;-14.9398;5.6407;-0.1416;-0.5229;0.4771
0000137414;5.6982;-14.8704;5.4444;-0.1382;-0.5312;0.4607
0000137422;5.9017;-14.7890;5.4899;-0.1386;-0.5445;0.4391
0000137430;5.9161;-14.6669;5.4516;-0.1332;-0.5544;0.4197
0000137438;6.2608;-14.5711;5.3343;-0.1067;-0.5672;0.3966
0000137446;6.3590;-14.4059;5.3750;-0.0921;-0.5653;0.3773
0000137454;6.2752;-14.6094;5.3870;-0.0589;-0.5650;0.3487
0000137462;6.2417;-14.5639;5.2960;-0.0293;-0.5633;0.3273
0000137470;6.1172;-14.5807;5.2361;0.0163;-0.5638;0.3026
0000137478;5.8778;-14.4682;5.1595;0.0454;-0.5564;0.2990
0000137486;5.6336;-14.5496;5.1715;0.0801;-0.5560;0.2972
0000137494;5.8323;-14.4179;5.2672;0.1228;-0.5678;0.2898
0000137502;5.7150;-14.2048;5.1236;0.1516;-0.5733;0.2899
0000137510;5.6168;-14.3269;5.1044;0.1679;-0.5756;0.2996
0000137518;5.4588;-14.1880;5.0398;0.1885;-0.5951;0.2948
0000137526;5.5210;-14.0109;5.1140;0.2046;-0.6063;0.2948
0000137534;5.6695;-13.9606;5.0566;0.2221;-0.6322;0.2931
0000137542;5.5186;-14.0516;4.9895;0.2401;-0.6460;0.3075
0000137550;5.4731;-14.1186;4.9895;0.2426;-0.6554;0.3296
0000137558;5.8730;-13.8600;4.8267;0.2330;-0.6654;0.3524
0000137644;6.1004;-15.4426;4.5753;-0.0116;-0.7297;0.4117
0000137652;6.0597;-15.7203;4.6902;-0.0077;-0.7292;0.4005
0000137660;6.3805;-15.6653;4.5777;0.0015;-0.7305;0.3761
0000137668;6.6679;-15.7419;4.4604;0.0144;-0.7250;0.3527
0000137676;6.6798;-15.6126;4.4508;0.0232;-0.7024;0.3436
0000137684;6.8690;-15.3780;4.4197;0.0368;-0.6859;0.3252
0000137692;6.7133;-15.1242;4.3000;0.0428;-0.6619;0.3090
0000137700;6.8091;-14.8560;4.2928;0.0473;-0.6472;0.2871
0000137708;6.6631;-14.7555;4.2353;0.0505;-0.6403;0.2635
0000137716;6.9216;-14.4322;4.2162;0.0438;-0.6315;0.2503
0000137724;6.6511;-14.3987;4.2569;0.0380;-0.6230;0.2328
0000137732;6.4524;-14.4179;4.2401;0.0159;-0.6081;0.2270
0000137740;6.5505;-14.4346;4.3120;0.0103;-0.5991;0.2057
0000137748;6.6032;-14.3389;4.3000;0.0055;-0.5764;0.2021
0000137756;6.8259;-14.2982;4.3910;0.0100;-0.5500;0.1831
0000137764;6.8833;-14.3556;4.4891;0.0298;-0.5287;0.1571
0000137772;6.9456;-14.3030;4.5107;0.0520;-0.4995;0.1355
0000137780;6.9168;-14.1713;4.3981;0.0632;-0.4598;0.1190
0000137788;7.0557;-13.9582;4.2569;0.0617;-0.4253;0.0977
0000137796;6.9815;-13.7714;4.2497;0.0434;-0.3889;0.0818
0000137804;6.8522;-13.7379;4.0606;0.0173;-0.3672;0.0658
0000137812;6.6319;-13.8337;4.0031;-0.0234;-0.3376;0.0576
0000137820;6.3542;-13.9007;3.9696;-0.0657;-0.3203;0.0380
0000137828;6.4189;-14.0324;3.9911;-0.1100;-0.3146;0.0177
0000137836;6.1124;-14.5184;3.8834;-0.1531;-0.3118;0.0017
0000137844;6.3159;-14.5998;3.8642;-0.1823;-0.3246;-0.0169
0000137852;6.4620;-14.8728;3.7733;-0.2092;-0.3299;-0.0280
0000137860;6.3925;-15.0715;3.4620;-0.2278;-0.3388;-0.0450
0000137868;6.6463;-15.2104;3.3208;-0.2350;-0.3485;-0.0569
0000137876;6.8738;-15.2104;3.4261;-0.2546;-0.3392;-0.0508
0000137884;6.9456;-15.4426;3.2298;-0.2709;-0.3345;-0.0422
0000137892;7.3095;-15.5144;3.0813;-0.2681;-0.3356;-0.0365
0000137900;7.3789;-15.5695;3.0742;-0.2623;-0.3277;-0.0193
0000137908;7.2832;-15.7754;3.2202;-0.2531;-0.3127;0.0047
0000137916;7.1994;-15.7443;3.0574;-0.2490;-0.3206;0.0087
0000137924;6.8019;-15.9981;3.2250;-0.2369;-0.3347;0.0104
0000137932;6.5457;-16.1465;3.5841;-0.2230;-0.3523;0.0230
0000137940;5.9472;-16.5463;4.0989;-0.2006;-0.3889;0.0438
0000137948;5.7628;-16.8097;4.9177;-0.1518;-0.4092;0.0727
0000137956;5.7317;-17.1952;5.1284;-0.1094;-0.4197;0.1231
0000137964;5.9280;-17.6788;5.1930;-0.0658;-0.4245;0.1791
0000137972;6.3614;-17.6357;5.3870;-0.0229;-0.4125;0.2290
0000137980;7.0916;-17.4106;5.6958;-0.0096;-0.3802;0.2657
0000137988;7.6231;-16.8025;6.0358;0.0080;-0.3471;0.2798
0000137996;8.2001;-16.4170;6.2944;-0.0035;-0.2890;0.2773
0000138004;8.4611;-16.0986;6.1627;-0.0332;-0.2277;0.2825
0000138012;8.6598;-15.7419;6.0142;-0.0801;-0.1579;0.2810
0000138020;8.8322;-15.3492;6.5122;-0.1263;-0.0667;0.2695
0000138028;9.2392;-15.2511;6.5003;-0.1901;0.0485;0.2741
0000138036;9.0956;-15.4881;5.9711;-0.2274;0.1563;0.2695
0000138044;8.6167;-15.6006;5.4444;-0.2320;0.2634;0.2477
0000138052;8.0756;-15.2487;5.3056;-0.2070;0.3232;0.1817
0000138060;7.5274;-14.6022;5.3103;-0.2068;0.3472;0.1069
0000138068;6.8474;-14.3365;5.3917;-0.2253;0.3144;0.0149
0000138076;6.0908;-13.9893;5.3486;-0.2670;0.2601;-0.0449
0000138084;5.4899;-13.9031;5.1044;-0.2939;0.2078;-0.0729
0000138092;4.8530;-13.8098;5.0757;-0.3035;0.1486;-0.0905
0000138100;4.7429;-13.6972;4.9105;-0.2843;0.0974;-0.0881
0000138108;4.7309;-13.4410;4.9608;-0.2201;0.0730;-0.0564
0000138116;4.9536;-13.2830;4.8602;-0.1781;0.0417;-0.0412
0000138124;5.2289;-13.1130;5.0829;-0.1443;-0.0064;-0.0404
0000138132;5.8442;-12.7611;5.3630;-0.1319;-0.0396;-0.0605
0000138140;6.3303;-12.8640;5.5522;-0.1180;-0.0548;-0.0829
0000138148;6.8354;-12.9790;5.6312;-0.1268;-0.0324;-0.1136
0000138156;7.6255;-12.9909;5.7868;-0.1010;-0.0212;-0.1268
0000138164;8.0469;-13.3573;5.8323;-0.0522;0.0250;-0.1031
0000138172;8.4731;-13.3956;5.9783;-0.0248;0.1041;-0.0629
0000138180;8.6359;-13.5943;6.0908;-0.0163;0.1928;-0.0321
0000138188;8.5688;-13.5344;6.1268;-0.0137;0.2609;-0.0276
0000138196;8.3031;-13.5177;6.1196;-0.0386;0.3272;-0.0320
0000138204;7.7261;-13.7762;6.0908;-0.0441;0.3688;-0.0313
0000138291;6.8354;-15.5527;5.7892;-0.0304;-0.1715;-0.1183
0000138299;7.2712;-15.2654;5.4684;-0.0085;-0.1853;-0.1342
0000138307;7.5705;-15.1290;5.0996;-0.0059;-0.1848;-0.1569
0000138315;7.8314;-14.8105;4.9512;-0.0105;-0.1933;-0.1885
0000138323;7.8697;-14.7172;4.8626;-0.0211;-0.1951;-0.2093
0000138331;7.9511;-14.4538;4.6448;-0.0314;-0.1871;-0.2297
0000138339;7.7045;-14.5974;4.6112;-0.0505;-0.1807;-0.2430
0000138347;7.5465;-14.5951;4.4915;-0.0648;-0.1664;-0.2384
0000138355;7.5441;-14.5232;4.4939;-0.0742;-0.1519;-0.2318
0000138363;7.3694;-14.5974;4.4819;-0.0691;-0.1446;-0.2230
0000138371;7.3119;-14.7794;4.4676;-0.0556;-0.1344;-0.2041
0000138379;7.1970;-14.9566;4.4676;-0.0425;-0.1220;-0.1817
0000138387;7.5082;-14.8824;4.4724;-0.0120;-0.1058;-0.1592
0000138395;7.3263;-15.0835;4.5011;0.0201;-0.0851;-0.1358
0000138403;7.3167;-14.8201;4.4748;0.0626;-0.0706;-0.1058
0000138411;7.2568;-14.6741;4.4269;0.0849;-0.0670;-0.0913
0000138419;7.2065;-14.5903;4.4077;0.1038;-0.0540;-0.0773
0000138427;7.0844;-14.5735;4.3144;0.1138;-0.0452;-0.0584
0000138435;7.0509;-14.3077;4.3000;0.1220;-0.0522;-0.0561
0000138443;6.9887;-14.2934;4.3455;0.1143;-0.0560;-0.0477
0000138451;6.9623;-14.4634;4.4101;0.1132;-0.0569;-0.0358
0000138459;6.9599;-14.4729;4.3574;0.1078;-0.0558;-0.0217
0000138467;7.2281;-14.4203;4.3263;0.0925;-0.0400;0.0004
0000138475;7.1611;-14.5280;4.2928;0.0930;-0.0385;0.0036
0000138483;7.1371;-14.7866;4.2713;0.0831;-0.0273;0.0072
0000138491;7.3909;-14.6334;4.3574;0.0826;-0.0296;-0.0031
0000138499;7.1275;-14.7531;4.3574;0.0677;-0.0161;0.0016
0000138507;7.2449;-14.9614;4.3287;0.0592;-0.0080;0.0000
0000138515;7.0725;-14.9063;4.1563;0.0628;-0.0051;-0.0056
0000138523;7.0773;-14.7842;4.1611;0.0597;0.0113;0.0024
0000138531;6.7732;-15.1912;4.0797;0.0561;0.0115;0.0097
0000138539;6.8833;-15.0476;3.9528;0.0557;0.0157;0.0173
0000138547;6.7564;-15.1888;3.8355;0.0686;0.0097;0.0176
0000138555;6.9528;-15.0811;3.9887;0.0671;0.0113;0.0236
0000138563;7.0342;-15.1242;3.8140;0.0693;0.0165;0.0276
0000138571;6.9719;-15.1912;3.7589;0.0682;0.0203;0.0193
0000138579;6.8354;-15.4306;3.7038;0.0794;0.0265;0.0113
0000138587;7.0677;-15.4211;3.8547;0.0921;0.0482;0.0120
0000138595;7.3071;-15.3780;3.7110;0.1087;0.0715;0.0121
0000138603;7.4460;-15.2966;3.6727;0.1280;0.1027;0.0112
0000138611;7.6279;-15.2008;3.5698;0.1488;0.1374;0.0011
0000138619;7.5944;-15.0907;3.4788;0.1575;0.1617;-0.0009
0000138627;7.4939;-15.1266;3.5314;0.1601;0.1899;-0.0148
0000138635;7.6423;-14.9278;3.4884;0.1488;0.2208;-0.0141
0000138643;7.5848;-14.7148;3.6152;0.1339;0.2463;-0.0108
0000138651;7.3430;-14.8081;3.5817;0.1134;0.2667;0.0005
0000138659;7.2185;-14.7148;3.7134;0.0959;0.2701;0.0139
0000138667;7.1251;-14.6573;3.6440;0.0625;0.2703;0.0237
0000138675;7.0246;-14.6501;3.4572;0.0326;0.2575;0.0257
0000138683;7.0773;-14.5567;3.6320;-0.0037;0.2483;0.0398
0000138691;6.8067;-14.5879;3.7373;-0.0333;0.2395;0.0546
0000138699;6.5003;-15.0500;3.9672;-0.0440;0.2293;0.0626
0000138707;6.7684;-15.1721;4.0342;-0.0474;0.2346;0.0750
0000138715;6.5984;-15.7682;4.1994;-0.0452;0.2455;0.0805
0000138723;6.9384;-15.8927;4.2138;-0.0262;0.2447;0.0629
0000138731;7.1323;-16.1680;4.3407;-0.0045;0.2382;0.0309
0000138739;7.3287;-16.3428;4.4317;0.0179;0.2413;-0.0008
0000138747;7.4268;-16.6804;4.7166;0.0504;0.2425;-0.0290
0000138755;7.6519;-16.7474;5.1116;0.0825;0.2475;-0.0505
0000138763;7.6878;-17.2023;5.5162;0.1250;0.2569;-0.0618
0000138771;7.2472;-17.4442;5.9520;0.1720;0.2471;-0.0893
0000138779;7.0270;-17.5208;6.0813;0.1961;0.2162;-0.1208
0000138787;6.3351;-17.4418;5.7652;0.1804;0.1677;-0.1785
0000138795;6.0358;-17.2550;5.1212;0.1575;0.1270;-0.2481
0000138803;5.7604;-16.8121;5.0661;0.1175;0.1083;-0.2938
0000138811;5.8802;-16.2040;6.3590;0.1073;0.0666;-0.3363
0000138819;5.8514;-16.3428;6.9192;0.1228;0.0017;-0.3640
0000138827;5.6216;-16.7498;6.6056;0.1183;-0.0659;-0.4157
0000138835;5.7988;-16.5487;6.4452;0.0997;-0.1430;-0.4862
0000138843;5.8251;-16.5152;6.3231;0.0798;-0.2054;-0.5392
0000138851;6.5266;-15.9358;5.9161;0.0620;-0.2188;-0.5317
0000138937;7.6614;-12.2631;5.5929;-0.0594;0.5642;-0.3824
0000138945;6.9432;-12.4068;5.7197;-0.0364;0.5728;-0.4094
0000138953;6.3710;-12.4786;6.0166;-0.0232;0.5732;-0.4189
0000138961;5.9017;-12.5384;6.0693;-0.0057;0.5726;-0.4147
0000138969;5.8059;-12.3828;6.2560;0.0104;0.5470;-0.4125
0000138977;5.6144;-12.8162;6.3710;0.0191;0.5256;-0.4024
0000138985;5.6407;-12.8712;6.4859;0.0025;0.5079;-0.3898
0000138993;5.5641;-12.9838;6.4404;-0.0061;0.4842;-0.3942
0000139001;5.6575;-13.0508;6.3973;-0.0087;0.4526;-0.4121
0000139009;5.7317;-13.1298;6.3662;-0.0224;0.4307;-0.4227
0000139017;5.9328;-13.3237;6.3925;-0.0281;0.4142;-0.4299
0000139025;5.9209;-13.4937;6.3375;-0.0374;0.3990;-0.4227
0000139033;5.9424;-13.6015;6.4021;-0.0442;0.3869;-0.4118
0000139041;5.9376;-13.6733;6.2824;-0.0533;0.3756;-0.3824
0000139049;5.9424;-13.7858;6.2537;-0.0452;0.3616;-0.3565
0000139057;5.7221;-13.9343;6.0549;-0.0333;0.3428;-0.3192
0000139065;5.5402;-14.0875;6.0382;-0.0382;0.3292;-0.2590
0000139073;5.5162;-13.9366;6.0071;-0.0413;0.3026;-0.2046
0000139081;5.3510;-14.2024;6.0549;-0.0532;0.2843;-0.1278
0000139089;5.5354;-14.3461;5.8945;-0.0572;0.2598;-0.0546
0000139097;5.5354;-14.4729;5.7940;-0.0614;0.2392;0.0280
0000139105;5.5929;-14.7459;5.7006;-0.0590;0.2222;0.1042
0000139113;5.7796;-14.6908;5.8203;-0.0405;0.1935;0.1565
0000139121;5.7006;-14.7579;5.6623;-0.0309;0.1903;0.2145
0000139129;5.7844;-14.7435;5.5737;-0.0237;0.1840;0.2527
0000139137;6.0406;-14.2742;5.4923;-0.0167;0.1756;0.2721
0000139145;6.1196;-14.1880;5.4396;-0.0147;0.1700;0.2790
0000139153;6.2489;-14.1258;5.2577;-0.0153;0.1707;0.2709
0000139161;6.5386;-13.7786;5.1595;-0.0111;0.1864;0.2457
0000139169;6.6104;-13.9151;5.0877;-0.0060;0.2052;0.2137
0000139177;6.6583;-13.9390;5.0949;0.0036;0.2164;0.1560
0000139185;6.5625;-14.0971;4.9775;0.0342;0.2398;0.0962
0000139193;6.7229;-14.0683;5.0470;0.0584;0.2658;0.0453
0000139201;6.6990;-14.1114;5.0996;0.0889;0.2836;-0.0143
0000139209;6.7564;-14.1833;5.0829;0.1108;0.3007;-0.0679
0000139217;6.5386;-14.1425;5.0135;0.1402;0.3006;-0.1315
0000139225;6.3135;-14.3580;4.9991;0.1591;0.2968;-0.1927
0000139233;6.1220;-14.3054;5.0589;0.1849;0.2832;-0.2495
0000139241;5.9544;-14.3365;5.0853;0.1992;0.2787;-0.2805
0000139249;5.8155;-14.3915;4.9440;0.2128;0.2567;-0.3054
0000139257;5.6479;-14.5496;5.0518;0.2222;0.2258;-0.3126
0000139265;5.3008;-14.6741;5.1020;0.2176;0.2037;-0.2940
0000139273;5.3103;-14.7507;5.0925;0.2089;0.1708;-0.2687
0000139281;5.2385;-14.8033;4.9799;0.2005;0.1299;-0.2426
0000139289;5.4133;-14.8033;4.9488;0.1832;0.0949;-0.2000
0000139297;5.5881;-14.7291;4.8937;0.1689;0.0568;-0.1655
0000139305;5.7413;-14.6142;4.8770;0.1545;0.0230;-0.1262
0000139313;5.6240;-14.7507;4.7405;0.1370;-0.0149;-0.0851
0000139321;5.6814;-14.6405;4.5274;0.1154;-0.0536;-0.0450
0000139329;5.8562;-14.6046;4.3479;0.0987;-0.0907;-0.0071
0000139337;5.7628;-14.7698;4.3239;0.0678;-0.1159;0.0304
0000139345;5.7868;-14.5855;4.1899;0.0462;-0.1423;0.0520
0000139353;5.5641;-14.8177;4.1396;0.0325;-0.1801;0.0787
0000139361;5.8466;-14.5879;4.1013;0.0197;-0.2112;0.0907
0000139369;5.6455;-14.8081;4.0007;0.0095;-0.2461;0.0901
0000139377;5.4324;-14.7052;3.7757;0.0017;-0.2906;0.0925
0000139385;5.2433;-14.8488;3.6775;-0.0121;-0.3248;0.0947
0000139393;5.3463;-14.7794;3.5602;-0.0248;-0.3537;0.0974
0000139401;5.3343;-14.6070;3.7661;-0.0224;-0.3973;0.0926
0000139409;5.1451;-14.7866;3.8283;-0.0112;-0.4367;0.0957
0000139417;5.3056;-14.7028;4.0486;0.0136;-0.4768;0.0887
0000139425;5.2625;-14.6908;4.0510;0.0328;-0.4931;0.0965
0000139433;5.2648;-14.7124;4.1228;0.0436;-0.5129;0.0930
0000139441;5.6072;-14.4801;4.0342;0.0490;-0.5265;0.0909
0000139449;5.8035;-14.2718;4.0414;0.0389;-0.5311;0.0869
0000139457;6.1076;-14.1737;4.1635;0.0044;-0.5288;0.0825
0000139465;6.3949;-13.8888;4.2329;-0.0288;-0.5163;0.0825
0000139473;6.4787;-14.0348;4.3766;-0.0646;-0.4908;0.0789
0000139481;6.4069;-14.0827;4.3335;-0.0958;-0.4610;0.0795
0000139489;6.7445;-14.2503;4.5155;-0.1131;-0.4374;0.0673
0000139497;6.6583;-14.2670;4.4221;-0.1350;-0.3954;0.0665
0000139505;6.5601;-14.3341;4.4508;-0.1532;-0.3633;0.0569
0000139591;8.5688;-15.9430;6.2704;-0.2864;0.1476;0.3317
0000139599;8.2384;-15.6653;6.0023;-0.2717;0.2093;0.3401
0000139607;7.8027;-15.0571;5.8155;-0.2550;0.2567;0.3379
0000139615;7.3741;-14.6142;5.7628;-0.2585;0.2955;0.3214
0000139623;6.9025;-14.3748;5.6455;-0.2827;0.3070;0.2880
0000139631;6.5074;-14.2192;5.6048;-0.3184;0.3050;0.2494
0000139639;5.8323;-14.4251;5.5617;-0.3595;0.3055;0.2097
0000139647;5.4540;-14.7962;6.2417;-0.3856;0.3006;0.1652
0000139655;5.2385;-15.1649;6.5697;-0.3934;0.2928;0.1495
0000139663;5.3582;-15.8975;6.4284;-0.3740;0.2830;0.1410
0000139671;5.3678;-16.3787;6.2417;-0.3200;0.2743;0.1348
0000139679;5.3415;-16.4434;6.2489;-0.2470;0.2498;0.1254
0000139687;5.6599;-15.7131;6.2177;-0.1760;0.2038;0.1155
0000139695;5.4157;-15.2319;6.1675;-0.1318;0.1518;0.1124
0000139703;5.3582;-14.6190;6.0334;-0.1102;0.0877;0.1090
0000139711;5.7317;-14.0851;5.9951;-0.0963;0.0193;0.1043
0000139719;5.9807;-13.7595;5.9640;-0.0935;-0.0378;0.1168
0000139727;6.2632;-13.8337;6.0142;-0.0841;-0.0905;0.1264
0000139735;6.7157;-13.6996;6.1172;-0.0534;-0.1363;0.1258
0000139743;7.3191;-13.7284;6.2249;-0.0256;-0.1536;0.1347
0000139751;7.5346;-13.9438;6.3087;0.0128;-0.1531;0.1258
0000139759;8.1882;-13.8457;6.3039;0.0484;-0.1260;0.1112
0000139767;8.6359;-13.7284;6.3925;0.0875;-0.0831;0.0765
0000139775;8.7724;-13.8864;6.3901;0.1222;-0.0312;0.0429
0000139783;8.9950;-13.8433;6.2225;0.1488;0.0446;0.0091
0000139791;8.7963;-13.7260;6.0741;0.1801;0.1283;-0.0262
0000139799;8.4467;-13.5512;5.9759;0.2034;0.1927;-0.0586
0000139807;8.0613;-13.1825;5.9304;0.2042;0.2499;-0.0870
0000139815;7.3502;-13.1921;5.8251;0.1888;0.2725;-0.1307
0000139823;7.1826;-13.0053;5.7126;0.1653;0.2709;-0.1605
0000139831;6.8977;-13.0843;5.5545;0.1323;0.2470;-0.1860
0000139839;6.3159;-13.4075;5.5115;0.0993;0.2113;-0.2096
0000139847;6.1603;-13.7523;5.5282;0.0851;0.1636;-0.2182
0000139855;5.9544;-14.1497;5.8419;0.0893;0.1088;-0.2257
0000139863;6.0597;-14.5472;5.9472;0.0998;0.0613;-0.2182
0000139871;6.0238;-15.0164;5.9879;0.1271;0.0088;-0.2156
0000139879;6.3111;-15.1601;5.8969;0.1656;-0.0509;-0.2162
0000139887;6.5242;-15.1744;5.8562;0.1988;-0.0989;-0.2021
0000139895;6.7636;-15.0835;5.7676;0.2200;-0.1367;-0.1883
0000139903;6.9480;-14.9446;5.5545;0.2414;-0.1831;-0.1736
0000139911;6.8905;-14.5927;5.3846;0.2414;-0.2096;-0.1331
0000139919;6.9360;-14.2192;5.2888;0.2344;-0.2490;-0.1015
0000139927;6.8929;-13.8888;5.0925;0.2177;-0.2774;-0.0790
0000139935;6.7445;-13.7331;5.1284;0.1863;-0.3067;-0.0540
0000139943;6.5457;-13.7810;5.0853;0.1522;-0.3360;-0.0324
0000139951;6.8354;-13.6565;5.0613;0.1251;-0.3633;-0.0101
0000139959;6.7469;-14.0468;4.9177;0.1128;-0.3833;0.0072
0000139967;6.9121;-14.3197;4.9297;0.1051;-0.3878;0.0384
0000139975;6.8929;-14.5687;5.0159;0.1096;-0.3924;0.0681
0000139983;7.1491;-14.7172;4.9560;0.1188;-0.4022;0.0846
0000139991;6.9839;-15.0356;5.0494;0.1226;-0.4000;0.1100
0000139999;7.1036;-15.0021;4.9847;0.1527;-0.4004;0.1258
0000140007;6.8235;-15.0930;4.9321;0.1768;-0.3892;0.1458
0000140015;6.9623;-14.6836;4.7908;0.1841;-0.3901;0.1532
0000140023;6.9839;-14.5615;4.9009;0.1781;-0.3850;0.1572
0000140031;7.0701;-14.5160;4.7884;0.1771;-0.3768;0.1515
0000140039;7.3191;-14.3892;4.6878;0.1764;-0.3595;0.1627
0000140047;7.2449;-14.4299;4.6663;0.1683;-0.3453;0.1565
0000140055;7.3885;-14.2216;4.6615;0.1752;-0.3355;0.1490
0000140063;7.1994;-14.2958;4.6304;0.1587;-0.3178;0.1363
0000140071;7.2496;-14.2192;4.4724;0.1334;-0.2962;0.1220
0000140079;7.0940;-14.2958;4.5131;0.1163;-0.2930;0.1031
0000140087;7.0174;-14.2838;4.4939;0.1042;-0.2886;0.0877
0000140095;7.0653;-14.5520;4.4987;0.0782;-0.2662;0.0815
0000140103;7.0964;-14.5663;4.4221;0.0550;-0.2513;0.0771
0000140111;6.8833;-14.8129;4.4628;0.0376;-0.2447;0.0614
0000140119;6.9336;-14.7243;4.2880;0.0266;-0.2365;0.0526
0000140127;7.1874;-14.6812;4.2593;0.0109;-0.2309;0.0556
0000140135;6.7133;-14.8752;4.2425;0.0121;-0.2310;0.0550
0000140143;6.8019;-14.9877;4.1851;0.0068;-0.2258;0.0710
0000140151;6.7493;-15.0883;4.1132;0.0055;-0.2302;0.0757
0000140242;7.9272;-14.6381;3.9193;-0.0141;-0.0005;0.1807
0000140250;7.9057;-14.5160;3.9959;-0.0276;0.0244;0.1507
0000140258;7.9057;-14.6645;4.0103;-0.0440;0.0604;0.1196
0000140266;7.8243;-14.5232;4.0677;-0.0658;0.0855;0.0739
0000140274;7.9104;-14.3676;4.1444;-0.0849;0.1013;0.0344
0000140282;7.8937;-14.2120;4.1492;-0.1147;0.1311;0.0121
0000140290;7.6662;-14.3700;4.1492;-0.1432;0.1636;-0.0053
0000140298;7.5920;-14.2144;4.0390;-0.1804;0.1905;-0.0175
0000140306;7.4053;-14.3796;3.8810;-0.2177;0.2129;-0.0230
0000140314;6.9935;-14.4634;3.5985;-0.2761;0.2382;-0.0163
0000140322;7.0437;-14.4825;3.4141;-0.3288;0.2525;-0.0218
0000140330;7.1108;-14.5352;3.4955;-0.3701;0.2669;-0.0248
0000140338;6.8785;-14.7579;3.6727;-0.4058;0.2647;-0.0148
0000140346;6.6918;-15.1673;3.9816;-0.4306;0.2586;-0.0008
0000140354;6.7397;-15.3971;4.3574;-0.4238;0.2286;-0.0005
0000140362;6.3590;-15.8089;4.7788;-0.4121;0.1856;0.0133
0000140370;6.1292;-16.1034;5.2265;-0.3984;0.1352;0.0241
0000140378;5.8562;-16.7187;5.3534;-0.3858;0.0616;0.0346
0000140386;5.1954;-17.3747;5.4133;-0.3738;-0.0095;0.0476
0000140394;4.9584;-17.7554;5.8395;-0.3392;-0.0914;0.0444
0000140402;4.6184;-18.1337;6.6846;-0.2749;-0.1883;0.0354
0000140410;4.6687;-18.2103;7.0294;-0.1976;-0.2762;0.0280
0000140418;4.9895;-18.2151;6.9959;-0.1114;-0.3708;0.0064
0000140426;5.4324;-17.7937;6.8091;-0.0484;-0.4531;-0.0336
0000140434;6.1603;-17.0467;6.5553;-0.0176;-0.5003;-0.0616
0000140442;6.9983;-16.2710;6.2632;-0.0264;-0.5137;-0.0771
0000140450;7.5010;-15.5815;5.7604;-0.0377;-0.4936;-0.0903
0000140458;8.0996;-14.9015;5.5067;-0.0513;-0.4482;-0.0973
0000140466;8.5329;-14.3963;5.1691;-0.0683;-0.3738;-0.0922
0000140474;9.0166;-13.6446;5.2385;-0.0801;-0.2962;-0.1162
0000140482;8.9830;-13.3980;5.1404;-0.0913;-0.2200;-0.1436
0000140490;9.0501;-13.0963;4.9488;-0.1054;-0.1354;-0.1816
0000140498;8.9160;-12.9670;4.8842;-0.1163;-0.0598;-0.2220
0000140506;8.6000;-12.8736;4.8698;-0.1118;0.0084;-0.2583
0000140514;8.3031;-12.5360;4.9201;-0.0941;0.0782;-0.2754
0000140522;7.8985;-12.5480;4.9871;-0.0762;0.1431;-0.2831
0000140530;7.4843;-12.3828;5.2864;-0.0529;0.1837;-0.2899
0000140538;6.9145;-12.6390;5.5378;-0.0061;0.2040;-0.3078
0000140546;6.6224;-12.6917;5.7772;0.0272;0.2153;-0.3088
0000140554;6.1866;-12.9359;5.9927;0.0424;0.2044;-0.3175
0000140562;5.5450;-13.2950;6.2560;0.0441;0.1697;-0.3332
0000140570;4.9775;-13.7762;6.5410;0.0418;0.1116;-0.3556
0000140578;4.7716;-14.1210;6.7876;0.0437;0.0544;-0.3529
0000140586;4.7716;-14.3580;6.8690;0.0638;-0.0179;-0.3497
0000140594;5.1858;-14.3915;7.0246;0.0865;-0.0726;-0.3204
0000140602;5.3846;-14.4586;7.0725;0.1155;-0.1223;-0.3060
0000140610;5.7102;-14.4299;7.0390;0.1463;-0.1581;-0.2846
0000140618;6.4620;-13.8768;7.0916;0.1592;-0.1656;-0.2514
0000140626;6.6607;-13.7978;6.9097;0.1567;-0.1541;-0.2033
0000140634;6.9983;-13.3716;6.7205;0.1510;-0.1428;-0.1643
0000140642;6.8881;-13.3070;6.5769;0.1439;-0.1283;-0.1154
0000140650;7.0413;-13.0388;6.6056;0.1220;-0.1019;-0.0618
0000140658;6.7900;-12.9095;6.5553;0.1111;-0.0841;-0.0113
0000140666;6.5434;-13.0221;6.5074;0.0918;-0.0802;0.0308
0000140674;6.1914;-13.1106;6.3973;0.0953;-0.0890;0.0616
0000140682;6.1148;-13.4291;6.3877;0.0895;-0.1067;0.0918
0000140690;6.1962;-13.3333;6.2824;0.0782;-0.1272;0.1172
0000140698;6.1124;-13.5751;6.1052;0.0741;-0.1491;0.1486
0000140706;6.0621;-13.6422;5.9256;0.0409;-0.1649;0.1857
0000140714;6.2560;-13.7978;5.8826;0.0199;-0.1808;0.2202
0000140722;6.3590;-14.0899;5.7030;-0.0053;-0.1855;0.2526
0000140730;6.3279;-14.3508;5.6264;-0.0188;-0.1871;0.2874
0000140738;6.4332;-14.3987;5.4971;-0.0397;-0.1683;0.3227
0000140746;6.8594;-14.2407;5.4157;-0.0446;-0.1524;0.3416
0000140754;6.7540;-14.4203;5.3032;-0.0492;-0.1276;0.3519
0000140762;6.7660;-14.5735;5.3295;-0.0317;-0.1018;0.3543
0000140770;6.8953;-14.5304;5.3391;-0.0201;-0.0746;0.3452
0000140779;7.0868;-14.4514;5.1380;0.0079;-0.0352;0.3186
0000140788;7.4268;-14.3197;5.0901;0.0333;0.0268;0.2854
0000140797;7.3885;-14.3532;4.9775;0.0636;0.0854;0.2376
0000140806;7.4460;-14.4586;5.0613;0.0883;0.1525;0.1735
0000140894;5.6958;-15.1266;5.1571;0.0449;0.3432;-0.2253
0000140903;5.7269;-14.9278;5.1763;0.0488;0.3232;-0.2132
0000140912;5.7461;-14.9494;5.1427;0.0380;0.3071;-0.1932
0000140921;5.6671;-14.8249;5.0685;0.0385;0.2751;-0.1931
0000140930;5.5450;-14.7028;4.8315;0.0217;0.2386;-0.1813
0000140939;5.9041;-14.2814;4.5969;-0.0003;0.2172;-0.1577
0000140948;5.7940;-14.1761;4.4700;-0.0254;0.1848;-0.1348
0000140957;5.8658;-14.1018;4.1755;-0.0569;0.1628;-0.1013
0000140966;6.2441;-14.1186;3.9528;-0.0823;0.1476;-0.0628
0000140975;6.2991;-14.1114;3.8403;-0.0967;0.1399;-0.0226
0000140984;6.5864;-14.1809;3.8188;-0.1119;0.1388;0.0205
0000140993;6.5984;-14.4227;3.7373;-0.0963;0.1306;0.0506
0000141002;6.6750;-14.2503;3.4812;-0.0846;0.1362;0.0775
0000141011;6.7277;-14.3508;3.4884;-0.0685;0.1335;0.0851
0000141020;6.3255;-14.4322;3.4357;-0.0753;0.1251;0.0798
0000141029;6.1603;-14.6908;3.2920;-0.0729;0.1086;0.0548
0000141038;5.8155;-14.7483;3.2705;-0.0750;0.0826;0.0100
0000141047;5.5952;-14.6741;3.3495;-0.0778;0.0469;-0.0570
0000141056;5.3893;-14.4442;3.1867;-0.1077;0.0197;-0.1154
0000141065;5.2984;-14.2096;3.1364;-0.1524;-0.0232;-0.1768
0000141074;5.3654;-13.8983;3.2872;-0.2531;-0.0410;-0.2110
0000141083;5.9496;-13.2998;3.6081;-0.3900;-0.0670;-0.2490
0000141092;6.4500;-13.1394;3.4477;-0.5446;-0.0847;-0.2657
0000141101;6.6607;-13.2495;3.3591;-0.6644;-0.1075;-0.2753
0000141110;6.6559;-14.1378;3.5745;-0.6884;-0.1071;-0.2669
0000141119;6.7086;-14.9781;3.8427;-0.6486;-0.0847;-0.2429
0000141128;6.3183;-16.0866;4.2856;-0.5393;-0.0646;-0.2196
0000141137;6.1148;-17.0084;4.6448;-0.4022;-0.0521;-0.2161
0000141146;5.8634;-17.6213;4.7812;-0.2478;-0.0497;-0.2170
0000141155;5.5857;-17.9709;4.6591;-0.0855;-0.0723;-0.2136
0000141164;5.4372;-17.6908;4.3694;0.0145;-0.0818;-0.1896
0000141173;5.3439;-17.3101;3.8858;0.0518;-0.1267;-0.1624
0000141182;5.2409;-16.7618;3.8499;0.0233;-0.1745;-0.1292
0000141191;5.3343;-16.3021;3.9193;-0.0361;-0.2154;-0.0645
0000141200;5.4037;-16.3596;3.8930;-0.0849;-0.2527;0.0199
0000141209;5.5234;-16.2925;4.3622;-0.1041;-0.2677;0.1077
0000141218;5.5306;-16.5320;4.6639;-0.1096;-0.2617;0.2030
0000141227;5.9161;-16.6110;4.8267;-0.0905;-0.2422;0.2761
0000141236;6.3015;-16.5727;5.1140;-0.0894;-0.2096;0.3367
0000141245;6.7995;-16.2183;5.4468;-0.0735;-0.1988;0.3527
0000141254;7.1611;-16.3668;5.5474;-0.0797;-0.1805;0.3628
0000141263;7.6686;-16.2207;5.6048;-0.0981;-0.1677;0.3579
0000141272;7.6998;-16.1417;5.5402;-0.1399;-0.1256;0.3564
0000141281;7.9128;-15.5791;6.4260;-0.1543;-0.0638;0.3477
0000141290;7.6686;-15.7874;6.8761;-0.1915;0.0312;0.3641
0000141299;7.4268;-15.8975;5.9951;-0.2249;0.1467;0.3996
0000141308;7.5010;-15.2415;5.4324;-0.2277;0.2333;0.3813
0000141317;6.9959;-14.7196;5.3893;-0.2381;0.2741;0.3408
0000141326;6.5625;-13.9678;5.4061;-0.2490;0.2687;0.2811
0000141335;5.8179;-13.6877;5.4061;-0.2785;0.2342;0.2156
0000141344;5.4708;-13.4482;5.2768;-0.2907;0.1524;0.1479
0000141353;5.1906;-13.2351;5.1523;-0.2831;0.0714;0.1154
0000141362;5.2481;-13.0867;5.2289;-0.2499;-0.0077;0.0930
0000141371;5.2265;-13.2328;5.4612;-0.2073;-0.0670;0.0937
0000141380;5.7964;-13.2064;5.7700;-0.1529;-0.1140;0.0993
0000141389;6.3327;-13.6062;5.8107;-0.1104;-0.1463;0.0930
0000141398;7.0413;-13.6086;5.9424;-0.0681;-0.1643;0.0753
0000141407;7.5729;-13.6206;6.1842;-0.0396;-0.1400;0.0669
0000141416;7.8578;-13.6541;6.3925;-0.0079;-0.1146;0.0486
0000141425;8.0325;-13.4722;6.3375;0.0009;-0.0793;0.0486
0000141434;7.7955;-13.4363;6.2465;0.0013;-0.0393;0.0524
0000141443;7.5681;-13.3836;6.0717;-0.0088;-0.0043;0.0566
0000141452;7.3191;-13.4674;6.1004;-0.0109;0.0201;0.0525
0000141461;7.2640;-13.4482;5.9687;-0.0228;0.0253;0.0540
0000141470;7.1898;-13.8529;5.8849;-0.0410;0.0346;0.0588
0000141479;6.9647;-14.1904;5.7174;-0.0540;0.0164;0.0626
0000141488;6.7469;-14.7555;5.7557;-0.0578;0.0100;0.0811
0000141497;6.5410;-15.3827;5.7724;-0.0568;-0.0241;0.0826
0000141506;6.4404;-15.7179;5.7940;-0.0358;-0.0717;0.0869
0000141515;6.1914;-16.0052;5.6336;-0.0032;-0.1167;0.0777
0000141524;6.0621;-16.1417;5.4947;0.0220;-0.1585;0.0682
0000141612;6.7205;-13.9319;4.2545;0.0482;-0.3175;-0.0490
0000141621;6.8354;-13.9917;4.2138;0.0433;-0.3143;-0.0428
0000141630;6.8546;-14.3221;4.2665;0.0204;-0.3011;-0.0353
0000141639;6.6295;-14.7866;4.3718;0.0055;-0.2990;-0.0430
0000141648;6.8450;-14.8464;4.3694;0.0258;-0.2894;-0.0329
0000141657;6.8378;-15.1912;4.3335;0.0433;-0.2818;-0.0103
0000141666;7.0294;-15.2104;4.4053;0.0617;-0.2710;0.0233
0000141675;6.9264;-14.8848;4.3239;0.0634;-0.2614;0.0604
0000141684;6.7900;-14.7243;4.3718;0.0398;-0.2565;0.1086
0000141693;6.7301;-14.3580;4.3551;-0.0084;-0.2565;0.1484
0000141702;6.7253;-14.2263;4.3718;-0.0638;-0.2639;0.1828
0000141711;6.6846;-14.2503;4.2976;-0.1179;-0.2727;0.2000
0000141720;6.5050;-14.4083;4.1587;-0.1677;-0.2835;0.2161
0000141729;6.2632;-15.0476;3.9887;-0.2014;-0.2951;0.2152
0000141738;6.2058;-15.2247;3.9528;-0.2262;-0.3030;0.2274
0000141747;6.1818;-15.5863;3.9409;-0.2097;-0.3171;0.2208
0000141756;6.4356;-15.7467;3.9265;-0.1692;-0.3244;0.2077
0000141765;6.2800;-16.0579;3.9289;-0.1219;-0.3242;0.1940
0000141774;6.6343;-15.8448;3.8690;-0.0822;-0.3275;0.1629
0000141783;6.9599;-15.6174;3.8403;-0.0438;-0.3012;0.1379
0000141792;7.3287;-15.1936;3.9648;-0.0053;-0.2835;0.1061
0000141801;7.1874;-15.0164;4.0270;0.0108;-0.2422;0.0822
0000141810;7.6710;-14.6238;3.9361;0.0293;-0.2033;0.0485
0000141819;7.6902;-14.3652;4.1444;0.0346;-0.1528;0.0135
0000141828;7.8745;-14.4107;4.1899;0.0328;-0.0995;-0.0196
0000141837;8.0349;-14.3700;4.2689;0.0159;-0.0370;-0.0561
0000141846;8.2241;-14.4514;4.0606;-0.0087;0.0338;-0.0795
0000141855;8.0134;-15.0021;4.0773;-0.0269;0.0925;-0.0934
0000141864;8.0278;-15.2463;4.0175;-0.0364;0.1438;-0.1126
0000141873;7.5657;-15.3588;3.9265;-0.0342;0.1633;-0.1276
0000141882;7.1682;-15.3325;3.8379;-0.0394;0.1859;-0.1122
0000141891;6.8714;-15.1888;3.6440;-0.0372;0.1655;-0.1045
0000141900;6.3638;-15.0045;3.4644;-0.0538;0.1386;-0.0709
0000141909;6.3183;-14.6956;3.2178;-0.0915;0.1010;-0.0557
0000141918;5.9879;-14.7028;3.0909;-0.1455;0.0625;-0.0230
0000141927;6.1363;-14.5831;3.0718;-0.2057;0.0257;0.0021
0000141936;6.4236;-14.7507;3.1963;-0.2413;0.0024;0.0332
0000141945;6.7564;-15.1074;3.5745;-0.2549;-0.0149;0.0490
0000141954;7.1658;-15.5240;3.7541;-0.2325;-0.0099;0.0637
0000141963;7.5154;-15.9119;3.9863;-0.1876;0.0024;0.0695
0000141972;8.0325;-16.0531;4.0725;-0.1399;0.0374;0.0667
0000141981;8.1499;-16.2423;3.9720;-0.1017;0.0849;0.0632
0000141990;8.3558;-16.1776;3.6966;-0.0886;0.1420;0.0341
0000141999;8.2289;-16.1345;3.5243;-0.0882;0.1986;-0.0088
0000142008;8.0685;-16.0627;3.4740;-0.0786;0.2613;-0.0592
0000142017;7.9320;-16.2901;3.6536;-0.0786;0.3335;-0.0962
0000142026;7.8889;-16.4530;3.8930;-0.0520;0.3740;-0.1290
0000142035;7.8673;-16.5607;3.9840;-0.0284;0.4181;-0.1448
0000142044;7.4891;-16.7235;4.5442;0.0167;0.4374;-0.1631
0000142053;6.9168;-16.9964;5.0518;0.0654;0.4323;-0.1713
0000142062;6.2776;-17.0371;5.0996;0.1120;0.3837;-0.1970
0000142071;5.7748;-16.8791;5.2098;0.1308;0.3172;-0.2246
0000142080;5.1787;-16.5344;5.3893;0.1328;0.2409;-0.2333
0000142089;4.6831;-16.5798;5.7341;0.1475;0.1387;-0.2421
0000142098;4.7812;-16.2542;5.5881;0.1299;0.0517;-0.2370
0000142107;5.1882;-16.0244;5.2553;0.1142;-0.0289;-0.2489
0000142116;5.7437;-15.8281;4.9871;0.0693;-0.0842;-0.2405
0000142125;6.3590;-15.5982;4.7860;0.0237;-0.1270;-0.2353
0000142134;7.0294;-15.3109;4.6998;-0.0232;-0.1302;-0.2038
0000142143;7.4771;-15.1505;4.5969;-0.0441;-0.1139;-0.1787
0000142152;7.6160;-14.9111;4.4029;-0.0670;-0.0685;-0.1498
0000142161;7.6231;-14.7459;4.2066;-0.0695;-0.0305;-0.1418
0000142170;7.5633;-14.6597;4.0462;-0.0582;0.0183;-0.1402
0000142179;7.5250;-14.6022;4.0486;-0.0378;0.0663;-0.1532
0000142188;7.4005;-14.3485;4.2737;0.0035;0.0903;-0.1845
0000142197;7.0677;-14.2120;4.6543;0.0364;0.1043;-0.2146
0000142206;6.7732;-14.2359;4.7333;0.0801;0.0982;-0.2525
0000142215;6.5984;-13.9821;4.9799;0.1251;0.0890;-0.2821
0000142224;6.0525;-13.8289;5.2098;0.1783;0.0610;-0.3120
0000142233;5.7317;-13.5775;5.4612;0.2104;0.0374;-0.3216
0000142242;5.5737;-13.4722;5.6862;0.2268;0.0116;-0.3112
0000142330;5.7557;-14.2647;6.0142;0.1067;-0.1124;-0.1439
0000142339;5.8897;-14.2000;6.0118;0.1151;-0.1171;-0.1211
0000142348;5.8610;-14.2862;5.8873;0.1210;-0.1327;-0.0819
0000142357;5.7413;-14.1904;5.8251;0.1062;-0.1346;-0.0261
0000142366;5.8059;-14.1234;5.7245;0.0878;-0.1291;0.0445
0000142375;5.5569;-14.2479;5.6264;0.0576;-0.1335;0.1188
0000142384;5.5545;-14.3006;5.6168;0.0365;-0.1375;0.1833
0000142393;5.5282;-14.4299;5.6383;0.0188;-0.1439;0.2313
0000142402;5.5569;-14.7148;5.6144;0.0240;-0.1495;0.2706
0000142411;5.7197;-14.7650;5.5115;0.0400;-0.1628;0.2915
0000142420;5.7485;-14.9015;5.5378;0.0617;-0.1701;0.3003
0000142429;5.9352;-14.6429;5.4133;0.0745;-0.1788;0.2948
0000142438;5.8419;-14.6405;5.5186;0.0789;-0.1880;0.2882
0000142447;6.0741;-14.6094;5.3295;0.0859;-0.1952;0.2717
0000142456;5.8921;-14.4418;5.2648;0.0919;-0.1911;0.2474
0000142465;6.0023;-14.3245;5.2337;0.1087;-0.1877;0.2232
0000142474;6.1100;-14.3030;5.2888;0.1363;-0.1747;0.1994
0000142483;5.9400;-14.3772;5.2744;0.1631;-0.1619;0.1672
0000142492;6.2752;-14.0995;5.2098;0.1780;-0.1384;0.1402
0000142501;6.5793;-13.8002;5.2313;0.1911;-0.1311;0.1053
0000142510;6.4452;-13.8313;5.0350;0.1796;-0.1102;0.0809
0000142519;6.4667;-13.6446;5.0230;0.1655;-0.1077;0.0532
0000142528;6.3470;-13.7379;4.8914;0.1378;-0.1114;0.0426
0000142537;6.2752;-13.8289;4.9488;0.1107;-0.1202;0.0424
0000142546;6.2082;-14.0827;4.9871;0.0909;-0.1282;0.0537
0000142555;6.0238;-14.2982;5.0589;0.0850;-0.1379;0.0637
0000142564;5.9640;-14.5280;5.1020;0.0927;-0.1579;0.0648
0000142573;6.2177;-14.7028;5.1092;0.1059;-0.1512;0.0814
0000142582;6.2608;-14.7938;5.1619;0.1340;-0.1510;0.0730
0000142591;6.4691;-14.6405;5.1954;0.1491;-0.1302;0.0819
0000142600;6.4356;-14.5065;5.2146;0.1612;-0.1130;0.0767
0000142609;6.4620;-14.4538;5.1523;0.1591;-0.0999;0.0662
0000142618;6.3159;-14.4801;4.9656;0.1483;-0.0923;0.0468
0000142627;6.2201;-14.5137;4.9847;0.1338;-0.0890;0.0274
0000142636;6.2584;-14.5711;5.1020;0.1215;-0.0921;0.0161
0000142645;6.2848;-14.7531;5.1930;0.1232;-0.0954;0.0091
0000142654;6.2082;-15.0595;5.3127;0.1323;-0.0917;0.0189
0000142663;6.2297;-15.0739;5.2529;0.1395;-0.0858;0.0318
0000142672;6.4620;-14.9015;5.1284;0.1447;-0.0818;0.0429
0000142681;6.3734;-14.8800;5.0206;0.1516;-0.0746;0.0510
0000142690;6.4572;-14.7842;4.9129;0.1478;-0.0721;0.0681
0000142699;6.3494;-14.6836;4.7357;0.1452;-0.0725;0.0747
0000142708;6.3901;-14.5424;4.6974;0.1340;-0.0841;0.0766
0000142717;6.3159;-14.4897;4.7238;0.1202;-0.0886;0.0801
0000142726;6.1651;-14.5567;4.6184;0.1078;-0.0974;0.0738
0000142735;6.0956;-14.5998;4.5514;0.1034;-0.1054;0.0761
0000142744;5.9855;-14.7579;4.4269;0.0977;-0.1096;0.0706
0000142753;6.1603;-14.6501;4.4748;0.0879;-0.1069;0.0681
0000142762;6.1651;-14.6549;4.2545;0.0839;-0.1256;0.0506
0000142771;6.2465;-14.5280;4.2689;0.0662;-0.1251;0.0424
0000142780;6.3686;-14.4706;4.2952;0.0582;-0.1460;0.0253
0000142789;6.1292;-14.4131;4.0486;0.0430;-0.1459;0.0187
0000142798;6.3039;-14.3700;4.0749;0.0348;-0.1595;0.0028
0000142807;6.1196;-14.5567;4.0917;0.0264;-0.1752;-0.0068
0000142816;6.0190;-14.4993;3.9935;0.0176;-0.1929;-0.0270
0000142825;6.0358;-14.3508;3.8164;0.0096;-0.2157;-0.0452
0000142834;5.9903;-14.3652;3.7948;-0.0124;-0.2321;-0.0572
0000142843;5.9592;-14.3317;3.6607;-0.0373;-0.2585;-0.0687
0000142852;5.9352;-14.2383;3.5530;-0.0799;-0.2683;-0.0743
0000142861;5.9280;-14.3245;3.6296;-0.1160;-0.2850;-0.0831
0000142870;6.1100;-14.0707;3.6392;-0.1518;-0.2899;-0.0775
0000142879;6.1100;-14.2096;3.5386;-0.1807;-0.3034;-0.0890
0000142888;6.1890;-14.2838;3.5530;-0.2105;-0.3096;-0.1031
0000142897;6.1052;-14.5424;3.4931;-0.2463;-0.3026;-0.1061
0000142906;6.4260;-14.5687;3.6990;-0.2511;-0.3030;-0.1220
0000142915;6.4907;-14.8393;3.9409;-0.2537;-0.2847;-0.1391
0000142924;6.5074;-15.0643;4.0558;-0.2511;-0.2583;-0.1584
0000142933;6.8594;-14.9350;4.0510;-0.2356;-0.2439;-0.1829
0000142942;6.7516;-14.9255;3.8930;-0.2388;-0.2206;-0.1888
0000142951;6.9121;-14.9398;4.0821;-0.2373;-0.2076;-0.1936
0000142960;6.6966;-15.2391;4.3120;-0.2381;-0.1982;-0.1845
0000143103;5.5952;-15.0691;4.8459;-0.2762;0.3997;0.0588
0000143112;5.6503;-15.0093;4.6280;-0.2735;0.3802;0.0216
0000143121;5.5282;-14.8943;4.4987;-0.2794;0.3556;-0.0085
0000143130;5.4995;-14.8081;4.5226;-0.2669;0.3067;-0.0537
0000143139;5.3774;-14.6980;4.4005;-0.2493;0.2634;-0.0838
0000143148;5.3032;-14.5328;4.3311;-0.2154;0.2250;-0.1099
0000143157;5.5617;-14.0228;4.4221;-0.1943;0.1924;-0.1187
0000143166;5.6790;-13.8600;4.6711;-0.1681;0.1696;-0.1199
0000143175;6.0549;-13.4841;4.8530;-0.1557;0.1721;-0.1211
0000143184;6.7109;-13.2471;4.9536;-0.1406;0.1776;-0.1336
0000143193;7.2975;-13.3237;5.1906;-0.1382;0.2185;-0.1407
0000143202;8.0900;-13.2256;5.5043;-0.1427;0.2936;-0.1380
0000143211;8.4372;-13.4291;5.7628;-0.1290;0.3676;-0.1568
0000143220;8.9735;-13.3525;5.9927;-0.1041;0.4615;-0.1699
0000143229;8.9399;-13.6709;6.0932;-0.0702;0.5580;-0.1929
0000143238;8.7580;-14.1617;6.4691;-0.0244;0.6426;-0.2098
0000143247;8.6407;-14.1138;6.5122;0.0104;0.7310;-0.2328
0000143256;7.8650;-14.3341;6.6870;0.0558;0.7986;-0.2562
0000143265;7.4292;-14.3676;6.6511;0.0999;0.8324;-0.2919
0000143274;6.9264;-14.3892;6.4476;0.1184;0.8540;-0.3082
0000143283;6.4715;-14.2575;6.4500;0.1292;0.8460;-0.3283
0000143292;6.1459;-14.1402;6.3422;0.1017;0.8203;-0.3311
0000143301;6.0142;-13.7379;6.1746;0.0710;0.7723;-0.3457
0000143310;6.0597;-13.9343;6.0262;0.0425;0.7119;-0.3588
0000143319;6.2321;-14.2192;5.8586;0.0141;0.6628;-0.3800
0000143328;6.6726;-14.1737;5.6695;-0.0177;0.6245;-0.3917
0000143337;6.9480;-14.7100;5.5162;-0.0325;0.5949;-0.4231
0000143346;7.4962;-14.7794;5.5857;-0.0436;0.5931;-0.4467
0000143355;7.8290;-15.0811;5.4085;-0.0305;0.6079;-0.4711
0000143364;7.9966;-15.3420;5.2696;-0.0141;0.6483;-0.5064
0000143373;8.2265;-15.3013;5.2218;0.0104;0.6939;-0.5514
0000143382;8.4180;-15.1218;5.1858;0.0203;0.7529;-0.5949
0000143391;8.3486;-15.0930;5.0757;0.0502;0.8037;-0.6364
0000143400;8.1594;-15.0715;5.0111;0.0699;0.8664;-0.6715
0000143409;7.9703;-14.8393;5.0278;0.1007;0.9133;-0.7021
0000143418;7.7500;-14.7172;4.9680;0.1234;0.9574;-0.7300
0000143427;7.5681;-14.6070;4.8866;0.1394;0.9979;-0.7401
0000143436;7.4077;-14.4753;4.8554;0.1596;1.0408;-0.7578
0000143445;7.3263;-14.3532;4.8914;0.1839;1.0805;-0.7512
0000143454;7.2927;-14.3652;4.7405;0.1848;1.1259;-0.7472
0000143463;7.2832;-14.4394;4.8411;0.1888;1.1469;-0.7653
0000143472;7.3598;-14.5951;4.8507;0.1969;1.1800;-0.7675
0000143481;7.2065;-14.8129;4.6974;0.2296;1.2104;-0.7773
0000143490;7.3287;-14.6501;4.7262;0.2421;1.2368;-0.7739
0000143499;7.2449;-14.6717;4.8626;0.2525;1.2498;-0.7801
0000143508;7.1874;-14.7124;4.7716;0.2546;1.2630;-0.7814
0000143517;7.0653;-14.7052;4.6328;0.2549;1.2661;-0.7690
0000143526;6.9623;-14.7172;4.6639;0.2491;1.2657;-0.7693
0000143535;6.8331;-14.6741;4.6591;0.2312;1.2669;-0.7508
0000143544;7.0390;-14.6884;4.4987;0.2150;1.2677;-0.7482
0000143553;6.8211;-14.9566;4.4819;0.1868;1.2620;-0.7288
0000143562;6.9288;-15.0380;4.5442;0.1681;1.2589;-0.7310
0000143571;7.0629;-15.0787;4.5035;0.1728;1.2490;-0.7372
0000143580;7.0366;-15.1936;4.4341;0.1832;1.2385;-0.7489
0000143589;6.8570;-15.4163;4.4532;0.1867;1.2340;-0.7533
0000143598;6.7947;-15.4522;4.3694;0.2064;1.2129;-0.7633
0000143607;6.9432;-15.2032;4.2808;0.2054;1.2023;-0.7589
0000143616;7.0294;-15.1505;4.1108;0.2108;1.1911;-0.7675
0000143625;7.0629;-15.2798;4.1420;0.1940;1.1973;-0.7637
0000143634;7.4795;-15.2319;4.0414;0.1944;1.2172;-0.7686
0000143643;7.5609;-15.2606;4.0845;0.1876;1.2609;-0.7819
0000143652;7.7285;-15.3947;4.1851;0.1968;1.3107;-0.7997
0000143661;8.0110;-15.5719;4.1946;0.2309;1.3698;-0.8343
0000143670;8.1762;-15.4785;4.0031;0.2638;1.4345;-0.8605
0000143679;8.3582;-15.2606;3.9337;0.2745;1.5046;-0.9030
0000143688;8.4060;-14.8656;3.7565;0.2661;1.5731;-0.9417
0000143697;8.2121;-14.6741;3.7206;0.2281;1.6358;-0.9799
0000143706;7.9009;-14.3604;3.6943;0.1855;1.6767;-1.0150
0000143715;7.8961;-14.2287;3.6799;0.1179;1.7087;-1.0407
0000143724;7.7955;-14.1689;3.8690;0.0644;1.7180;-1.0662
0000143733;7.8769;-14.3389;4.1827;0.0073;1.7231;-1.0892
0000143742;7.8219;-14.5663;4.1108;-0.0242;1.7175;-1.1024
0000143830;3.9025;-15.6653;5.6264;-0.0056;1.0388;-1.0380
0000143839;4.4005;-15.1122;5.6790;0.0151;0.9418;-1.0094
0000143848;4.7956;-14.8297;5.7197;0.0337;0.8828;-0.9710
0000143857;5.4564;-14.2838;5.6336;0.0498;0.8512;-0.9240
0000143866;6.0621;-13.9821;5.6790;0.0496;0.8588;-0.8631
0000143875;6.3782;-13.9821;5.7892;0.0702;0.8768;-0.8127
0000143884;6.5769;-13.9606;5.7916;0.0918;0.9178;-0.7635
0000143893;7.0054;-14.0324;5.8897;0.1139;0.9674;-0.7302
0000143902;7.1778;-14.2527;5.9113;0.1248;1.0112;-0.7320
0000143911;7.0797;-14.4370;5.9472;0.1328;1.0541;-0.7562
0000143920;7.0246;-14.4993;5.9089;0.1412;1.0958;-0.7877
0000143929;6.9791;-14.5304;5.8323;0.1729;1.1382;-0.8476
0000143938;6.5577;-14.6477;5.7628;0.2065;1.1997;-0.8950
0000143947;6.5769;-14.4227;5.7126;0.2304;1.2777;-0.9241
0000143956;6.6415;-14.0492;5.5545;0.2679;1.3682;-0.9587
0000143965;6.3087;-13.7858;5.6336;0.2778;1.4643;-0.9710
0000143974;6.3135;-13.4195;5.6336;0.2862;1.5501;-0.9894
0000143983;5.8706;-13.6685;5.5713;0.2802;1.6161;-1.0083
0000143992;5.7676;-13.5919;5.5282;0.2610;1.6874;-1.0188
0000144001;5.3726;-13.5608;5.4827;0.2338;1.7275;-1.0400
0000144010;5.0973;-13.6996;5.2840;0.1947;1.7553;-1.0479
0000144019;5.0015;-13.7355;5.1044;0.1704;1.7625;-1.0605
0000144028;4.9344;-13.7714;4.9608;0.1384;1.7658;-1.0535
0000144037;4.9584;-13.6062;4.8123;0.1290;1.7633;-1.0552
0000144046;5.0996;-13.6398;4.5442;0.1176;1.7601;-1.0424
0000144055;5.2601;-13.4578;4.4460;0.0862;1.7712;-1.0257
0000144064;5.3486;-13.6709;4.5035;0.0509;1.7845;-1.0207
0000144073;5.5569;-13.7882;4.4939;0.0326;1.8008;-1.0296
0000144080;5.5330;-14.0348;4.5226;0.0185;1.8190;-1.0349
0000144088;5.8323;-14.0611;4.5011;0.0101;1.8385;-1.0504
0000144096;5.7796;-14.2623;4.5226;-0.0088;1.8640;-1.0713
0000144104;5.6934;-14.5567;4.5610;-0.0288;1.8802;-1.0869
0000144112;5.6982;-14.7650;4.7022;-0.0502;1.9040;-1.1139
0000144120;5.5833;-14.8464;4.6735;-0.0689;1.9167;-1.1611
0000144128;5.7700;-14.8177;4.6831;-0.0909;1.9332;-1.1968
0000144136;5.7868;-14.9829;4.6112;-0.0999;1.9534;-1.2373
0000144144;5.9783;-15.0428;4.5897;-0.1122;1.9704;-1.2674
0000144152;5.9017;-14.9853;4.5203;-0.1057;1.9862;-1.3157
0000144160;5.6790;-15.0691;4.4532;-0.1099;1.9973;-1.3342
0000144168;5.6719;-14.9374;4.4628;-0.1017;2.0114;-1.3688
0000144176;5.4372;-15.0907;4.4867;-0.0977;2.0159;-1.3755
0000144184;5.4348;-15.1337;4.6280;-0.0921;2.0246;-1.3751
0000144192;5.5641;-14.9494;4.6160;-0.0845;2.0252;-1.3721
