time;acc_x;acc_y;acc_z;gyro_x;gyro_y;gyro_z
0000021880;7.2353;-15.1050;4.6017;-0.2120;0.2293;-0.0133
0000021888;7.3550;-15.4426;4.5538;-0.2018;0.2606;-0.0465
0000021895;7.2353;-15.6868;4.4317;-0.1855;0.2864;-0.0727
0000021903;7.3143;-15.8616;4.3359;-0.1494;0.3167;-0.0847
0000021912;7.1754;-16.2279;4.5777;-0.0725;0.3671;-0.0887
0000021920;6.8546;-16.2949;4.9991;-0.0143;0.3826;-0.0758
0000021932;6.3255;-16.4625;4.7453;0.0480;0.4061;-0.0554
0000021940;6.0214;-16.4697;4.8028;0.0977;0.4295;-0.0229
0000021948;5.5857;-16.3620;4.7597;0.1444;0.4229;0.0101
0000021959;5.2625;-16.0603;4.6208;0.1577;0.3802;0.0396
0000021967;5.1260;-15.6844;4.4580;0.1764;0.3471;0.0500
0000021979;4.7669;-15.4258;4.5586;0.2046;0.2988;0.0902
0000021987;4.4796;-15.2870;4.5562;0.1943;0.2445;0.1090
0000021998;4.3766;-14.9709;4.2617;0.1821;0.1547;0.1607
0000022006;4.3838;-14.7674;4.0390;0.1559;0.0857;0.1990
0000022018;4.4532;-14.6645;4.1539;0.0775;-0.0117;0.2313
0000022026;4.3958;-14.6836;4.0534;0.0392;-0.0743;0.2607
0000022034;4.3431;-14.6286;4.2114;-0.0011;-0.1262;0.2888
0000022045;4.4724;-14.4777;3.9887;-0.0024;-0.2017;0.3256
0000022053;4.6567;-14.2527;3.9816;0.0129;-0.2747;0.3291
0000022121;8.0828;-13.8433;3.6727;-0.1968;-0.4971;-0.1039
0000022129;8.3653;-14.0971;3.7757;-0.2224;-0.4855;-0.1848
0000022140;8.1020;-14.8057;3.7397;-0.2443;-0.4402;-0.2451
0000022148;7.4148;-15.5384;3.9121;-0.2629;-0.3958;-0.2561
0000022161;6.7445;-16.2375;4.6735;-0.2737;-0.3296;-0.2495
0000022168;6.4907;-16.2997;4.7094;-0.2746;-0.2747;-0.2170
0000022179;5.9424;-16.5176;4.8698;-0.2669;-0.2190;-0.1283
0000022187;5.9544;-16.2447;4.8626;-0.2490;-0.2128;-0.0765
0000022195;5.7748;-16.1321;4.7381;-0.2201;-0.2073;-0.0374
0000022207;5.9113;-15.7754;4.7884;-0.1556;-0.2017;0.0008
0000022215;6.2058;-15.3181;4.8722;-0.1107;-0.2042;0.0081
0000022226;6.5290;-14.7243;4.7214;-0.0825;-0.1777;0.0096
0000022234;6.5362;-14.4777;4.8267;-0.0817;-0.1514;0.0113
0000022246;6.7062;-14.6094;4.8171;-0.1183;-0.0987;0.0064
0000022254;6.9839;-14.4059;4.9297;-0.1548;-0.0542;0.0132
0000022266;7.0533;-14.6453;4.8674;-0.1893;-0.0103;0.0160
0000022273;6.9767;-14.8225;4.8243;-0.2040;0.0156;0.0175
0000022285;6.7947;-15.0164;4.5921;-0.2128;0.0513;0.0013
0000022293;6.8115;-14.9949;4.4173;-0.1985;0.0582;-0.0156
0000022301;6.7900;-14.8895;4.2569;-0.1860;0.0673;-0.0341
0000022312;6.5817;-14.8824;4.2306;-0.1636;0.0739;-0.0658
0000022320;6.4907;-14.9135;4.2234;-0.1392;0.0758;-0.0881
0000022388;6.8977;-15.6413;4.4819;-0.0151;0.0875;-0.0923
0000022396;6.8259;-15.8424;4.5825;0.0080;0.0903;-0.0883
0000022407;6.7756;-15.9262;4.6328;0.0396;0.0947;-0.0755
0000022415;6.8378;-15.7347;4.6112;0.0686;0.0990;-0.0714
0000022427;6.9432;-15.4689;4.6064;0.1094;0.0846;-0.0917
0000022435;6.8690;-15.3827;4.4891;0.1238;0.0786;-0.1039
0000022443;7.1778;-15.0691;4.4939;0.1272;0.0815;-0.1070
0000022454;7.0988;-14.9638;4.3910;0.1242;0.0846;-0.1192
0000022462;7.0150;-14.8608;4.3886;0.1215;0.0879;-0.1230
0000022474;6.9264;-14.8943;4.4005;0.1083;0.0946;-0.1208
0000022482;7.1922;-14.8081;4.4125;0.1063;0.0950;-0.1230
0000022493;6.9216;-14.7674;4.4365;0.1022;0.0870;-0.1135
0000022501;6.9983;-14.6860;4.4029;0.0917;0.0945;-0.1031
0000022513;6.8857;-14.7962;4.3144;0.0805;0.0953;-0.0866
0000022521;6.7062;-14.7291;4.3503;0.0715;0.0937;-0.0682
0000022529;6.6056;-14.6693;4.1851;0.0693;0.0894;-0.0540
0000022540;6.4620;-14.8560;4.1539;0.0634;0.0771;-0.0285
0000022548;6.3446;-14.9207;4.2401;0.0580;0.0690;-0.0088
0000022560;6.2800;-14.9638;4.2329;0.0777;0.0524;0.0107
0000022568;6.5003;-15.0212;4.1420;0.0851;0.0482;0.0288
0000022580;6.4380;-15.2750;4.1563;0.1029;0.0449;0.0420
0000022588;6.6774;-15.3277;4.1420;0.1247;0.0442;0.0422
0000022656;6.7612;-14.9494;4.4604;0.1031;0.0573;0.0281
0000022664;6.8738;-14.7028;4.4628;0.0819;0.0682;0.0481
0000022672;6.7373;-14.6621;4.3670;0.0767;0.0641;0.0641
0000022683;6.6104;-14.6477;4.3120;0.0452;0.0617;0.0818
0000022691;6.5769;-14.4801;4.3120;0.0121;0.0655;0.1010
0000022703;6.4332;-14.5974;4.3479;-0.0329;0.0458;0.1114
0000022711;6.3566;-14.5663;4.3144;-0.0534;0.0338;0.1146
0000022722;6.2177;-14.8129;4.3814;-0.0821;0.0262;0.1178
0000022730;6.2704;-14.7698;4.3886;-0.0923;0.0159;0.1094
0000022742;6.4572;-14.7052;4.5442;-0.1130;0.0242;0.1180
0000022750;6.4739;-14.7746;4.6184;-0.1091;0.0191;0.1199
0000022758;6.3686;-15.0739;4.7980;-0.1067;0.0221;0.1223
0000022769;6.4141;-15.1050;4.8674;-0.0903;0.0326;0.1350
0000022777;6.3662;-15.2008;4.7573;-0.0763;0.0517;0.1484
0000022789;6.4979;-15.1314;4.8052;-0.0449;0.0833;0.1585
0000022797;6.5170;-14.9350;5.0087;-0.0180;0.1104;0.1564
0000022808;6.5410;-14.9302;4.8914;0.0192;0.1636;0.1320
0000022816;6.6942;-14.7172;4.7836;0.0453;0.2077;0.0943
0000022828;6.6511;-14.5807;4.4867;0.0838;0.2695;0.0153
0000022836;6.6966;-14.2335;4.2258;0.1067;0.2998;-0.0549
0000022844;6.7924;-13.9295;4.0055;0.1144;0.3216;-0.1168
0000022857;6.5864;-13.8026;3.7445;0.0973;0.3465;-0.2030
0000022864;6.4189;-13.9295;3.7757;0.0802;0.3593;-0.2378
0000022932;4.7812;-16.8935;4.7142;0.2293;0.2352;-0.1456
0000022940;4.5801;-16.8863;4.8171;0.2797;0.2033;-0.1234
0000022951;4.7884;-16.4937;4.9009;0.3472;0.1681;-0.0847
0000022959;4.8554;-16.2375;4.9416;0.3718;0.1474;-0.0485
0000022971;5.0781;-15.7060;4.8100;0.3849;0.1246;-0.0101
0000022979;5.4636;-14.9877;4.7573;0.3484;0.1184;0.0059
0000022987;5.7054;-14.7363;4.7525;0.3078;0.1123;0.0004
0000022998;5.9424;-14.4562;4.5514;0.2181;0.1270;0.0097
0000023006;6.1004;-14.5137;4.3766;0.1671;0.1368;0.0200
0000023018;6.6200;-14.1809;4.2497;0.0719;0.1719;0.0393
0000023026;6.4021;-14.3700;4.0438;0.0143;0.1945;0.0532
0000023037;6.3710;-14.5998;3.9552;-0.0337;0.2240;0.0761
0000023045;6.3159;-14.4873;3.9097;-0.0384;0.2342;0.0959
0000023053;5.7509;-14.6334;3.8355;-0.0401;0.2377;0.1183
0000023065;5.1547;-14.8752;3.8331;-0.0149;0.2257;0.1431
0000023073;4.7094;-14.8967;3.8786;0.0051;0.2014;0.1492
0000023085;4.5490;-14.9542;3.9217;0.0594;0.1533;0.1387
0000023092;4.6040;-14.8488;3.8403;0.1013;0.1010;0.1134
0000023104;4.5586;-14.9039;3.7733;0.1537;0.0302;0.0751
0000023112;4.5298;-14.9997;3.8188;0.1747;-0.0091;0.0558
0000023124;4.9129;-14.7124;3.7278;0.1904;-0.0777;0.0230
0000023132;5.2696;-14.5160;3.6105;0.1937;-0.1198;0.0092
0000023140;5.3056;-14.5998;3.7062;0.1884;-0.1440;0.0017
0000023208;5.6623;-14.7363;3.7134;0.0241;-0.1350;-0.0502
0000023217;5.5617;-14.4682;3.5937;-0.0205;-0.1500;-0.0853
0000023228;5.1954;-14.5208;3.5075;-0.0761;-0.1888;-0.1264
0000023235;5.2361;-14.5496;3.2801;-0.1311;-0.2082;-0.1360
0000023247;5.2002;-14.6142;3.3543;-0.1931;-0.2374;-0.1408
0000023255;5.5737;-14.5591;3.2633;-0.2214;-0.2369;-0.1231
0000023267;5.7892;-15.1050;3.1699;-0.2415;-0.2165;-0.0878
0000023275;5.9113;-15.3804;3.3016;-0.2333;-0.1871;-0.0699
0000023286;6.0262;-15.7347;3.2657;-0.2290;-0.1207;-0.0517
0000023294;5.6623;-16.1800;3.2633;-0.2194;-0.0814;-0.0589
0000023306;5.6910;-16.1633;3.2154;-0.1969;-0.0394;-0.0906
0000023314;5.7006;-16.2806;3.2058;-0.1693;-0.0276;-0.1104
0000023322;5.4731;-16.1441;3.3471;-0.1529;-0.0284;-0.1398
0000023333;5.0446;-16.2662;3.8882;-0.1327;-0.0416;-0.1653
0000023341;4.9225;-16.4434;4.1420;-0.1175;-0.0497;-0.1657
0000023353;4.9632;-16.7570;4.5131;-0.1022;-0.0357;-0.1323
0000023361;5.1739;-17.2023;4.6663;-0.0789;-0.0092;-0.0987
0000023372;5.7437;-17.0587;4.6902;-0.0181;0.0362;-0.0522
0000023380;5.8993;-17.1688;4.9033;0.0401;0.0853;-0.0068
0000023393;6.1675;-16.6876;5.3534;0.1260;0.1668;0.0444
0000023400;6.0597;-16.4170;5.7772;0.1691;0.2240;0.0665
0000023468;4.5322;-14.8129;4.9033;0.0679;0.2045;-0.1522
0000023476;4.1899;-14.4490;4.8554;0.0341;0.1250;-0.1555
0000023484;4.0893;-14.1354;4.7908;-0.0081;0.0406;-0.1454
0000023496;4.2880;-13.8098;4.6304;-0.0497;-0.0790;-0.1202
0000023504;4.7932;-13.3980;4.6663;-0.0640;-0.1480;-0.1061
0000023515;5.5450;-13.1537;4.5394;-0.0798;-0.2084;-0.0881
0000023523;6.0932;-13.0125;4.6280;-0.0889;-0.2409;-0.0866
0000023535;6.7636;-12.9359;4.9273;-0.0993;-0.2386;-0.0917
0000023543;7.1611;-13.0580;5.1332;-0.0951;-0.2053;-0.0985
0000023554;7.4053;-13.1585;5.2146;-0.0779;-0.1695;-0.1280
0000023562;7.6471;-13.2447;5.4037;-0.0638;-0.1287;-0.1459
0000023574;7.4005;-13.3333;5.5474;-0.0361;-0.0959;-0.1748
0000023582;7.1922;-13.5727;5.6168;-0.0029;-0.0839;-0.1896
0000023590;6.7660;-13.6254;5.6503;0.0320;-0.0874;-0.1855
0000023601;6.3159;-13.8337;6.2082;0.0653;-0.1140;-0.1628
0000023609;5.9879;-13.9917;6.3973;0.1050;-0.1645;-0.1408
0000023621;5.5665;-14.3939;6.7014;0.1456;-0.2502;-0.0871
0000023629;5.2888;-14.6669;6.7133;0.1727;-0.3196;-0.0412
0000023640;5.0949;-14.8919;6.8426;0.2305;-0.4241;0.0265
0000023648;5.2146;-14.9278;6.8163;0.2787;-0.4986;0.0877
0000023660;5.4492;-14.5663;6.5984;0.3239;-0.5898;0.1589
0000023668;5.5905;-14.5232;6.2896;0.3352;-0.6346;0.1887
0000023735;7.2065;-14.7100;5.0733;-0.0745;-0.7614;0.0755
0000023743;6.8833;-14.8560;5.0326;-0.0731;-0.7773;0.0731
0000023751;6.7181;-15.0164;4.8842;-0.0556;-0.7799;0.0933
0000023763;6.3183;-15.0452;4.7477;-0.0179;-0.7983;0.1246
0000023771;6.5505;-14.8584;4.5801;0.0195;-0.8176;0.1355
0000023782;6.4236;-14.6932;4.7381;0.0580;-0.8416;0.1462
0000023790;6.5362;-14.4562;4.5753;0.0663;-0.8468;0.1412
0000023802;6.5050;-14.4346;4.4915;0.1243;-0.8689;0.1571
0000023810;6.8402;-14.2958;4.5681;0.1471;-0.8580;0.1792
0000023821;7.1275;-14.1665;4.7166;0.1933;-0.8375;0.2010
0000023829;7.2712;-14.2359;4.6783;0.2249;-0.8227;0.1937
0000023837;7.5178;-14.0803;4.7836;0.2346;-0.7818;0.1867
0000023849;7.6806;-14.2599;4.7716;0.2298;-0.7373;0.1436
0000023857;7.9176;-14.2958;4.7669;0.2190;-0.7012;0.1118
0000023868;8.1882;-14.1713;4.9153;0.2080;-0.6487;0.0633
0000023876;8.1954;-14.4418;4.8123;0.1958;-0.6206;0.0249
0000023888;8.1044;-14.5639;4.4891;0.1711;-0.5714;-0.0276
0000023896;7.8626;-14.6860;4.4796;0.1344;-0.5381;-0.0470
0000023907;7.8243;-14.5687;4.3910;0.0879;-0.5069;-0.0492
0000023915;7.5226;-14.7555;4.3072;0.0536;-0.4958;-0.0416
0000023923;7.5585;-14.6501;4.2976;0.0213;-0.4911;-0.0236
0000023935;7.4795;-14.7291;4.5849;0.0013;-0.4770;0.0135
0000023943;7.6088;-14.8249;4.8147;0.0011;-0.4571;0.0418
0000024011;7.6806;-14.9374;4.4796;-0.0188;-0.1966;0.0374
0000024018;7.4651;-14.9398;4.4915;0.0157;-0.1668;0.0645
0000024030;7.4843;-14.9278;4.4748;0.0588;-0.1266;0.1045
0000024038;7.7333;-14.7363;4.4293;0.0835;-0.0925;0.1207
0000024049;8.1762;-14.6693;4.5226;0.1164;-0.0618;0.1403
0000024057;8.1068;-14.7219;4.5849;0.1096;-0.0360;0.1541
0000024069;8.7125;-14.4322;4.3598;0.0629;0.0040;0.1657
0000024077;8.5425;-14.3485;4.3048;0.0104;0.0314;0.1600
0000024085;8.3941;-14.2287;4.2090;-0.0506;0.0686;0.1644
0000024096;8.0493;-14.4610;4.3239;-0.1319;0.1212;0.1605
0000024104;7.8338;-14.7555;4.2880;-0.1695;0.1628;0.1478
0000024116;7.6160;-15.3516;4.3981;-0.1719;0.2064;0.1198
0000024124;7.5034;-15.7131;4.8698;-0.1350;0.2124;0.0802
0000024135;7.3837;-16.1824;5.6551;-0.0671;0.1988;0.0402
0000024143;6.9384;-16.5942;6.1244;-0.0100;0.1584;0.0048
0000024151;6.6367;-16.8672;6.0885;0.0298;0.1001;-0.0265
0000024163;6.2082;-16.5607;5.6096;0.0394;-0.0012;-0.0606
0000024171;6.0454;-16.1465;5.9640;0.0264;-0.0542;-0.0505
0000024182;6.3686;-15.6748;6.1052;0.0119;-0.1347;-0.0248
0000024190;6.6726;-15.4785;5.9185;-0.0172;-0.1723;-0.0103
0000024202;7.0318;-15.3827;6.0861;-0.0526;-0.1989;-0.0004
0000024210;7.5513;-15.1649;5.7748;-0.0819;-0.1751;0.0124
0000024277;7.8650;-14.2670;5.3127;-0.2000;0.3079;-0.1601
0000024285;7.2640;-14.0731;5.2241;-0.1748;0.3265;-0.1816
0000024297;6.8331;-13.4315;5.0901;-0.1287;0.3360;-0.1835
0000024305;6.5410;-13.0340;4.9967;-0.1167;0.3391;-0.1625
0000024313;6.2297;-12.6342;4.8985;-0.1088;0.3303;-0.1448
0000024324;5.9520;-12.1194;4.8818;-0.1299;0.3203;-0.1075
0000024332;5.8419;-11.8633;5.1020;-0.1653;0.3039;-0.0827
0000024344;5.8754;-12.0716;5.2074;-0.1937;0.2570;-0.0598
0000024352;5.8658;-12.2846;5.3056;-0.2085;0.2386;-0.0453
0000024363;5.8083;-12.6222;5.4540;-0.2112;0.1985;-0.0342
0000024371;5.7389;-13.0101;5.5905;-0.2014;0.1697;-0.0345
0000024383;5.7413;-13.1059;5.9041;-0.1705;0.1322;-0.0310
0000024391;5.7892;-13.2447;5.8419;-0.1585;0.1362;-0.0152
0000024402;6.1770;-13.0963;5.9520;-0.1436;0.1347;-0.0071
0000024410;6.4212;-12.9814;5.9065;-0.1568;0.1514;0.0003
0000024418;6.6200;-13.0676;5.9185;-0.1639;0.1545;-0.0065
0000024430;6.7397;-13.2902;6.1603;-0.1649;0.1664;-0.0284
0000024438;6.7780;-13.6398;6.4811;-0.1524;0.1760;-0.0537
0000024449;6.7588;-13.9534;6.7229;-0.1203;0.1701;-0.1045
0000024457;6.7852;-14.1880;6.7014;-0.0879;0.1732;-0.1304
0000024469;6.6511;-14.4658;6.4380;-0.0370;0.1743;-0.1671
0000024477;6.6726;-14.4059;6.2034;-0.0197;0.1781;-0.1765
0000024545;6.6511;-14.3963;5.1332;-0.3709;0.3906;-0.0088
0000024553;6.4931;-14.7243;5.2241;-0.3944;0.3968;-0.0077
0000024565;6.2489;-15.1385;4.9895;-0.3784;0.4054;0.0003
0000024573;5.9424;-15.2942;4.9129;-0.3417;0.4036;-0.0169
0000024581;6.1651;-15.0954;4.8554;-0.3046;0.4060;-0.0203
0000024592;6.0717;-15.1361;4.6040;-0.2446;0.4046;-0.0477
0000024600;5.9783;-15.0404;4.6400;-0.1940;0.3992;-0.0703
0000024612;5.9544;-14.9662;4.5059;-0.1338;0.3924;-0.1110
0000024620;5.9927;-14.8752;4.4053;-0.0973;0.3865;-0.1320
0000024632;5.8586;-14.9446;4.3958;-0.0282;0.3573;-0.1793
0000024640;6.1675;-15.0332;4.3694;0.0048;0.3489;-0.1980
0000024651;6.3087;-15.1529;4.4796;0.0576;0.3293;-0.2297
0000024659;6.4308;-15.2008;4.4245;0.0997;0.3248;-0.2405
0000024667;6.5553;-15.3037;4.5011;0.1364;0.3190;-0.2446
0000024679;6.4500;-15.2582;4.3766;0.1795;0.3167;-0.2399
0000024687;6.5098;-14.9207;4.3431;0.1831;0.3344;-0.2198
0000024698;6.5170;-14.7842;4.3048;0.1676;0.3431;-0.2136
0000024706;6.2297;-14.7124;4.0989;0.1394;0.3459;-0.2096
0000024718;6.3470;-14.5017;4.0055;0.0873;0.3437;-0.2113
0000024726;6.2824;-14.4897;3.9816;0.0552;0.3453;-0.2044
0000024794;5.2553;-15.1864;3.7996;0.0477;0.1788;-0.1592
0000024802;5.3008;-14.9997;3.6943;0.0470;0.1384;-0.1523
0000024814;5.3822;-14.8153;3.3423;0.0449;0.0774;-0.1476
0000024822;5.5258;-14.6190;3.1412;0.0312;0.0382;-0.1490
0000024830;5.6527;-14.4801;3.0215;0.0191;0.0045;-0.1659
0000024841;5.7030;-14.2359;2.8874;-0.0180;-0.0406;-0.1779
0000024849;5.9256;-14.0851;2.7557;-0.0706;-0.0642;-0.1952
0000024861;5.8251;-13.8912;2.7054;-0.1323;-0.1005;-0.2138
0000024869;5.7940;-13.9390;2.8994;-0.1767;-0.1236;-0.2196
0000024880;5.6862;-14.2527;3.0909;-0.2146;-0.1656;-0.2414
0000024888;5.5306;-14.4394;3.1340;-0.2314;-0.2161;-0.2603
0000024900;5.3079;-14.8488;3.1053;-0.2458;-0.2955;-0.2771
0000024908;5.4157;-15.2080;3.1149;-0.2415;-0.3471;-0.2745
0000024919;5.2577;-15.4737;3.4285;-0.2209;-0.4266;-0.2543
0000024927;5.4253;-15.5120;3.5985;-0.1927;-0.4646;-0.2192
0000024935;5.5138;-15.6150;4.1755;-0.1545;-0.4922;-0.1645
0000024947;6.0478;-15.6772;4.6926;-0.1059;-0.4882;-0.0674
0000024955;6.3279;-15.5695;4.6304;-0.0753;-0.4702;-0.0116
0000024966;6.9168;-15.3301;4.3742;-0.0769;-0.4209;0.0296
0000024974;7.1419;-14.9805;4.4221;-0.1054;-0.3667;0.0574
0000024986;7.1802;-14.7196;4.4628;-0.2004;-0.2998;0.1031
0000024994;7.1850;-14.9901;4.5107;-0.2826;-0.2517;0.1328
0000025061;5.4827;-17.2478;5.1978;-0.0558;-0.0222;0.5401
0000025069;5.2816;-16.5775;4.9416;-0.0241;-0.0620;0.5293
0000025081;5.2313;-15.5839;4.4843;-0.0883;-0.1549;0.4764
0000025089;5.4755;-15.1673;4.5777;-0.1764;-0.2333;0.4210
0000025097;5.7006;-15.0643;4.9368;-0.2630;-0.2910;0.3661
0000025108;6.0956;-15.5815;5.1715;-0.3463;-0.3321;0.3239
0000025116;6.4141;-16.1609;5.0254;-0.3647;-0.3311;0.3195
0000025128;7.2113;-16.2710;5.0685;-0.3265;-0.2934;0.2967
0000025136;7.5322;-16.0172;5.2625;-0.2793;-0.2583;0.2655
0000025147;7.6543;-15.3013;5.0087;-0.2038;-0.1973;0.1944
0000025155;7.6207;-14.6812;4.7812;-0.1736;-0.1394;0.1399
0000025167;7.5298;-14.0348;4.8483;-0.1384;-0.0544;0.0429
0000025175;7.6160;-13.6565;4.6304;-0.1230;0.0016;-0.0151
0000025186;7.6998;-13.0723;4.6017;-0.1155;0.0675;-0.0847
0000025194;7.6662;-12.9047;4.5298;-0.1132;0.1078;-0.1258
0000025202;7.7524;-12.7300;4.7549;-0.1142;0.1367;-0.1643
0000025214;7.7979;-12.7443;5.0566;-0.1091;0.1701;-0.2180
0000025222;7.6974;-12.6725;5.2912;-0.0991;0.1952;-0.2393
0000025234;7.4962;-13.1992;5.3774;-0.0654;0.2475;-0.2506
0000025242;7.2664;-13.3740;5.4660;-0.0341;0.2703;-0.2526
0000025254;7.1970;-13.7331;5.3486;-0.0049;0.2995;-0.2403
0000025262;6.7732;-14.1018;5.4708;0.0147;0.3059;-0.2340
0000025329;6.7995;-15.4282;5.1571;-0.0809;0.2341;-0.0970
0000025337;6.7062;-15.6102;5.1547;-0.0875;0.2109;-0.0825
0000025349;6.4548;-15.7155;4.9967;-0.0834;0.1863;-0.0762
0000025357;6.4021;-15.8879;4.9752;-0.0617;0.1649;-0.0691
0000025365;6.2704;-15.8257;5.0781;-0.0274;0.1343;-0.0817
0000025377;6.4356;-15.6365;5.1140;0.0330;0.0973;-0.1021
0000025385;6.4907;-15.5551;5.0781;0.0801;0.0666;-0.1255
0000025397;6.6774;-15.0835;4.8770;0.1370;0.0325;-0.1591
0000025405;6.6128;-14.6836;4.7669;0.1687;0.0067;-0.1691
0000025417;6.6583;-14.0803;4.6495;0.1832;-0.0181;-0.1756
0000025425;6.6870;-14.0468;4.6902;0.1700;-0.0301;-0.1765
0000025438;6.5888;-14.2694;4.6639;0.1695;-0.0588;-0.1800
0000025445;6.8091;-14.3820;4.7980;0.1716;-0.0629;-0.1804
0000025453;6.7421;-14.5160;4.7429;0.2024;-0.0825;-0.1921
0000025464;6.7564;-14.8584;4.7262;0.2547;-0.1115;-0.2017
0000025472;6.8570;-14.9087;4.7549;0.2815;-0.1434;-0.2068
0000025484;6.7397;-15.0093;4.8339;0.2803;-0.1684;-0.1989
0000025492;6.6535;-15.0835;4.7262;0.2818;-0.1767;-0.1861
0000025504;7.0797;-15.0164;4.6184;0.2882;-0.1791;-0.1480
0000025512;7.0078;-15.1744;4.5107;0.3062;-0.1828;-0.1280
0000025524;7.0749;-15.1697;4.3670;0.3026;-0.2081;-0.0875
0000025532;6.9336;-15.0547;4.2880;0.2726;-0.2222;-0.0678
0000025598;7.1730;-15.0715;4.2976;0.1909;-0.2919;0.0802
0000025606;7.2712;-15.1744;4.0701;0.1961;-0.2887;0.0617
0000025614;7.2736;-15.1529;3.9744;0.1851;-0.2623;0.0558
0000025626;7.2927;-14.9925;3.7924;0.1608;-0.2282;0.0512
0000025634;7.5609;-15.0093;3.8523;0.1553;-0.1960;0.0548
0000025646;7.1084;-15.2439;3.9576;0.1623;-0.1660;0.0667
0000025653;7.1611;-15.2559;3.8666;0.1760;-0.1488;0.0727
0000025665;6.9599;-15.1002;3.7158;0.2053;-0.1156;0.0879
0000025673;6.9456;-14.9183;3.5410;0.2166;-0.0934;0.0911
0000025685;7.1611;-14.7794;3.4453;0.2122;-0.0628;0.0850
0000025693;7.1108;-14.7890;3.4812;0.2058;-0.0500;0.0793
0000025701;7.1467;-14.8871;3.3351;0.2025;-0.0236;0.0819
0000025713;7.2185;-14.9278;3.6990;0.2276;0.0268;0.0859
0000025721;7.2425;-15.1122;3.7637;0.2647;0.0506;0.0878
0000025733;7.3550;-15.1409;3.7134;0.3148;0.1034;0.1131
0000025741;7.4388;-15.0835;3.7709;0.3340;0.1376;0.1419
0000025753;7.4867;-14.9350;3.9600;0.3560;0.1779;0.1659
0000025761;7.2089;-14.8441;4.0438;0.3633;0.1919;0.1743
0000025772;7.2903;-14.4538;4.0558;0.3537;0.2108;0.1840
0000025780;7.2042;-14.1545;4.0917;0.3384;0.2206;0.1873
0000025788;6.9025;-13.9726;3.9840;0.2935;0.2277;0.1804
0000025800;6.4332;-13.9654;3.9911;0.2178;0.2329;0.1667
0000025808;6.1507;-14.0300;4.0247;0.1609;0.2394;0.1547
0000025876;7.7835;-15.9885;3.4524;-0.0934;0.3954;0.0081
0000025884;8.0397;-16.0292;3.3830;-0.0982;0.4539;-0.0370
0000025896;8.0756;-16.1848;3.9193;-0.0917;0.5502;-0.1091
0000025904;7.9631;-16.5703;4.1539;-0.0807;0.6043;-0.1653
0000025916;7.6423;-16.8121;4.2186;-0.0581;0.6316;-0.2743
0000025924;7.3143;-16.9773;3.9696;-0.0674;0.6227;-0.3532
0000025932;6.6511;-16.8815;4.0342;-0.0943;0.6294;-0.4054
0000025944;5.9735;-16.4314;4.9249;-0.0999;0.6273;-0.4291
0000025952;5.7174;-16.2638;5.4684;-0.0967;0.6146;-0.4049
0000025964;5.5426;-16.1776;5.7293;-0.0809;0.5506;-0.4032
0000025972;5.2122;-16.4218;5.5617;-0.0942;0.5057;-0.4361
0000025985;4.8674;-15.9621;5.5019;-0.1427;0.4394;-0.4667
0000025992;4.8291;-15.6868;5.4755;-0.1713;0.4068;-0.4618
0000026004;5.0326;-15.2367;5.5091;-0.1817;0.3499;-0.4427
0000026012;5.2361;-15.0116;6.0597;-0.1864;0.3230;-0.4231
0000026020;5.5545;-14.8488;6.6104;-0.1928;0.2653;-0.4330
0000026032;5.8203;-14.9973;6.4524;-0.1962;0.1525;-0.4894
0000026040;6.1244;-14.7435;6.4165;-0.1820;0.1010;-0.5125
0000026052;6.6152;-14.1090;6.3494;-0.1439;0.0731;-0.5015
0000026060;6.8809;-13.6110;6.2656;-0.1315;0.1026;-0.4443
0000026072;7.6686;-12.9335;5.9568;-0.1376;0.1575;-0.3684
0000026080;8.0996;-12.6150;5.9185;-0.1580;0.1961;-0.3392
0000026148;4.3431;-13.1490;5.9113;-0.0413;0.2134;-0.1222
0000026156;4.0701;-13.2878;6.0430;-0.0229;0.1568;-0.0933
0000026168;4.0318;-13.4195;5.9903;0.0009;0.0765;-0.0461
0000026176;4.3407;-13.4746;5.9496;0.0163;0.0204;-0.0200
0000026184;4.4843;-13.5775;5.7916;0.0217;-0.0257;0.0168
0000026196;5.2050;-13.4865;5.8586;0.0124;-0.0842;0.0489
0000026204;5.4492;-13.8193;5.8227;-0.0048;-0.1031;0.0725
0000026216;6.0741;-14.2359;5.9640;-0.0312;-0.1307;0.0747
0000026224;6.3590;-14.6238;5.9448;-0.0417;-0.1291;0.0731
0000026236;6.9312;-15.0140;5.8849;-0.0116;-0.1190;0.0562
0000026244;7.1084;-14.9757;5.8419;-0.0005;-0.0910;0.0452
0000026256;7.0246;-15.0308;5.6024;0.0264;-0.0498;0.0280
0000026264;6.9240;-14.7387;5.4564;0.0240;-0.0101;0.0242
0000026276;6.8522;-14.4897;5.3319;0.0112;0.0290;0.0199
0000026284;6.8570;-14.0564;5.3032;0.0104;0.0506;0.0167
0000026292;6.3566;-14.3556;5.2146;0.0056;0.0830;0.0310
0000026304;6.1794;-13.9606;5.1020;-0.0028;0.0986;0.0485
0000026312;5.7964;-14.3413;5.1284;-0.0139;0.1110;0.0636
0000026324;5.8203;-14.1162;5.1427;0.0035;0.1030;0.0729
0000026332;5.7820;-14.1090;5.1284;0.0049;0.0913;0.0835
0000026344;5.7150;-14.2287;4.9464;0.0085;0.0731;0.0869
0000026352;5.6982;-14.2934;4.7046;0.0133;0.0626;0.0922
0000026360;5.4827;-14.3868;4.7333;0.0167;0.0422;0.0855
0000026428;5.9448;-14.8081;4.6040;-0.0624;-0.0159;0.1162
0000026436;5.5905;-15.1553;4.6471;-0.0385;-0.0398;0.0898
0000026448;5.5354;-15.3732;4.6735;0.0207;-0.0791;0.0532
0000026456;5.3654;-15.7634;4.6256;0.0754;-0.1144;0.0250
0000026468;5.7461;-15.5240;4.5562;0.1402;-0.1402;-0.0004
0000026476;5.9233;-15.1984;4.4867;0.1717;-0.1495;-0.0041
0000026488;6.0190;-14.8464;4.2713;0.2106;-0.1763;0.0164
0000026496;6.1531;-14.5615;4.2162;0.2058;-0.1767;0.0450
0000026504;6.2968;-14.4227;4.1994;0.1855;-0.1841;0.0790
0000026516;6.3375;-14.2216;4.1994;0.1307;-0.1820;0.1274
0000026524;6.4859;-14.1593;4.2234;0.1014;-0.1896;0.1432
0000026536;6.5601;-14.0492;4.2258;0.0638;-0.2014;0.1407
0000026544;6.4500;-14.1282;4.1994;0.0321;-0.2149;0.1135
0000026556;6.2872;-14.1090;4.0247;0.0013;-0.2253;0.0641
0000026564;6.3351;-14.1090;4.0270;-0.0148;-0.2321;0.0290
0000026576;6.1316;-14.0564;3.8523;-0.0509;-0.2386;-0.0175
0000026584;6.1196;-14.1713;3.9097;-0.0645;-0.2435;-0.0508
0000026596;6.0813;-14.3413;3.7613;-0.0898;-0.2549;-0.0925
0000026604;5.9352;-14.7938;3.8259;-0.1159;-0.2654;-0.1207
0000026612;5.7533;-14.9015;3.7852;-0.1370;-0.2738;-0.1395
0000026624;5.9089;-15.2894;3.6943;-0.1579;-0.2778;-0.1627
0000026632;6.1028;-15.5096;3.6344;-0.1731;-0.2638;-0.1585
0000026700;5.7509;-15.7179;4.0486;-0.0140;-0.2269;0.0071
0000026708;5.4444;-15.5551;4.0247;-0.0008;-0.2766;0.0410
0000026720;4.6735;-15.4330;3.8930;0.0048;-0.3756;0.1119
0000026728;4.3862;-15.3420;3.7014;0.0117;-0.4450;0.1608
0000026740;4.1444;-15.3133;4.0318;0.0072;-0.5433;0.2345
0000026748;4.4748;-15.2702;4.2641;-0.0015;-0.5794;0.2836
0000026760;5.4420;-15.7323;4.4245;-0.0047;-0.6121;0.3770
0000026768;5.9544;-16.1585;4.3120;-0.0089;-0.6091;0.4443
0000026776;6.5266;-16.2566;4.7214;-0.0245;-0.5856;0.5223
0000026788;7.2377;-16.6110;5.3870;-0.0497;-0.5145;0.6171
0000026796;7.6974;-16.6038;5.7724;-0.0593;-0.4441;0.6612
0000026808;8.3031;-16.5583;6.0717;-0.0763;-0.3072;0.7036
0000026816;8.7029;-16.5583;6.0406;-0.0875;-0.2129;0.7008
0000026828;8.7269;-16.2135;6.5960;-0.1031;-0.0376;0.6860
0000026836;8.5377;-16.5679;6.7445;-0.1168;0.0723;0.6550
0000026848;7.6758;-16.5128;5.8993;-0.0983;0.2145;0.5809
0000026856;6.8642;-16.1034;5.7868;-0.0702;0.2650;0.4956
0000026864;6.1148;-15.5336;5.7150;-0.0649;0.2706;0.3996
0000026876;5.0159;-14.5424;5.6719;-0.0999;0.1980;0.2369
0000026884;4.6998;-13.9582;5.3558;-0.1224;0.1182;0.1478
0000026897;3.8092;-13.5967;4.8004;-0.1680;-0.0208;0.0474
0000026906;3.7948;-13.1777;4.5394;-0.2118;-0.1134;0.0153
0000026975;7.4005;-13.4027;5.3463;-0.1374;-0.2932;0.0769
0000026984;7.4771;-13.7475;5.5498;-0.0858;-0.2357;0.0814
0000026997;7.5537;-14.1018;6.1244;0.0048;-0.1733;0.0725
0000027006;7.4627;-14.3461;6.1172;0.0898;-0.1511;0.0541
0000027019;7.1275;-14.4107;6.2800;0.1620;-0.1218;0.0520
0000027028;6.7828;-14.2623;6.2632;0.1528;-0.1210;0.0526
0000027037;6.3710;-14.3772;6.4380;0.1306;-0.1464;0.0614
0000027050;5.8059;-14.4921;6.4500;0.0691;-0.1756;0.1343
0000027059;5.5881;-14.7267;6.3925;0.0560;-0.2218;0.1801
0000027072;5.6024;-14.7387;6.2584;0.0233;-0.2862;0.2435
0000027081;6.1076;-14.7219;6.0789;-0.0083;-0.3250;0.2611
0000027094;6.7516;-14.6621;5.9352;-0.0342;-0.3615;0.2571
0000027103;6.8642;-14.8871;5.9137;-0.0294;-0.3804;0.2253
0000027116;7.1323;-14.8919;5.7676;-0.0015;-0.3785;0.1367
0000027125;7.2472;-14.9829;5.5234;0.0233;-0.3603;0.0682
0000027134;7.5944;-14.6717;5.5378;0.0557;-0.3423;-0.0121
0000027147;7.5226;-14.6262;5.2960;0.0783;-0.3126;-0.1207
0000027156;7.6184;-14.5376;5.1140;0.0963;-0.2978;-0.1888
0000027169;7.6710;-14.3604;5.2433;0.1370;-0.2866;-0.2561
0000027178;7.2161;-14.6645;5.4684;0.1931;-0.3034;-0.2907
0000027191;6.9432;-14.6717;5.4803;0.2975;-0.3284;-0.3008
0000027200;6.4763;-14.7100;5.2553;0.3537;-0.3441;-0.2815
0000027267;6.0094;-13.8768;4.5346;0.1182;-0.5721;-0.0705
0000027276;6.2944;-14.4011;4.5394;0.0798;-0.5889;-0.0390
0000027289;6.6750;-14.9997;4.5514;0.0598;-0.6010;0.0264
0000027298;6.6128;-15.2343;4.5777;0.0693;-0.5942;0.0777
0000027307;6.8953;-15.1122;4.6759;0.0770;-0.5958;0.1111
0000027320;6.6942;-15.1409;4.4628;0.0646;-0.5866;0.1669
0000027329;6.7277;-14.8704;4.4293;0.0485;-0.5657;0.2044
0000027342;6.7133;-14.9039;4.4700;0.0457;-0.5480;0.2204
0000027351;6.6655;-14.9662;4.4341;0.0574;-0.5299;0.2124
0000027364;7.1539;-14.8584;4.3766;0.0510;-0.4958;0.1904
0000027373;7.3215;-15.0571;4.3766;0.0366;-0.4684;0.1632
0000027389;7.6830;-15.1649;4.5681;0.0344;-0.4155;0.1073
0000027398;7.7644;-15.2247;4.4796;0.0357;-0.3689;0.0737
0000027407;7.7500;-15.1553;4.3862;0.0432;-0.3191;0.0456
0000027420;7.7405;-14.9662;4.1539;0.0366;-0.2555;0.0083
0000027429;7.8051;-14.8321;4.0725;0.0123;-0.2093;-0.0043
0000027441;7.5465;-14.6525;3.8451;-0.0281;-0.1591;-0.0248
0000027450;7.5369;-14.7531;3.9911;-0.0354;-0.1324;-0.0441
0000027519;8.4013;-15.0571;3.8714;-0.1312;0.1784;0.0532
0000027528;8.1762;-15.3564;4.0247;-0.1061;0.2158;0.0456
0000027540;7.9679;-15.2630;4.2234;-0.0837;0.2569;0.0493
0000027549;7.6207;-15.3780;4.3383;-0.0590;0.2811;0.0616
0000027558;7.1419;-15.3397;4.4867;-0.0558;0.3022;0.0765
0000027571;6.8426;-15.1218;4.3215;-0.0658;0.3273;0.0838
0000027580;6.8115;-14.8680;4.3503;-0.0783;0.3303;0.0774
0000027592;6.6798;-14.8081;4.1252;-0.1069;0.3160;0.0604
0000027601;6.6655;-14.8967;4.0725;-0.1404;0.3052;0.0458
0000027614;6.7181;-15.1505;4.6424;-0.1711;0.2758;0.0490
0000027623;6.6870;-15.5815;5.2170;-0.1615;0.2401;0.0536
0000027635;6.2872;-16.3285;5.6623;-0.1199;0.1552;0.0240
0000027644;5.9137;-16.8121;5.5641;-0.1058;0.0921;-0.0029
0000027657;5.9951;-16.7881;5.8371;-0.0806;0.0294;-0.0128
0000027666;6.1603;-16.4003;5.9831;-0.0598;-0.0020;-0.0269
0000027675;6.3542;-16.3811;5.7413;-0.0520;-0.0185;-0.0408
0000027687;6.7277;-15.9190;5.6192;-0.0701;-0.0156;-0.0991
0000027696;6.9911;-15.5049;5.6814;-0.1104;0.0160;-0.1372
0000027709;7.3310;-15.1625;5.5593;-0.1625;0.0699;-0.1900
0000027718;7.3215;-15.0045;5.4779;-0.1795;0.1015;-0.2225
0000027730;7.2233;-14.9255;5.5833;-0.1985;0.1518;-0.2745
0000027739;7.2209;-14.8010;5.7365;-0.1949;0.1611;-0.3039
0000027808;6.7445;-12.5121;4.7716;-0.1352;0.1637;-0.1903
0000027817;6.6056;-12.5600;4.8937;-0.1484;0.1765;-0.1724
0000027829;6.3255;-12.7012;5.1404;-0.1419;0.1865;-0.1693
0000027838;5.9352;-13.0508;5.3463;-0.1184;0.1749;-0.1727
0000027847;5.5378;-13.4698;5.6886;-0.0755;0.1621;-0.1683
0000027860;5.0973;-14.0827;6.0573;0.0073;0.1186;-0.1701
0000027869;5.0015;-14.1856;6.1507;0.0790;0.0727;-0.1807
0000027881;5.1260;-14.3293;6.2489;0.1604;0.0345;-0.1693
0000027890;5.4636;-14.0540;6.2584;0.2060;0.0112;-0.1627
0000027903;5.9233;-13.4961;6.1723;0.2246;-0.0009;-0.1426
0000027912;6.1938;-13.2328;5.9711;0.1968;0.0151;-0.1207
0000027924;6.4189;-13.1250;5.7892;0.1468;0.0305;-0.1034
0000027933;6.6415;-13.2208;5.6312;0.1019;0.0524;-0.0871
0000027942;6.5146;-13.4913;5.4803;0.0441;0.0654;-0.0733
0000027955;6.4284;-13.8696;5.2912;-0.0608;0.1135;-0.0248
0000027964;6.4404;-14.1449;5.3079;-0.1211;0.1380;0.0131
0000027976;6.3279;-14.7124;5.1547;-0.1692;0.1588;0.0537
0000027985;6.1675;-14.9733;5.2553;-0.1781;0.1640;0.0866
0000027998;5.9113;-15.4785;5.6312;-0.1402;0.1571;0.1298
0000028007;5.8849;-15.5527;5.7485;-0.0878;0.1404;0.1548
0000028019;5.3989;-15.4689;5.8610;0.0037;0.1014;0.1833
0000028028;5.1619;-15.3708;5.7628;0.0561;0.0689;0.2013
0000028037;5.0470;-15.0045;5.6527;0.0841;0.0332;0.2060
0000028106;7.4340;-15.1697;4.7285;-0.0392;0.0987;0.0842
0000028115;7.4962;-15.1888;4.6495;-0.0105;0.1451;0.0636
0000028127;7.3478;-15.1457;4.5298;0.0164;0.2185;0.0522
0000028136;7.0892;-14.9709;4.4005;0.0469;0.2593;0.0388
0000028149;6.6367;-14.7052;4.3742;0.0929;0.2972;0.0095
0000028158;6.1890;-14.6477;4.3622;0.1279;0.3086;-0.0075
0000028170;5.7940;-14.3963;4.3503;0.1721;0.3004;-0.0300
0000028179;5.3822;-14.4275;4.3694;0.1813;0.2848;-0.0365
0000028188;5.1954;-14.3844;4.2665;0.1839;0.2482;-0.0433
0000028201;5.2289;-14.3173;4.1683;0.1691;0.1844;-0.0476
0000028210;4.9775;-14.4490;4.1348;0.1471;0.1362;-0.0540
0000028222;5.1308;-14.6980;4.0103;0.1240;0.0699;-0.0481
0000028231;5.4468;-14.6525;4.0414;0.1045;0.0250;-0.0460
0000028244;5.6719;-14.6812;4.0031;0.0703;-0.0131;-0.0369
0000028253;5.9041;-14.6358;3.9169;0.0460;-0.0328;-0.0329
0000028265;6.2058;-14.6884;3.7445;0.0161;-0.0453;-0.0238
0000028274;6.3614;-14.7100;3.6775;-0.0085;-0.0369;-0.0139
0000028283;6.4069;-14.6789;3.6655;-0.0192;-0.0492;-0.0183
0000028296;6.4572;-14.8680;3.5698;-0.0232;-0.0402;-0.0394
0000028305;6.2608;-14.9135;3.5985;-0.0187;-0.0505;-0.0638
0000028317;6.0310;-14.9494;3.6272;-0.0204;-0.0665;-0.1014
0000028326;5.8849;-14.8656;3.6559;-0.0205;-0.0681;-0.1126
0000028395;5.7533;-14.8369;4.1587;-0.0560;-0.2579;-0.1226
0000028404;5.9975;-14.8273;4.3503;-0.0707;-0.2507;-0.0869
0000028416;6.2656;-14.8464;4.6663;-0.0719;-0.2030;-0.0424
0000028425;6.3039;-15.2439;4.4221;-0.0721;-0.1628;-0.0249
0000028438;6.5888;-15.5671;4.1300;-0.0530;-0.1418;-0.0396
0000028447;6.4931;-15.4713;3.8978;-0.0330;-0.1676;-0.0508
0000028459;5.8873;-15.6581;3.6631;-0.0381;-0.2178;-0.0260
0000028468;5.4636;-15.7131;3.6296;-0.0633;-0.2685;0.0207
0000028477;4.9416;-15.8113;3.9193;-0.0866;-0.3220;0.0931
0000028490;4.3407;-16.2471;4.1084;-0.0985;-0.4053;0.2090
0000028499;4.3239;-16.5008;4.2856;-0.0757;-0.4639;0.2846
0000028511;4.7070;-16.8552;4.5442;-0.0481;-0.4943;0.3793
0000028520;5.3534;-16.8528;4.8937;-0.0282;-0.5080;0.4361
0000028533;6.3446;-16.6182;5.6168;0.0000;-0.4884;0.4738
0000028542;7.0437;-16.3644;5.9304;0.0120;-0.4427;0.4758
0000028554;7.8650;-15.7395;6.1076;0.0088;-0.3549;0.4466
0000028563;8.2337;-15.1840;5.9376;-0.0213;-0.2749;0.4134
0000028576;8.4659;-14.5615;5.7533;-0.1208;-0.1326;0.3809
0000028585;8.1810;-14.2311;5.7245;-0.1853;-0.0324;0.3535
0000028594;7.8865;-13.9750;6.1555;-0.2168;0.0452;0.3204
0000028606;7.4771;-14.1761;5.7964;-0.2506;0.1380;0.2951
0000028615;6.8307;-14.3365;5.4253;-0.2614;0.1849;0.2727
0000028684;5.7868;-12.9478;5.2170;-0.1071;-0.1290;-0.0139
0000028693;6.5290;-13.0077;5.6479;-0.0941;-0.1553;-0.0177
0000028705;7.2951;-13.4291;6.1172;-0.0553;-0.1483;-0.0258
0000028714;7.9057;-13.8744;6.2441;-0.0092;-0.1270;-0.0325
0000028727;8.3893;-14.5113;6.5290;0.0462;-0.0468;-0.0212
0000028736;8.4515;-14.8153;6.6104;0.0953;0.0004;-0.0274
0000028745;7.9871;-14.9925;6.5864;0.1412;0.0584;-0.0140
0000028757;7.0653;-14.8249;6.5386;0.1873;0.1074;-0.0027
0000028766;6.7612;-14.3197;6.3231;0.2038;0.1160;0.0079
0000028779;5.8179;-14.0204;6.0382;0.1873;0.0946;0.0320
0000028788;5.5354;-13.4841;5.7964;0.1552;0.0538;0.0480
0000028800;5.3175;-13.2854;5.3702;0.1005;-0.0153;0.0622
0000028809;4.9871;-13.3094;5.3965;0.0520;-0.0917;0.0620
0000028822;5.1858;-13.8840;5.4875;-0.0216;-0.1986;0.0442
0000028831;5.5545;-14.4083;5.6144;-0.0316;-0.2827;0.0165
0000028840;6.0597;-15.0476;5.7126;-0.0317;-0.3325;0.0015
0000028851;6.4189;-15.7922;5.7030;0.0035;-0.3668;-0.0011
0000028860;6.7109;-15.8496;5.6096;0.0517;-0.3619;0.0061
0000028874;7.0725;-15.1026;5.2313;0.1224;-0.3304;-0.0009
0000028883;7.1563;-14.6381;5.1978;0.1374;-0.2950;-0.0140
0000028896;7.0892;-14.0013;4.9416;0.1255;-0.2547;-0.0509
0000028905;6.9480;-13.7667;4.6615;0.1103;-0.2238;-0.0727
0000028975;6.2848;-15.0763;5.2218;0.1255;-0.3208;-0.0989
0000028984;6.2513;-14.9398;5.1068;0.1443;-0.3291;-0.0690
0000028997;6.7229;-14.5687;5.0159;0.1267;-0.3348;-0.0127
0000029006;6.9791;-14.3221;4.8626;0.0903;-0.3389;0.0105
0000029015;6.9839;-14.2359;4.6543;0.0290;-0.3279;0.0296
0000029027;7.1108;-14.1833;4.6136;-0.0566;-0.3016;0.0466
0000029036;7.0222;-14.3293;4.6878;-0.0921;-0.2875;0.0516
0000029049;6.9432;-14.6573;4.8267;-0.0995;-0.2547;0.0562
0000029058;6.8139;-14.7842;4.7764;-0.1011;-0.2274;0.0517
0000029070;6.9767;-14.8345;4.6807;-0.0811;-0.2001;0.0228
0000029079;7.1563;-14.7842;4.6639;-0.0589;-0.1757;0.0065
0000029092;7.1778;-14.7842;4.5610;-0.0401;-0.1250;-0.0123
0000029101;7.2736;-14.8033;4.5442;-0.0352;-0.0851;-0.0224
0000029113;7.3981;-14.6717;4.5035;-0.0290;-0.0370;-0.0620
0000029122;7.3478;-14.7890;4.5945;-0.0220;-0.0156;-0.0870
0000029131;7.2784;-14.5352;4.3886;-0.0234;0.0209;-0.0970
0000029144;7.1611;-14.4394;4.2425;-0.0444;0.0655;-0.1074
0000029153;6.9983;-14.4346;4.3048;-0.0658;0.1009;-0.1047
0000029165;7.2089;-14.4131;4.2760;-0.1006;0.1529;-0.0966
0000029174;7.4867;-14.4490;4.0773;-0.1232;0.2004;-0.0937
0000029187;7.6614;-14.5017;4.0438;-0.1628;0.2846;-0.0942
0000029196;7.8650;-14.4945;3.9840;-0.1982;0.3492;-0.0975
0000029266;6.8929;-15.7491;3.6799;-0.1880;0.7488;-0.2093
0000029275;6.8331;-15.6796;3.7326;-0.1684;0.7625;-0.2381
0000029288;6.3351;-15.6222;3.6607;-0.1456;0.7520;-0.2567
0000029297;6.2369;-15.7730;3.5937;-0.1252;0.7320;-0.2559
0000029306;6.1124;-15.8089;3.8547;-0.0861;0.6929;-0.2506
0000029318;5.8993;-16.0124;4.3191;-0.0370;0.6169;-0.2413
0000029327;5.8945;-16.2016;4.4724;-0.0064;0.5525;-0.2350
0000029340;5.5569;-16.4625;4.8243;0.0337;0.4385;-0.2069
0000029349;5.5210;-16.5559;4.8052;0.0485;0.3692;-0.1761
0000029361;5.3486;-16.4003;4.7477;0.0701;0.2870;-0.1418
0000029370;5.6168;-16.0531;4.7597;0.0751;0.2455;-0.1102
0000029383;5.9640;-15.5815;4.8530;0.0561;0.2212;-0.0469
0000029392;6.1914;-15.4618;4.7692;0.0309;0.2250;-0.0248
0000029401;6.2944;-15.1888;4.9033;0.0137;0.2226;-0.0292
0000029413;6.0118;-14.9207;5.1308;-0.0305;0.2213;-0.0560
0000029422;5.7844;-15.2104;5.2553;-0.0622;0.2016;-0.1069
0000029435;5.6360;-15.3636;5.3271;-0.1054;0.1603;-0.1989
0000029444;5.9568;-15.3373;5.2744;-0.1140;0.1388;-0.2585
0000029456;6.1076;-15.2989;5.3151;-0.1119;0.1184;-0.3088
0000029465;6.3542;-15.0452;5.2050;-0.1033;0.1124;-0.3222
0000029478;6.5984;-14.4921;5.0901;-0.0994;0.1204;-0.3159
0000029487;6.6822;-14.2479;5.0230;-0.1053;0.1423;-0.2944
0000029557;5.3534;-13.8816;6.0406;0.0666;0.1291;-0.3688
0000029566;5.2529;-13.7331;6.0166;0.1009;0.0954;-0.3655
0000029575;5.2050;-13.7260;5.9352;0.1178;0.0833;-0.3284
0000029588;5.4085;-13.4985;5.8945;0.1278;0.0534;-0.2781
0000029597;5.5402;-13.4626;5.9831;0.1039;0.0545;-0.2342
0000029609;5.8275;-13.3596;5.8921;0.0787;0.0486;-0.1753
0000029618;5.7940;-13.5033;5.8514;0.0553;0.0474;-0.1362
0000029631;5.8035;-13.8481;5.7078;0.0476;0.0425;-0.0941
0000029640;5.6743;-14.2000;5.9017;0.0393;0.0401;-0.0581
0000029652;5.5833;-14.4394;5.7557;0.0501;0.0373;-0.0135
0000029661;5.8730;-14.2335;5.6575;0.0542;0.0508;0.0352
0000029670;5.5522;-14.5591;5.6671;0.0711;0.0638;0.0769
0000029683;5.5929;-14.3532;5.3965;0.0803;0.0861;0.1240
0000029692;5.2050;-14.3556;5.5234;0.0762;0.0823;0.1403
0000029704;5.2912;-14.2838;5.3726;0.0536;0.0775;0.1464
0000029713;5.1140;-14.5280;5.3846;0.0474;0.0576;0.1478
0000029726;5.2960;-14.6022;5.4205;0.0430;0.0193;0.1370
0000029735;5.1954;-14.9709;5.3630;0.0618;-0.0216;0.1239
0000029747;5.2960;-14.9853;5.3223;0.0843;-0.0588;0.1172
0000029756;5.7221;-14.7124;5.2409;0.0914;-0.0746;0.1202
0000029765;5.7820;-14.6429;5.1068;0.1102;-0.0799;0.1280
0000029778;5.9496;-14.2479;4.9512;0.1410;-0.0898;0.1263
0000029787;6.2369;-14.0731;4.9488;0.1496;-0.0805;0.1291
0000029857;5.7964;-14.6262;4.8171;0.1981;-0.0012;-0.0272
0000029866;5.8730;-14.5615;4.7740;0.1944;0.0000;-0.0534
0000029879;5.7628;-14.7076;4.6328;0.1769;-0.0101;-0.0685
0000029888;5.8179;-14.6166;4.5681;0.1367;-0.0116;-0.0541
0000029900;5.8419;-14.6190;4.4053;0.0961;-0.0286;-0.0213
0000029909;5.6312;-14.6860;4.2832;0.0633;-0.0330;0.0141
0000029918;5.7365;-14.7124;4.3263;0.0317;-0.0536;0.0469
0000029931;6.0094;-14.7243;4.3742;-0.0137;-0.0722;0.0889
0000029940;5.7964;-14.8752;4.2928;-0.0378;-0.0902;0.1140
0000029952;5.4013;-15.1218;4.2569;-0.0372;-0.1280;0.1270
0000029961;5.3630;-15.1888;4.2904;-0.0273;-0.1575;0.1204
0000029974;5.1715;-15.3229;4.3024;-0.0041;-0.2089;0.0985
0000029983;5.1691;-15.2870;4.2449;0.0083;-0.2437;0.0933
0000029995;5.3702;-15.0260;4.1515;0.0269;-0.2950;0.0790
0000030004;5.6048;-14.7339;4.1683;0.0298;-0.3288;0.0759
0000030013;5.6910;-14.5615;3.9289;0.0297;-0.3528;0.0825
0000030026;6.0717;-14.4179;3.6009;0.0252;-0.3712;0.0950
0000030035;6.1699;-14.2766;3.6488;0.0161;-0.3778;0.1019
0000030047;6.2393;-14.2120;3.8116;0.0029;-0.3701;0.1033
0000030056;6.1675;-14.2958;3.8044;-0.0044;-0.3568;0.1009
0000030069;6.2800;-14.4155;3.9073;-0.0254;-0.3523;0.0809
0000030078;6.2656;-14.3987;4.1061;-0.0541;-0.3353;0.0494
0000030147;6.8690;-14.4706;4.3072;-0.1491;-0.0199;-0.2145
0000030156;6.4763;-14.3437;4.1779;-0.1840;0.0047;-0.2293
0000030169;5.9448;-14.0755;3.9409;-0.2446;0.0091;-0.2157
0000030178;5.4516;-14.1976;3.6392;-0.2872;-0.0173;-0.1992
0000030187;4.9560;-14.1306;3.6344;-0.3392;-0.0754;-0.1856
0000030199;4.4700;-14.1066;3.5147;-0.4221;-0.1927;-0.1310
0000030208;3.7565;-14.4658;3.2633;-0.4820;-0.2839;-0.0666
0000030221;3.4572;-14.6621;3.1292;-0.5239;-0.4351;0.0075
0000030230;3.3232;-15.1218;3.7924;-0.5032;-0.5187;0.0557
0000030242;4.0390;-16.1082;4.9967;-0.3982;-0.5913;0.1172
0000030251;5.1595;-16.7403;5.0709;-0.2888;-0.5931;0.1876
0000030264;6.9504;-17.3412;5.5905;-0.1664;-0.5485;0.3120
0000030273;7.9679;-18.0259;5.7461;-0.1210;-0.4846;0.4010
0000030285;9.1051;-17.6788;6.4356;-0.0628;-0.3260;0.5005
0000030294;9.1554;-17.5256;6.6894;-0.0060;-0.2042;0.5045
0000030303;8.9783;-17.0970;6.4236;0.0245;-0.0620;0.4844
0000030317;8.4156;-16.3668;6.0334;0.0245;0.1183;0.3778
0000030326;7.9392;-15.9693;5.9640;0.0116;0.2081;0.2907
0000030339;6.9288;-15.1840;5.5641;-0.0221;0.2743;0.1502
0000030348;6.5242;-14.4873;5.6360;-0.0802;0.2903;0.0769
0000030360;5.7916;-14.5903;5.7030;-0.1868;0.2891;0.0228
0000030369;5.3750;-14.7698;5.4731;-0.2405;0.2754;0.0136
0000030437;6.4260;-13.7116;4.8435;-0.1111;0.0667;0.0093
0000030446;6.9983;-13.7427;4.9249;-0.0751;0.0947;-0.0381
0000030455;7.5417;-13.7260;5.0326;-0.0366;0.1547;-0.0879
0000030467;8.0709;-13.7547;5.2744;0.0181;0.2244;-0.1723
0000030476;8.1403;-14.0420;5.4109;0.0616;0.2838;-0.2249
0000030489;8.0469;-13.9247;5.4827;0.1316;0.3740;-0.2821
0000030498;7.5441;-13.9462;5.6695;0.1741;0.4185;-0.2864
0000030510;7.0940;-13.5225;5.6120;0.2164;0.4314;-0.2828
0000030519;6.5098;-13.5919;5.5809;0.2273;0.4162;-0.2635
0000030532;6.0980;-13.4554;5.6647;0.2193;0.3652;-0.2054
0000030541;5.7293;-13.5057;5.6120;0.2036;0.3076;-0.1735
0000030550;5.5210;-13.6661;5.6096;0.1663;0.2571;-0.1426
0000030562;5.5689;-14.1330;5.7604;0.1223;0.1855;-0.0987
0000030571;5.7581;-14.4706;5.7293;0.1015;0.1458;-0.0706
0000030584;6.3925;-14.8033;5.7341;0.1035;0.1131;-0.0364
0000030593;6.5960;-15.0356;5.6790;0.1178;0.1021;-0.0120
0000030605;6.6559;-15.1816;5.5593;0.1292;0.1128;0.0041
0000030614;6.9504;-14.8297;5.3415;0.1319;0.1364;0.0197
0000030627;7.0006;-14.5232;5.2170;0.1188;0.1597;0.0265
0000030636;6.9384;-14.5328;5.2122;0.1207;0.1636;0.0156
0000030645;6.8642;-14.7315;5.2265;0.1312;0.1641;-0.0041
0000030657;6.7349;-14.7555;5.3271;0.1579;0.1525;-0.0341
0000030666;6.4476;-14.9542;5.4516;0.1912;0.1299;-0.0540
0000030735;5.6096;-14.0779;5.0805;0.2248;-0.1335;-0.0300
0000030744;5.6000;-14.2551;5.0039;0.1827;-0.1593;-0.0260
0000030756;5.9999;-14.1330;4.9368;0.1499;-0.1871;-0.0185
0000030765;6.1651;-14.1090;4.7932;0.1215;-0.2009;-0.0218
0000030778;6.2968;-14.1952;4.6304;0.0632;-0.2124;-0.0211
0000030787;6.3782;-14.2862;4.5873;0.0277;-0.2186;-0.0163
0000030799;6.3303;-14.5615;4.6855;0.0028;-0.2337;-0.0060
0000030808;6.1483;-14.7267;4.7142;0.0027;-0.2485;0.0008
0000030817;6.0406;-14.8871;4.5226;-0.0113;-0.2433;0.0141
0000030830;6.0813;-14.8656;4.4628;-0.0274;-0.2626;-0.0003
0000030839;6.0430;-14.7459;4.3503;-0.0276;-0.2670;-0.0028
0000030851;6.1100;-14.8752;4.3000;-0.0248;-0.2689;-0.0091
0000030860;6.3135;-14.7459;4.3263;-0.0272;-0.2641;-0.0081
0000030873;6.8115;-14.8249;4.3359;-0.0281;-0.2290;0.0073
0000030882;6.9671;-14.8512;4.2856;-0.0266;-0.2144;0.0175
0000030894;7.1012;-14.8464;4.1899;-0.0374;-0.1661;0.0329
0000030903;7.0916;-14.9877;4.3670;-0.0361;-0.1324;0.0308
0000030916;6.9288;-15.2726;4.3527;-0.0293;-0.0825;0.0181
0000030925;6.8426;-15.4929;4.2952;-0.0108;-0.0636;0.0005
0000030934;6.4883;-15.5001;4.1994;0.0076;-0.0358;-0.0115
0000030946;6.4691;-15.2391;4.0438;0.0257;-0.0061;-0.0216
0000030955;6.3518;-14.8800;3.7996;0.0248;0.0052;-0.0181
0000031024;7.5130;-14.5615;3.4237;-0.2012;0.2292;0.0159
0000031033;7.6375;-14.7196;3.4500;-0.2212;0.2818;0.0132
0000031045;7.3981;-14.6645;3.4860;-0.2364;0.3680;0.0180
0000031054;7.3478;-14.6741;3.4764;-0.2433;0.4395;-0.0009
0000031067;7.4005;-14.6238;3.5147;-0.2654;0.5416;-0.0469
0000031076;7.4723;-14.6310;3.4788;-0.2735;0.5817;-0.0959
0000031085;7.2568;-14.8991;3.5530;-0.2655;0.5909;-0.1424
0000031097;6.6894;-15.2989;3.7804;-0.2727;0.5817;-0.1708
0000031106;6.3877;-15.5432;3.7469;-0.2815;0.5550;-0.1672
0000031119;5.6072;-16.0268;3.8044;-0.2823;0.5065;-0.1150
0000031128;5.1930;-16.3069;4.1084;-0.2609;0.4554;-0.0902
0000031140;4.9632;-16.8265;4.4173;-0.2321;0.3782;-0.0721
0000031149;5.0925;-17.1042;4.8267;-0.2028;0.3216;-0.0604
0000031162;5.0470;-17.5351;5.3917;-0.1298;0.1932;-0.0771
0000031171;4.8746;-17.9421;5.5402;-0.0834;0.1069;-0.0970
0000031183;4.6615;-17.9254;5.2505;-0.0290;0.0016;-0.1267
0000031192;4.9177;-17.6812;5.2529;0.0064;-0.0508;-0.1308
0000031201;5.3965;-17.0108;5.2218;0.0284;-0.0993;-0.1302
0000031214;5.8826;-16.4697;5.0949;-0.0021;-0.1403;-0.1490
0000031223;6.2297;-15.8783;5.2505;-0.0328;-0.1591;-0.1873
0000031235;6.3877;-15.7969;5.2337;-0.0790;-0.1455;-0.2341
0000031244;6.2513;-15.6389;5.1811;-0.1030;-0.1250;-0.2595
0000031313;6.7588;-13.0556;5.1595;-0.0373;0.0576;-0.3453
0000031322;6.7301;-12.5959;5.3702;-0.0262;0.0715;-0.3235
0000031334;6.3063;-12.6318;5.8802;-0.0305;0.0707;-0.2883
0000031343;5.8754;-12.5815;5.7940;-0.0317;0.0446;-0.2790
0000031356;5.2577;-12.9885;5.9855;-0.0512;0.0112;-0.2433
0000031365;4.9919;-13.2806;6.0717;-0.0645;-0.0220;-0.2217
0000031374;4.8123;-13.4889;5.9304;-0.0682;-0.0648;-0.1845
0000031386;4.7812;-13.6278;5.8826;-0.0726;-0.1271;-0.1358
0000031395;4.6855;-13.8313;5.8371;-0.0794;-0.1565;-0.0825
0000031408;4.7429;-14.1497;5.9280;-0.1027;-0.1965;0.0049
0000031417;5.2505;-14.0348;5.9687;-0.1182;-0.2100;0.0677
0000031429;5.4396;-14.4945;6.1028;-0.1198;-0.2122;0.1394
0000031438;6.0358;-14.4418;5.9831;-0.1118;-0.2002;0.1913
0000031451;6.2153;-14.7124;6.0525;-0.0899;-0.1856;0.2254
0000031460;6.4380;-14.6358;5.9448;-0.0608;-0.1680;0.2312
0000031472;6.7133;-14.2718;5.7557;-0.0277;-0.1266;0.2174
0000031481;6.6080;-14.1162;5.6862;-0.0115;-0.1041;0.1969
0000031490;6.4596;-14.2311;5.5976;0.0007;-0.0677;0.1855
0000031503;6.3542;-13.9773;5.6192;0.0236;-0.0424;0.1605
0000031512;6.0525;-14.3437;5.7461;0.0398;-0.0440;0.1362
0000031524;5.6790;-14.4729;5.8347;0.0516;-0.0629;0.1194
0000031533;5.2457;-14.5951;5.8251;0.0597;-0.0887;0.1152
0000031602;5.4540;-14.3293;5.4612;0.1014;-0.2190;0.2328
0000031611;5.7485;-14.2623;5.5881;0.1046;-0.2226;0.2463
0000031623;5.8275;-14.2910;5.5905;0.1236;-0.2302;0.2501
0000031632;5.8610;-14.3939;5.6288;0.1420;-0.2450;0.2469
0000031641;6.0382;-14.3700;5.5809;0.1525;-0.2475;0.2457
0000031654;5.8395;-14.2527;5.3606;0.1743;-0.2601;0.2338
0000031663;5.6647;-14.2024;5.3870;0.1943;-0.2689;0.2294
0000031675;5.4779;-14.2575;5.5091;0.2101;-0.2774;0.2293
0000031684;5.7054;-13.8481;5.4253;0.2186;-0.2932;0.2286
0000031697;5.7078;-13.6948;5.2002;0.1748;-0.2992;0.2494
0000031706;5.4564;-13.7595;5.1404;0.1450;-0.3046;0.2566
0000031718;5.5665;-14.0324;5.0063;0.0978;-0.3074;0.2701
0000031727;5.5641;-14.1904;4.9081;0.0613;-0.3034;0.2862
0000031740;5.8993;-14.4873;4.9392;0.0522;-0.3106;0.2922
0000031749;6.0645;-14.8153;5.0566;0.0480;-0.2966;0.2962
0000031758;6.1531;-15.0907;4.9368;0.0553;-0.2996;0.2793
0000031770;6.2153;-15.2774;4.9488;0.0697;-0.2906;0.2573
0000031779;6.2225;-15.2175;4.8698;0.0837;-0.2817;0.2410
0000031793;6.2225;-15.1409;4.8291;0.1174;-0.2725;0.2146
0000031802;6.1004;-14.9614;4.8985;0.1344;-0.2657;0.1970
0000031867;6.1387;-14.2192;4.7405;0.1589;-0.2129;0.0421
0000031876;6.0980;-14.2240;4.8028;0.1447;-0.2001;0.0301
0000031888;6.1100;-14.3724;5.0015;0.1615;-0.2024;0.0016
0000031897;6.2489;-14.3293;4.9991;0.1873;-0.1973;-0.0065
0000031906;6.1100;-14.4011;5.0374;0.2198;-0.1915;-0.0161
0000031919;5.9927;-14.2694;5.1404;0.2326;-0.1809;-0.0300
0000031928;5.8227;-14.2455;5.1092;0.2157;-0.1671;-0.0273
0000031940;5.8419;-14.0899;4.9368;0.1893;-0.1466;-0.0353
0000031949;5.9280;-14.2599;5.0613;0.1704;-0.1431;-0.0512
0000031962;6.1100;-14.1162;4.9368;0.1494;-0.1326;-0.0706
0000031971;6.1124;-14.1186;4.9584;0.1414;-0.1350;-0.0875
0000031983;6.0597;-14.1138;4.8004;0.1112;-0.1162;-0.1134
0000031992;6.0765;-14.1833;4.7716;0.0835;-0.0974;-0.1239
0000032001;6.0334;-14.3365;4.7381;0.0690;-0.0806;-0.1467
0000032014;6.1339;-14.6501;4.6208;0.0378;-0.0457;-0.1597
0000032023;6.3015;-14.6262;4.5107;0.0164;-0.0249;-0.1799
0000032035;6.2441;-14.7459;4.4604;-0.0305;0.0226;-0.1909
0000032044;6.3398;-14.8225;4.3934;-0.0630;0.0678;-0.2064
0000032057;6.1603;-14.9877;4.4604;-0.0957;0.1262;-0.2173
0000032066;5.9879;-15.0045;4.3239;-0.1047;0.1451;-0.2382
0000032078;5.9903;-14.8728;4.2186;-0.1151;0.1809;-0.2627
0000032087;5.9687;-14.6094;4.2904;-0.1053;0.1819;-0.2914
0000032154;4.8147;-14.8345;4.2353;-0.0979;-0.0930;-0.3084
0000032163;4.9273;-14.8153;4.2234;-0.1010;-0.1422;-0.2626
0000032172;5.1954;-14.4394;4.3407;-0.1123;-0.1941;-0.2257
0000032184;5.2122;-14.3987;4.7860;-0.1447;-0.2411;-0.1533
0000032193;5.3917;-14.6358;5.1404;-0.1851;-0.2546;-0.0986
0000032206;6.2800;-15.1433;5.3989;-0.2723;-0.2065;-0.0044
0000032215;7.0964;-15.5456;5.3463;-0.3431;-0.1403;0.0683
0000032227;7.8195;-16.3380;5.6168;-0.3976;-0.0152;0.1423
0000032236;7.9224;-16.6924;5.4516;-0.3886;0.0975;0.1699
0000032249;7.3622;-16.2447;4.8602;-0.3132;0.2217;0.1402
0000032258;6.7947;-15.6030;4.9895;-0.2501;0.2691;0.0738
0000032270;6.0478;-14.9733;5.1475;-0.1848;0.2990;-0.0108
0000032279;5.7940;-14.7507;4.9680;-0.1307;0.2789;-0.0576
0000032288;5.6072;-14.6262;5.0853;-0.0821;0.2475;-0.0962
0000032301;5.2840;-14.4562;5.3151;-0.0608;0.1835;-0.1087
0000032310;5.3534;-14.3676;5.3199;-0.0818;0.1436;-0.0829
0000032322;5.2553;-14.3796;5.2888;-0.1147;0.0890;-0.0370
0000032331;5.3391;-14.4634;5.4708;-0.1366;0.0430;-0.0148
0000032344;5.7676;-14.6118;5.3343;-0.1599;-0.0048;0.0067
0000032353;5.9903;-14.7315;5.2481;-0.1772;-0.0179;0.0117
0000032363;6.2608;-14.6070;4.9297;-0.1805;-0.0322;0.0029
0000032371;6.3470;-14.5783;4.9464;-0.1909;-0.0278;-0.0036
