time;acc_x;acc_y;acc_z;gyro_x;gyro_y;gyro_z
0000672416;6.0885;3.6966;0.8595;-0.0065;-0.0846;0.0588
0000672424;5.8610;3.5243;0.7973;-0.0365;-0.0621;0.0538
0000672431;5.7245;3.4357;0.7518;-0.0484;-0.0476;0.0464
0000672439;5.8131;3.1244;0.6345;-0.0685;-0.0321;0.0420
0000672448;5.6455;2.9473;0.5171;-0.0678;-0.0272;0.0280
0000672456;5.7054;2.7438;0.4645;-0.0681;-0.0193;0.0257
0000672464;5.7197;2.7102;0.4836;-0.0517;-0.0286;0.0084
0000672476;5.7461;2.8587;0.3879;-0.0334;-0.0272;-0.0004
0000672484;5.8419;2.9281;0.3903;-0.0222;-0.0221;-0.0053
0000672495;5.9807;3.1244;0.2993;-0.0167;-0.0113;-0.0021
0000672503;6.1220;3.3830;0.3112;-0.0212;0.0119;0.0103
0000672515;6.1962;3.3998;0.3472;-0.0282;0.0400;0.0203
0000672523;6.3949;3.6320;0.3879;-0.0370;0.0502;0.0217
0000672534;6.2489;3.3447;0.3735;-0.0654;0.0751;0.0244
0000672542;5.9903;3.2777;0.5148;-0.0734;0.0721;0.0200
0000672550;5.9735;3.2106;0.4166;-0.0882;0.0670;0.0159
0000672562;5.7557;3.0478;0.4525;-0.0897;0.0434;0.0077
0000672570;5.6000;3.1101;0.4477;-0.0825;0.0169;-0.0147
0000672636;5.4708;2.7605;0.4429;-0.0765;-0.2000;-0.0882
0000672644;5.7174;2.9353;0.4022;-0.0496;-0.2274;-0.0866
0000672656;5.4899;2.9856;0.4956;-0.0097;-0.2637;-0.0869
0000672664;5.5689;3.1364;0.4597;0.0060;-0.2769;-0.0810
0000672672;5.3391;3.1556;0.4501;0.0171;-0.3038;-0.0953
0000672683;5.2218;3.4141;0.5339;0.0188;-0.3369;-0.1163
0000672691;5.0350;3.2681;0.4645;0.0188;-0.3663;-0.1483
0000672703;5.2481;3.4692;0.6704;-0.0091;-0.3964;-0.1947
0000672711;5.3534;3.4117;0.7039;-0.0268;-0.4118;-0.2245
0000672722;5.3917;3.4644;1.0032;-0.0640;-0.4210;-0.2630
0000672730;5.5665;3.4884;1.1636;-0.1106;-0.4109;-0.2762
0000672742;5.7150;3.0718;1.2115;-0.1524;-0.4097;-0.2662
0000672750;5.8610;2.7557;1.0870;-0.1745;-0.3808;-0.2253
0000672758;5.6862;2.3535;0.9792;-0.1789;-0.3504;-0.1811
0000672769;5.4468;1.5993;0.8380;-0.1508;-0.3038;-0.1067
0000672777;5.0829;1.2234;0.8643;-0.1164;-0.2647;-0.0609
0000672789;4.7549;1.3024;0.9337;-0.0757;-0.2185;-0.0097
0000672797;4.6543;1.7980;1.1229;-0.0658;-0.1795;0.0168
0000672808;4.7309;2.8515;1.3360;-0.0690;-0.1548;0.0408
0000672816;4.8650;3.6224;1.4700;-0.0886;-0.1400;0.0577
0000672828;5.3654;4.7549;1.3384;-0.1380;-0.1100;0.0709
0000672836;5.9376;5.1858;1.1109;-0.1940;-0.0695;0.0689
0000672844;6.3279;5.2720;0.7901;-0.2403;-0.0203;0.0762
0000672910;3.1460;3.7469;-0.0263;0.0485;0.0172;-0.2519
0000672919;3.0694;4.1156;0.0910;0.0105;-0.0398;-0.2771
0000672930;3.4405;4.1779;0.2658;-0.0817;-0.1284;-0.2771
0000672938;3.7757;3.6679;0.0742;-0.1480;-0.1779;-0.2590
0000672949;4.6783;3.0670;0.0838;-0.2348;-0.2182;-0.2025
0000672957;5.0182;2.5115;0.1197;-0.2653;-0.2096;-0.1576
0000672969;5.5162;1.7142;-0.0215;-0.2673;-0.1801;-0.1011
0000672977;5.6982;1.4772;-0.1006;-0.2370;-0.1396;-0.0807
0000672985;5.3678;1.2617;-0.1006;-0.1998;-0.0902;-0.0604
0000672996;5.2409;1.5012;-0.0670;-0.1322;-0.0348;-0.0538
0000673004;5.0973;1.8771;-0.0431;-0.0949;0.0065;-0.0466
0000673016;4.6448;2.3918;0.1149;-0.0597;0.0437;-0.0586
0000673024;4.5993;2.8491;0.0503;-0.0468;0.0510;-0.0621
0000673035;4.5298;3.1196;0.1604;-0.0526;0.0561;-0.0602
0000673043;4.4101;3.0095;0.2035;-0.0554;0.0457;-0.0482
0000673055;4.1420;2.6911;-0.1772;-0.0377;0.0141;-0.0434
0000673063;4.1372;2.4110;-0.2514;-0.0173;-0.0053;-0.0241
0000673071;4.1396;2.3990;-0.3017;0.0156;-0.0205;-0.0001
0000673082;4.1468;2.4062;-0.2729;0.0658;-0.0675;0.0241
0000673090;3.7972;2.2745;-0.2801;0.1035;-0.1035;0.0377
0000673102;3.7062;2.8060;-0.2107;0.1386;-0.1675;0.0452
0000673110;3.5745;3.0119;-0.0575;0.1430;-0.1992;0.0498
0000673178;4.6974;2.8252;0.0192;0.1164;-0.3195;0.0274
0000673186;4.6567;2.8491;-0.0694;0.1390;-0.3084;0.0192
0000673194;4.5681;2.9521;-0.0862;0.1780;-0.2984;0.0084
0000673206;4.3766;3.0646;-0.1556;0.2076;-0.2875;0.0215
0000673214;4.2545;3.2681;-0.0982;0.2130;-0.2825;0.0336
0000673225;3.9169;3.1603;0.0239;0.2116;-0.2810;0.0636
0000673233;3.8140;3.1316;-0.1604;0.2088;-0.2872;0.0830
0000673245;3.8307;2.9928;-0.2418;0.2088;-0.2988;0.0978
0000673253;4.0654;2.7964;-0.4429;0.2064;-0.2960;0.1126
0000673264;4.1779;2.8132;-0.6249;0.2188;-0.2864;0.1216
0000673272;4.5203;2.8635;-0.6895;0.2296;-0.2782;0.1198
0000673280;4.3910;2.6767;-0.9266;0.2443;-0.2802;0.1114
0000673292;4.5011;2.5498;-1.1444;0.2773;-0.2769;0.1063
0000673300;4.3407;2.4636;-1.3144;0.3148;-0.2821;0.1078
0000673311;4.0438;2.4588;-1.2905;0.3696;-0.3151;0.1061
0000673319;3.6512;2.7150;-0.7542;0.3745;-0.3384;0.1114
0000673331;3.6799;3.8427;0.4453;0.3118;-0.4337;0.1152
0000673339;4.0294;4.7597;1.0104;0.2361;-0.4774;0.1041
0000673347;4.8890;5.6168;1.3767;0.1604;-0.4894;0.0572
0000673358;6.4428;6.8618;1.7837;0.0640;-0.4386;-0.0332
0000673366;7.1108;6.9935;1.5778;0.0204;-0.3838;-0.0926
0000673378;7.7428;6.1172;1.2019;-0.0394;-0.2447;-0.1254
0000673386;7.3454;4.7836;1.3838;-0.0650;-0.1601;-0.1446
0000673454;5.1571;3.5147;2.4541;-0.0899;-0.3519;0.0754
0000673462;5.8658;2.9592;2.5379;-0.2028;-0.3974;0.1045
0000673474;7.4172;2.3607;2.4349;-0.3015;-0.4084;0.1120
0000673482;7.9487;2.1452;2.4756;-0.3206;-0.3897;0.0898
0000673490;8.3653;2.0063;2.3942;-0.3232;-0.3236;0.0621
0000673501;8.4156;2.1117;2.1380;-0.3070;-0.2403;-0.0005
0000673509;8.4156;2.2673;2.1356;-0.2884;-0.1522;-0.0254
0000673521;7.9511;2.4972;1.9752;-0.2321;-0.0228;-0.0276
0000673529;7.5369;2.4684;1.8340;-0.1812;0.0576;-0.0080
0000673540;7.0533;2.6097;1.7549;-0.0779;0.1352;0.0349
0000673548;6.7397;2.8323;1.7549;0.0099;0.1823;0.0667
0000673556;6.4093;2.9497;1.6735;0.0835;0.2101;0.0927
0000673568;5.8299;3.4668;1.8196;0.1400;0.2222;0.1284
0000673576;5.6934;3.7445;1.8292;0.1427;0.2052;0.1334
0000673587;5.5522;3.6368;1.7909;0.0791;0.1916;0.1283
0000673595;5.3439;3.5051;1.7310;0.0353;0.1804;0.1118
0000673607;5.5378;3.2058;1.7813;-0.0145;0.1655;0.0786
0000673615;5.7245;2.8922;1.7214;-0.0113;0.1434;0.0433
0000673623;5.9592;2.8228;1.6281;-0.0044;0.1366;0.0216
0000673634;6.0885;3.0167;1.6233;-0.0032;0.1284;0.0091
0000673642;6.1387;3.1125;1.6496;-0.0132;0.1140;-0.0053
0000673654;6.2177;2.9951;1.6281;-0.0252;0.0927;0.0100
0000673662;5.8610;2.5139;1.7310;-0.0318;0.0790;0.0229
0000673730;6.1723;2.7821;1.1803;0.0810;-0.0079;0.0702
0000673738;6.4907;3.1220;1.1947;0.0508;-0.0129;0.0719
0000673746;6.6272;3.1508;1.2282;0.0161;-0.0179;0.0553
0000673758;7.0246;3.0191;1.2689;-0.0389;0.0020;0.0436
0000673766;7.1108;2.8347;1.1851;-0.0687;0.0338;0.0445
0000673777;6.9576;2.5283;1.0391;-0.0642;0.0791;0.0424
0000673785;6.7900;2.4014;0.8092;-0.0504;0.1187;0.0509
0000673797;6.3614;2.2242;0.7039;-0.0125;0.1784;0.0637
0000673805;5.9520;2.4732;0.7183;0.0083;0.1994;0.0601
0000673813;5.9185;2.7294;0.7781;0.0237;0.2054;0.0524
0000673825;5.8778;3.2130;0.8499;0.0100;0.2085;0.0388
0000673833;5.9328;3.3303;0.8739;-0.0200;0.2058;0.0302
0000673844;6.4643;3.8642;1.0295;-0.0738;0.1985;0.0180
0000673852;6.6774;3.7948;0.8260;-0.1088;0.2004;0.0047
0000673864;7.0102;3.6248;0.7087;-0.1319;0.2188;-0.0136
0000673872;7.1371;3.5099;0.5890;-0.1276;0.2461;-0.0344
0000673880;6.9576;3.1029;0.4190;-0.1042;0.2778;-0.0528
0000673891;6.8019;2.9951;0.2801;-0.0823;0.3399;-0.0522
0000673899;6.7660;2.8443;0.2849;-0.0671;0.3776;-0.0481
0000673911;6.3710;2.8515;0.1341;-0.0525;0.4253;-0.0368
0000673919;6.2776;3.0837;0.0287;-0.0480;0.4467;-0.0317
0000673987;6.0501;2.8946;0.3184;-0.1079;0.4499;-0.0200
0000673995;5.8826;2.8347;0.2658;-0.0975;0.4429;-0.0177
0000674007;5.9328;3.0071;0.3376;-0.0771;0.4205;0.0011
0000674015;5.8490;3.1101;0.2945;-0.0633;0.3998;0.0081
0000674023;5.5905;3.1220;0.2011;-0.0602;0.3764;0.0085
0000674034;5.5330;3.6009;0.2227;-0.0778;0.3355;0.0100
0000674042;5.3822;3.5171;0.1532;-0.0983;0.2984;-0.0075
0000674054;5.3151;3.5578;-0.0622;-0.1327;0.2597;-0.0248
0000674062;5.1475;3.3615;-0.1006;-0.1451;0.2374;-0.0406
0000674073;5.3726;3.2465;-0.3328;-0.1298;0.2152;-0.0642
0000674081;5.4253;3.0047;-0.6177;-0.1027;0.2065;-0.0849
0000674089;5.7102;2.9521;-0.8811;-0.0613;0.2102;-0.0977
0000674101;5.8179;2.5953;-1.2234;0.0241;0.2238;-0.1152
0000674109;6.1172;2.7294;-1.3982;0.0838;0.2425;-0.1147
0000674120;6.3446;2.6217;-1.7909;0.1577;0.2690;-0.1132
0000674128;6.3111;2.7438;-1.8842;0.2010;0.2831;-0.1135
0000674140;6.4308;2.8850;-2.0590;0.2439;0.2875;-0.1342
0000674148;6.4763;2.9401;-2.0662;0.2477;0.2922;-0.1419
0000674159;6.0861;3.0215;-1.8148;0.2374;0.2817;-0.1752
0000674167;5.9975;3.3710;-1.1420;0.2080;0.2864;-0.1860
0000674175;5.5545;3.5291;-0.1867;0.1793;0.2667;-0.1978
0000674187;4.5538;3.9265;0.5219;0.1888;0.2050;-0.1525
0000674195;3.7972;4.3407;1.1396;0.2471;0.1250;-0.0737
0000674263;6.8043;2.6360;0.9601;0.1575;-0.8587;-0.1047
0000674271;7.9727;2.3727;0.8978;0.1953;-0.7958;-0.1352
0000674283;8.7125;2.2458;0.9146;0.2569;-0.6364;-0.1358
0000674291;8.6359;2.4229;1.2905;0.2859;-0.5093;-0.1114
0000674299;7.9655;2.4612;1.7382;0.3063;-0.3830;-0.0910
0000674310;6.9384;3.1244;2.1979;0.2759;-0.2398;-0.0697
0000674318;6.0741;3.4500;2.4277;0.2406;-0.1577;-0.0492
0000674330;5.2122;3.9768;2.5666;0.1704;-0.0701;-0.0055
0000674338;4.7381;4.0462;2.6001;0.1176;-0.0293;0.0473
0000674349;4.5059;4.1420;2.3343;0.0509;0.0120;0.1082
0000674357;4.4939;3.8571;2.0351;0.0019;0.0394;0.1235
0000674365;4.5203;3.4261;1.6161;-0.0221;0.0517;0.1190
0000674377;4.9033;2.6193;1.3791;-0.0333;0.0729;0.1014
0000674385;5.1332;2.4134;1.2019;-0.0197;0.0823;0.0827
0000674396;5.1164;2.3343;1.1492;0.0079;0.0786;0.0381
0000674404;5.1906;2.4684;1.0247;0.0248;0.0689;0.0044
0000674416;5.0542;2.6408;0.8859;0.0557;0.0361;-0.0626
0000674424;4.5945;2.8036;0.9529;0.0488;0.0109;-0.1039
0000674432;4.6328;3.0071;0.9505;0.0312;-0.0216;-0.1246
0000674443;4.5442;2.7845;0.8763;0.0196;-0.0754;-0.1424
0000674451;4.5633;2.6624;0.8787;0.0116;-0.0978;-0.1370
0000674463;4.2425;2.2865;0.7422;0.0294;-0.1418;-0.1132
0000674471;4.4676;2.2098;0.7230;0.0518;-0.1565;-0.0853
0000674535;4.9512;2.3655;0.3376;0.0649;-0.2041;-0.0717
0000674543;5.1116;2.4612;0.3472;0.0604;-0.2249;-0.0722
0000674555;4.8291;2.0877;0.1628;0.0897;-0.2627;-0.0849
0000674563;4.4963;2.0087;0.2825;0.1250;-0.2840;-0.0834
0000674571;4.4867;2.2075;0.3041;0.1516;-0.3003;-0.0789
0000674582;4.1515;2.0039;0.3112;0.1831;-0.3379;-0.0794
0000674590;4.0821;2.2601;0.3304;0.1966;-0.3629;-0.0893
0000674602;4.1946;2.6887;0.1867;0.2008;-0.4074;-0.0843
0000674610;4.3574;2.7773;0.0910;0.1957;-0.4442;-0.0841
0000674621;4.5873;2.7438;-0.0096;0.1661;-0.4572;-0.0730
0000674629;4.5801;2.7198;-0.0096;0.1601;-0.4735;-0.0725
0000674637;4.9009;2.6121;-0.0311;0.1620;-0.4904;-0.0785
0000674649;4.9273;2.5498;-0.0335;0.1776;-0.4735;-0.0838
0000674657;4.7669;2.4349;-0.0622;0.2044;-0.4687;-0.0915
0000674668;4.8123;2.5618;-0.2586;0.2245;-0.4366;-0.0950
0000674676;4.8937;2.8371;-0.2801;0.2350;-0.4146;-0.0893
0000674688;4.9321;3.1939;-0.2849;0.2322;-0.3882;-0.0755
0000674696;4.9344;3.1556;-0.1963;0.2101;-0.3625;-0.0556
0000674707;4.9680;3.2561;-0.2849;0.1704;-0.3421;-0.0336
0000674715;5.1523;3.2561;-0.2634;0.1410;-0.3423;-0.0069
0000674723;5.2002;3.1316;-0.3472;0.1122;-0.3423;0.0244
0000674735;5.0709;2.8994;-0.3280;0.0861;-0.3613;0.0616
0000674743;5.0111;2.8659;-0.2825;0.0774;-0.3758;0.0747
0000674807;3.7924;2.7940;-0.6297;0.0569;-0.6436;0.0313
0000674815;4.0606;2.8754;-0.6129;0.0448;-0.6815;0.0226
0000674827;4.4341;2.6983;-0.4286;0.0188;-0.7262;0.0185
0000674835;4.6926;2.7318;-0.4453;-0.0020;-0.7328;0.0156
0000674846;4.9368;2.6935;-0.4597;-0.0261;-0.7178;0.0064
0000674854;5.1643;2.7031;-0.5602;-0.0250;-0.6983;-0.0127
0000674862;5.0278;2.6336;-0.7326;-0.0290;-0.6523;-0.0220
0000674874;5.4348;2.9712;-0.5411;-0.0276;-0.5875;-0.0238
0000674882;5.3774;2.9185;-0.5962;-0.0224;-0.5457;-0.0100
0000674893;5.0613;2.8347;-0.6823;-0.0172;-0.4938;0.0131
0000674901;5.1715;3.0358;-0.7757;-0.0171;-0.4465;0.0318
0000674913;4.7549;3.0694;-0.7614;0.0011;-0.4029;0.0394
0000674921;4.5250;3.3208;-0.9290;0.0101;-0.3785;0.0461
0000674932;4.1228;3.2992;-1.0630;-0.0005;-0.3539;0.0469
0000674940;3.9121;3.2920;-1.2043;-0.0161;-0.3652;0.0509
0000674948;3.9720;3.3232;-1.4437;-0.0256;-0.3765;0.0670
0000674961;3.8978;3.0047;-1.4988;-0.0123;-0.4117;0.0793
0000674968;4.1108;3.0143;-1.6783;0.0155;-0.4206;0.0833
0000674979;4.2617;3.2729;-1.6855;0.0580;-0.4399;0.0766
0000674987;4.2090;3.4333;-1.8435;0.0718;-0.4423;0.0726
0000674999;4.0031;3.6536;-1.8148;0.0803;-0.4467;0.0765
0000675007;4.2449;3.9097;-1.9752;0.0830;-0.4421;0.0837
0000675071;5.3798;3.9241;-2.4852;-0.1302;-0.2414;0.0814
0000675079;4.9728;3.6176;-2.4157;-0.1835;-0.1528;0.0875
0000675087;4.8602;3.5458;-2.3655;-0.2226;-0.0845;0.0906
0000675099;4.2880;2.9999;-2.7222;-0.2410;-0.0430;0.1107
0000675107;4.3096;2.7318;-2.7940;-0.2352;-0.0476;0.1575
0000675118;3.5841;2.4277;-3.0646;-0.1720;-0.0866;0.2166
0000675126;2.9185;2.8611;-2.5690;-0.1596;-0.1069;0.2529
0000675138;2.4852;4.5921;0.4046;-0.2653;-0.2106;0.2810
0000675146;3.2537;6.4236;2.7701;-0.4117;-0.2962;0.2666
0000675157;5.6767;8.7197;5.7293;-0.7104;-0.3588;0.1568
0000675165;8.6239;10.3693;6.8402;-0.9149;-0.3475;0.0789
0000675173;11.2480;10.1370;6.9145;-1.0764;-0.3200;0.0317
0000675185;13.4961;6.7684;5.6024;-1.2268;-0.1442;0.0196
0000675193;12.4929;3.1316;4.6184;-1.1739;0.0111;-0.0177
0000675205;9.2847;-1.8771;2.7821;-0.7802;0.3060;-0.0378
0000675213;7.0629;-3.5506;1.6496;-0.4523;0.4483;-0.0633
0000675224;4.3646;-3.8068;1.1827;-0.0874;0.5316;-0.1228
0000675232;2.9497;-3.1771;1.4796;0.0687;0.5081;-0.1899
0000675244;2.0111;-0.8667;1.8052;0.1426;0.3708;-0.2880
0000675252;2.4780;1.4700;2.2003;0.0942;0.2525;-0.2990
0000675260;3.6943;4.0462;2.8180;-0.0019;0.1502;-0.2304
0000675272;6.2345;7.3837;3.6224;-0.1420;0.0558;-0.0448
0000675280;7.8793;8.7963;3.4907;-0.2166;0.0422;0.0671
0000675346;6.2776;1.6328;1.7310;0.2806;0.7863;-0.0493
0000675354;5.8131;2.3056;1.4748;0.2946;0.8251;-0.0124
0000675365;5.3678;2.8395;1.3910;0.2414;0.8276;0.0514
0000675373;5.3917;3.2968;1.3336;0.1793;0.7959;0.0998
0000675381;5.2170;3.6057;1.3934;0.1134;0.7562;0.1392
0000675393;5.5282;3.9097;1.4676;0.0390;0.6764;0.1664
0000675401;5.7365;3.8810;1.5778;-0.0060;0.6302;0.1671
0000675412;5.9352;3.5554;1.5826;-0.0278;0.5698;0.1319
0000675420;6.3255;3.0933;1.6041;-0.0365;0.5431;0.1106
0000675432;6.5410;2.2889;1.5802;-0.0524;0.5337;0.0955
0000675440;6.8043;1.9321;1.4150;-0.0735;0.5492;0.1138
0000675448;7.1994;1.8435;1.1971;-0.0894;0.5746;0.1334
0000675459;7.0366;1.3072;0.9481;-0.1001;0.6233;0.1613
0000675467;7.0773;1.0223;0.7781;-0.0941;0.6546;0.1749
0000675479;6.6319;0.8475;0.6608;-0.0715;0.7100;0.1655
0000675487;6.5697;1.0870;0.5938;-0.0434;0.7429;0.1595
0000675498;6.3470;1.7166;0.7159;0.0302;0.7738;0.1434
0000675506;6.2369;2.2242;0.9816;0.0802;0.7925;0.1516
0000675514;6.2632;2.7725;0.9577;0.1350;0.7907;0.1512
0000675526;6.2656;3.3279;0.9290;0.1632;0.7883;0.1789
0000675534;6.0358;3.2561;0.7590;0.1548;0.7857;0.1947
0000675546;5.6599;3.0765;0.6656;0.1372;0.7574;0.1873
0000675554;5.5426;2.8611;0.6440;0.1406;0.7244;0.1649
0000675620;5.8538;3.0143;0.4046;0.0452;0.5684;0.0717
0000675628;5.7820;3.1532;0.3065;0.0517;0.5680;0.0934
0000675636;5.8323;3.1436;0.2418;0.0618;0.5564;0.0953
0000675647;5.8107;3.0933;0.2849;0.0654;0.5533;0.0965
0000675655;6.1196;3.0718;0.2705;0.0718;0.5441;0.0917
0000675667;6.2560;2.9257;0.0766;0.0717;0.5466;0.0917
0000675675;6.0980;2.7270;0.1149;0.0685;0.5553;0.0855
0000675683;6.2944;2.7366;0.0383;0.0697;0.5646;0.0774
0000675694;6.2058;2.7222;-0.0958;0.0512;0.5967;0.0561
0000675702;6.3015;2.7773;-0.1245;0.0302;0.6109;0.0418
0000675714;6.3710;2.9688;-0.1413;-0.0004;0.6286;0.0222
0000675722;6.4572;2.9568;-0.1844;-0.0119;0.6331;0.0164
0000675733;6.4021;2.9928;-0.2514;-0.0225;0.6362;0.0322
0000675741;6.2704;2.9233;-0.2466;-0.0096;0.6275;0.0325
0000675753;5.8921;2.7581;-0.2945;-0.0081;0.6027;0.0292
0000675761;5.6862;2.6504;-0.2538;-0.0092;0.5796;0.0205
0000675769;5.8299;2.6169;-0.3352;-0.0183;0.5706;0.0179
0000675780;5.8778;2.2529;-0.4669;-0.0265;0.5688;0.0131
0000675788;6.2201;2.3128;-0.5890;-0.0212;0.5757;0.0153
0000675800;6.2513;2.1404;-0.9457;0.0240;0.6183;0.0211
0000675808;6.4093;2.1572;-0.9433;0.0747;0.6448;0.0077
0000675820;6.2537;2.4469;-0.8787;0.1292;0.6909;-0.0196
0000675828;6.4332;2.7557;-0.7949;0.1400;0.7193;-0.0358
0000675836;6.3375;2.9521;-0.7757;0.1444;0.7317;-0.0433
0000675902;6.9504;2.8611;-2.3343;0.3283;0.9078;0.1172
0000675910;7.0581;3.3160;-2.3774;0.3115;0.9353;0.0721
0000675921;6.6367;3.6895;-2.2170;0.2477;0.9538;0.0139
0000675929;6.2632;4.2042;-2.1428;0.1889;0.9325;-0.0282
0000675941;5.1595;4.3934;-1.8220;0.1009;0.8367;-0.0823
0000675949;4.9201;4.6974;-1.9609;0.0372;0.7450;-0.1104
0000675957;4.5705;4.5490;-1.9130;-0.0207;0.6475;-0.1331
0000675968;4.6184;4.4508;-2.2027;-0.0987;0.5193;-0.1657
0000675976;5.0159;4.2306;-2.4660;-0.1560;0.4429;-0.1908
0000675988;5.3726;3.9073;-2.5283;-0.2248;0.3753;-0.2176
0000675996;5.5929;3.8403;-2.5187;-0.2566;0.3497;-0.2385
0000676008;5.4708;3.5530;-2.1452;-0.3026;0.3132;-0.2746
0000676016;5.5617;3.5386;-1.9393;-0.3448;0.2835;-0.2934
0000676028;5.2553;3.4213;-2.0758;-0.4078;0.2077;-0.3031
0000676036;5.4372;3.6272;-1.9249;-0.4570;0.1673;-0.2916
0000676044;5.5905;3.5051;-1.6807;-0.5031;0.1304;-0.2786
0000676055;5.7581;3.2274;-1.3144;-0.5433;0.1144;-0.2575
0000676063;6.0071;3.5458;-0.6943;-0.6042;0.1179;-0.2439
0000676075;5.5737;5.0087;1.5921;-0.8383;0.1480;-0.2272
0000676083;4.8674;6.4212;2.6456;-1.0208;0.1057;-0.1877
0000676095;1.9489;6.9839;6.2225;-0.9598;-0.1791;0.0310
0000676103;0.1891;7.2496;6.5242;-0.6536;-0.4143;0.2238
0000676169;10.7883;2.1859;1.2665;-0.3539;0.4390;0.2226
0000676177;9.4834;2.2170;1.4222;-0.2137;0.6514;0.3234
0000676185;7.5369;2.6360;1.9992;-0.1098;0.7496;0.3818
0000676196;5.0589;4.0223;2.9688;-0.0731;0.7421;0.3965
0000676204;3.0694;4.9225;3.4381;-0.1354;0.6706;0.3551
0000676216;0.7398;5.7221;3.6200;-0.3036;0.4982;0.2399
0000676224;-0.2083;5.4636;3.2633;-0.4093;0.3457;0.1671
0000676235;-0.1365;4.1659;2.6193;-0.4672;0.1191;0.0861
0000676243;0.1460;2.9616;2.7605;-0.4385;-0.0215;0.0249
0000676251;0.8978;1.9656;2.5139;-0.3579;-0.1448;-0.0516
0000676263;2.3655;1.6520;2.2075;-0.2332;-0.2569;-0.1407
0000676271;3.3734;1.8794;2.0566;-0.1692;-0.3059;-0.2205
0000676282;4.3263;2.2889;2.2458;-0.1159;-0.3373;-0.2793
0000676290;4.9584;2.7222;2.1356;-0.0874;-0.3437;-0.2912
0000676302;5.6455;2.8419;2.0853;-0.0598;-0.3007;-0.2483
0000676310;6.3231;2.7773;1.9273;-0.0645;-0.2388;-0.1932
0000676321;6.3494;2.3559;1.5802;-0.0906;-0.1434;-0.1204
0000676329;6.3997;2.0255;1.5419;-0.1187;-0.0746;-0.0697
0000676337;6.2153;1.8459;1.5945;-0.1424;-0.0229;-0.0332
0000676349;5.6024;1.4078;1.4413;-0.1571;0.0438;0.0181
0000676357;5.3989;1.3312;1.2929;-0.1478;0.0777;0.0285
0000676369;4.8219;1.5060;1.4317;-0.1100;0.1029;0.0013
0000676377;4.4915;1.7214;1.3815;-0.0761;0.0881;-0.0441
0000676443;5.8179;1.7023;1.0271;0.0304;0.0893;-0.1069
0000676451;5.9592;1.5371;0.9218;0.0418;0.1411;-0.0913
0000676459;5.9233;1.7669;0.9218;0.0632;0.1901;-0.0867
0000676470;5.9520;1.8411;0.9457;0.0790;0.2450;-0.0757
0000676478;5.4300;1.6472;1.0367;0.0943;0.2671;-0.0714
0000676490;5.0637;1.7071;0.7398;0.1523;0.2874;-0.0810
0000676498;4.6256;1.4605;0.5650;0.2016;0.2938;-0.0909
0000676509;3.9600;1.6161;0.5842;0.2336;0.2807;-0.0973
0000676517;3.6990;1.9106;0.8068;0.2489;0.2471;-0.0958
0000676529;3.3160;2.1668;0.8811;0.2534;0.1828;-0.0862
0000676537;3.0837;2.2386;0.9122;0.2551;0.1299;-0.0785
0000676545;2.8778;2.2793;0.8811;0.2373;0.0775;-0.0714
0000676557;2.6767;2.2553;0.6656;0.2230;-0.0117;-0.0745
0000676565;2.7869;2.3200;0.6776;0.2186;-0.0737;-0.0789
0000676577;3.1436;1.9920;0.3160;0.2415;-0.1633;-0.0687
0000676585;3.3639;1.8938;0.0263;0.2718;-0.2180;-0.0625
0000676597;3.3112;1.7430;-0.0934;0.3079;-0.2851;-0.0504
0000676605;3.4237;1.9345;-0.0383;0.3321;-0.3263;-0.0409
0000676613;3.6416;2.1021;-0.0670;0.3457;-0.3629;-0.0418
0000676625;3.4979;2.5977;0.1772;0.3371;-0.4008;-0.0513
0000676633;3.6559;2.9066;0.2682;0.3111;-0.4162;-0.0528
0000676645;3.9528;3.1484;0.0263;0.2458;-0.4128;-0.0400
0000676653;3.8235;2.5163;-0.3136;0.2114;-0.3845;-0.0254
0000676721;4.7046;3.1244;-0.1053;0.3383;-0.2228;0.1214
0000676729;4.6136;3.1484;0.1604;0.3259;-0.1731;0.0877
0000676741;4.6807;3.4381;-0.0958;0.3110;-0.0971;0.0442
0000676749;4.7118;3.3088;-0.3998;0.3114;-0.0726;0.0302
0000676757;4.8483;3.1029;-0.8882;0.3345;-0.0705;0.0301
0000676769;4.7740;2.7988;-1.4509;0.3828;-0.0775;0.0248
0000676777;4.1827;2.4660;-1.7573;0.4109;-0.0941;0.0165
0000676789;3.6966;2.4565;-2.2290;0.4449;-0.1495;-0.0172
0000676797;3.0263;2.4086;-2.3511;0.4803;-0.1982;-0.0474
0000676809;1.9920;2.4995;-2.2051;0.5408;-0.3138;-0.1046
0000676817;1.2641;3.2968;-1.4174;0.5167;-0.4154;-0.1331
0000676825;0.7230;4.7357;0.1197;0.4088;-0.5373;-0.1448
0000676837;1.2354;7.9727;3.2441;0.1452;-0.7497;-0.1644
0000676845;3.0382;10.5943;4.4676;-0.0099;-0.8250;-0.2053
0000676857;7.3263;12.0931;3.5147;-0.2236;-0.8034;-0.2438
0000676865;10.1921;11.1498;2.4469;-0.4314;-0.6920;-0.1675
0000676877;11.3270;7.4579;1.7286;-0.6483;-0.4830;0.0047
0000676885;10.1825;4.3383;1.7430;-0.6590;-0.3050;0.0859
0000676897;7.9990;1.0415;1.9154;-0.4810;-0.0071;0.1378
0000676905;6.9480;0.2274;2.1955;-0.3240;0.1206;0.1541
0000676913;6.0166;0.3543;2.8754;-0.2218;0.1796;0.1780
0000676925;5.1811;1.9417;4.3694;-0.2193;0.0806;0.1909
0000676933;5.3558;3.4692;4.4245;-0.2757;-0.0418;0.1823
0000677000;8.0565;3.5410;1.4772;-0.3857;-0.3020;-0.0384
0000677008;8.2552;3.1508;1.6640;-0.4001;-0.2563;-0.0577
0000677020;8.1259;2.6815;1.8890;-0.4133;-0.1434;-0.0524
0000677028;7.9990;2.3846;2.0063;-0.4025;-0.0522;-0.0482
0000677040;7.6519;1.9728;1.8196;-0.3557;0.1021;-0.0294
0000677048;7.1323;1.4772;1.9273;-0.3138;0.1931;-0.0099
0000677056;6.8953;1.2977;1.8435;-0.2529;0.2537;0.0089
0000677068;6.4189;1.0127;1.4724;-0.1242;0.2944;0.0390
0000677076;6.3518;1.0798;1.3743;-0.0368;0.2915;0.0522
0000677088;5.9185;1.6137;1.3671;0.0189;0.2493;0.0622
0000677096;5.8275;2.2242;1.2617;-0.0016;0.1993;0.0522
0000677108;5.5857;2.7031;1.3479;-0.0989;0.1227;0.0226
0000677116;6.0190;3.1388;1.2641;-0.1789;0.0763;-0.0039
0000677124;6.0693;3.1173;1.4629;-0.2551;0.0564;-0.0185
0000677136;6.4476;2.7725;1.5682;-0.3279;0.0300;-0.0529
0000677144;6.5864;2.5857;1.7861;-0.3365;0.0422;-0.0594
0000677156;6.8594;2.1476;1.7957;-0.2782;0.0610;-0.0570
0000677164;6.9480;1.8316;1.7957;-0.2190;0.0782;-0.0566
0000677176;6.8283;1.5921;1.7310;-0.1170;0.1219;-0.0502
0000677184;6.8714;1.6209;1.5682;-0.0685;0.1438;-0.0552
0000677192;6.8163;1.7980;1.4174;-0.0422;0.1681;-0.0662
0000677204;6.5745;2.2841;1.3360;-0.0258;0.2004;-0.0858
0000677212;6.5170;2.4660;1.3216;-0.0228;0.2172;-0.0965
0000677280;6.1411;2.5450;1.5993;0.0176;0.3873;-0.0120
0000677288;6.1172;2.3870;1.4078;0.0224;0.3941;-0.0024
0000677300;6.1723;2.3200;1.1803;0.0282;0.4122;0.0152
0000677308;6.1196;2.1955;0.9553;0.0417;0.4182;0.0281
0000677321;5.8873;2.2936;0.7302;0.0652;0.4243;0.0492
0000677328;5.9807;2.5498;0.7781;0.0759;0.4234;0.0628
0000677336;5.9304;2.9018;0.9170;0.0616;0.4106;0.0811
0000677348;5.8227;3.2346;0.9361;0.0143;0.3874;0.0893
0000677356;6.1411;3.3471;0.8212;-0.0225;0.3688;0.0877
0000677368;6.3135;3.4069;0.8595;-0.0931;0.3585;0.0750
0000677376;6.2417;3.1987;0.8978;-0.1207;0.3529;0.0613
0000677384;6.2537;2.9305;0.7638;-0.1484;0.3673;0.0505
0000677396;6.3063;2.9305;0.5794;-0.1514;0.4026;0.0269
0000677404;6.3686;2.9018;0.4932;-0.1447;0.4274;0.0230
0000677416;6.2896;2.8778;0.5818;-0.1363;0.4698;0.0189
0000677425;6.5170;2.8778;0.4166;-0.1350;0.4940;0.0153
0000677438;6.2393;2.6959;0.0982;-0.1367;0.5307;0.0216
0000677447;6.1986;2.5402;-0.1484;-0.1312;0.5392;0.0289
0000677460;6.1579;2.5546;-0.1580;-0.1131;0.5417;0.0484
0000677469;5.7126;2.3655;-0.0503;-0.0961;0.5344;0.0480
0000677478;5.7557;2.4660;-0.0263;-0.0862;0.5268;0.0388
0000677491;5.4540;2.5379;-0.0527;-0.0637;0.4907;0.0241
0000677500;5.4181;2.7749;-0.0455;-0.0589;0.4763;0.0156
0000677569;5.7916;3.1675;-0.4046;-0.0874;0.3320;-0.0035
0000677578;5.5617;3.2274;-0.2251;-0.0887;0.3175;0.0021
0000677591;5.6024;3.6919;0.0622;-0.1183;0.2867;0.0298
0000677600;5.5210;3.7924;0.0359;-0.1492;0.2574;0.0414
0000677609;5.6623;3.8642;0.0335;-0.1816;0.2293;0.0318
0000677622;5.9496;3.5889;-0.1389;-0.2234;0.2177;0.0285
0000677631;6.2560;3.5099;-0.2897;-0.2169;0.2208;0.0144
0000677644;6.4643;3.2537;-0.6177;-0.1613;0.2538;0.0020
0000677653;6.4212;3.3447;-0.6416;-0.1143;0.2864;-0.0035
0000677666;6.4572;3.5889;-0.8499;-0.0601;0.3150;-0.0316
0000677675;6.3255;3.7757;-0.9625;-0.0296;0.3159;-0.0452
0000677688;6.0861;3.6464;-1.2594;0.0015;0.3084;-0.0602
0000677697;5.8347;3.4381;-1.3048;0.0165;0.3026;-0.0532
0000677706;5.6790;3.3327;-1.3599;0.0478;0.2819;-0.0546
0000677719;5.5665;3.8738;-0.8164;0.0693;0.2578;-0.0256
0000677728;4.9273;4.5921;-0.1556;0.0735;0.2146;0.0096
0000677741;3.1843;6.2704;0.9457;0.0674;0.0714;0.1019
0000677750;1.9513;7.3885;1.8866;-0.0012;-0.1151;0.1885
0000677763;1.6352;8.6503;3.0023;-0.2670;-0.4730;0.2322
0000677772;2.9137;8.0014;3.5314;-0.4582;-0.6532;0.1945
0000677781;4.3144;6.1124;3.1651;-0.5105;-0.7565;0.0922
0000677794;6.2584;3.6009;2.0351;-0.3076;-0.7358;-0.0533
0000677803;7.0366;3.0718;1.7190;-0.1184;-0.6351;-0.1182
0000677872;4.5131;0.8571;2.9353;0.0775;-0.0600;-0.0492
0000677881;4.1084;0.9457;2.9066;0.0385;-0.0830;-0.0397
0000677894;3.2034;1.4844;2.9544;-0.0161;-0.1720;-0.0237
0000677903;3.0095;1.8699;3.0167;-0.0421;-0.2519;-0.0117
0000677916;3.4812;2.4636;2.8730;-0.0652;-0.3702;-0.0103
0000677925;4.1132;2.5402;2.7581;-0.0739;-0.4390;-0.0274
0000677934;4.7046;2.3870;2.6528;-0.0687;-0.4767;-0.0793
0000677947;5.2816;2.1452;2.6001;-0.0213;-0.4908;-0.1656
0000677956;5.6000;2.1093;2.4493;0.0272;-0.4727;-0.2228
0000677969;5.5306;2.1476;2.0997;0.1103;-0.4406;-0.2860
0000677978;5.1691;1.9489;2.0877;0.1404;-0.4089;-0.2970
0000677991;5.1595;2.0375;2.0087;0.1605;-0.4021;-0.2801
0000678000;4.9512;2.0399;2.0686;0.1653;-0.4068;-0.2382
0000678009;4.9177;1.7789;1.9441;0.1743;-0.4109;-0.1720
0000678025;5.1212;1.8220;1.7478;0.2249;-0.4201;-0.0750
0000678034;5.0374;1.7214;1.6376;0.2503;-0.4182;-0.0402
0000678047;5.1499;2.1141;1.6185;0.2601;-0.3913;-0.0249
0000678056;5.2625;2.4804;1.5945;0.2523;-0.3782;-0.0414
0000678126;4.9225;2.6624;1.4174;0.2610;-0.5308;-0.0249
0000678135;5.0518;2.6552;1.2570;0.2614;-0.5379;-0.0128
0000678148;5.1906;2.6719;1.0702;0.2665;-0.5448;-0.0289
0000678157;5.0422;2.6049;1.1253;0.2707;-0.5462;-0.0498
0000678166;4.9704;2.5402;1.1349;0.2714;-0.5532;-0.0819
0000678178;4.9368;2.5474;1.0678;0.2814;-0.5574;-0.1030
0000678187;5.1020;2.5809;0.9625;0.2867;-0.5742;-0.1110
0000678200;4.9967;2.4684;0.7901;0.2757;-0.5821;-0.1017
0000678209;5.1188;2.5594;0.7757;0.2635;-0.5760;-0.0959
0000678221;5.0685;2.3583;0.6776;0.2522;-0.5681;-0.0914
0000678230;5.3247;2.3822;0.5052;0.2369;-0.5622;-0.0897
0000678239;4.9656;2.3104;0.4166;0.2410;-0.5728;-0.0895
0000678252;5.1475;2.4301;0.2514;0.2465;-0.5825;-0.0814
0000678261;4.8890;2.6121;0.3280;0.2494;-0.5943;-0.0751
0000678273;4.7070;2.7557;0.1604;0.2515;-0.6061;-0.0791
0000678282;4.5083;2.7940;0.0096;0.2510;-0.6175;-0.0790
0000678295;4.3311;2.7509;-0.1820;0.2531;-0.6386;-0.0689
0000678304;4.4460;2.6336;-0.1149;0.2573;-0.6636;-0.0518
0000678316;4.4245;2.7270;-0.4046;0.2482;-0.6984;-0.0232
0000678325;4.5945;2.8443;-0.3065;0.2313;-0.7260;-0.0252
0000678334;4.6974;2.8850;-0.2849;0.1949;-0.7498;-0.0234
0000678347;5.0733;3.0646;-0.3759;0.1604;-0.7630;-0.0512
0000678356;5.2074;2.8347;-0.2849;0.1498;-0.7702;-0.0655
0000678426;5.2050;2.7988;-0.9290;0.2036;-0.6979;0.0081
0000678435;5.1260;3.0885;-0.9601;0.2012;-0.6968;0.0148
0000678448;5.1284;3.4381;-1.2929;0.1943;-0.6915;0.0300
0000678457;5.1044;3.4093;-1.1420;0.2033;-0.6949;0.0285
0000678469;4.9919;3.4548;-1.2115;0.2037;-0.7125;0.0237
0000678478;4.7477;3.4261;-1.4006;0.1827;-0.7245;0.0161
0000678487;4.5059;3.2322;-1.4054;0.1693;-0.7422;0.0073
0000678500;4.5274;3.0071;-1.5610;0.1712;-0.7645;-0.0079
0000678509;4.6950;3.0406;-1.5634;0.1988;-0.7662;-0.0113
0000678521;4.6663;2.8491;-2.1261;0.2667;-0.7621;0.0059
0000678530;4.4628;2.9185;-2.3990;0.3235;-0.7453;0.0277
0000678543;3.9935;3.4069;-2.7438;0.3415;-0.7192;0.0589
0000678552;3.6344;4.0558;-2.4684;0.2911;-0.7096;0.0654
0000678561;3.7421;5.2960;-1.4509;0.1741;-0.7352;0.0576
0000678573;4.8267;7.7021;0.2682;-0.0909;-0.7594;0.0356
0000678582;6.4835;9.7995;1.5706;-0.2766;-0.7210;-0.0056
0000678595;9.2775;10.5560;1.5945;-0.4586;-0.5890;-0.0941
0000678604;9.8067;8.6933;1.2857;-0.5574;-0.4378;-0.1611
0000678616;8.7771;4.7956;1.0989;-0.5560;-0.1976;-0.2181
0000678625;7.3694;2.0423;1.1468;-0.4338;-0.0273;-0.2110
0000678638;5.4348;0.4741;1.2881;-0.1194;0.0901;-0.1482
0000678647;4.5035;1.5227;2.0183;0.0213;0.0588;-0.0514
0000678656;4.0677;3.1268;3.1220;0.0682;-0.0699;0.0382
0000678726;7.4388;2.5738;2.1739;-0.2577;-0.3476;-0.3375
0000678735;7.4819;2.4995;2.2577;-0.2825;-0.2773;-0.3501
0000678748;7.5729;2.5474;2.2817;-0.3345;-0.1685;-0.3383
0000678757;7.5106;2.4756;2.2027;-0.3519;-0.0935;-0.3135
0000678769;7.2544;2.2386;1.9704;-0.3480;0.0088;-0.2541
0000678778;7.0102;1.8962;1.8028;-0.3068;0.0626;-0.2036
0000678791;6.3734;1.5131;1.6041;-0.1788;0.1037;-0.1535
0000678800;5.8275;1.5467;1.5514;-0.0959;0.1067;-0.1471
0000678809;5.6719;1.7238;1.5060;-0.0516;0.0891;-0.1483
0000678821;5.6383;2.2673;1.4820;-0.0807;0.0614;-0.1619
0000678830;5.6886;2.5833;1.5562;-0.1308;0.0382;-0.1755
0000678843;6.3231;2.5043;1.5682;-0.2054;0.0586;-0.1860
0000678852;6.7062;2.3080;1.6640;-0.2237;0.0769;-0.1915
0000678864;7.2688;2.2913;1.6113;-0.2021;0.0945;-0.1743
0000678873;7.0653;1.9920;1.5490;-0.1607;0.1066;-0.1580
0000678882;6.8833;1.8364;1.4748;-0.1124;0.1248;-0.1202
0000678895;6.5098;2.0255;1.2210;-0.0429;0.1202;-0.0841
0000678904;5.6814;2.1117;1.3024;-0.0120;0.1057;-0.0646
0000678916;5.3846;2.6193;1.1277;-0.0160;0.0759;-0.0393
0000678925;5.4253;3.0765;0.9625;-0.0350;0.0392;-0.0117
0000678938;5.5905;3.2010;0.8882;-0.0814;0.0203;0.0500
0000678947;5.8849;3.2058;0.9888;-0.0957;0.0152;0.0865
0000679017;6.1339;3.0167;1.0056;0.0183;0.1725;0.3062
0000679026;5.6790;2.7988;0.7997;0.0402;0.1608;0.3263
0000679035;5.4827;2.7557;0.8667;0.0585;0.1591;0.3468
0000679048;5.0422;2.6145;0.9098;0.0694;0.1246;0.3451
0000679057;5.1260;2.4756;0.7566;0.0725;0.1015;0.3268
0000679069;5.4971;2.3583;0.4645;0.0711;0.0821;0.2858
0000679078;5.6264;2.3511;0.4573;0.0750;0.0795;0.2505
0000679087;5.7748;2.5522;0.5052;0.0721;0.0694;0.2098
0000679100;6.0885;2.7940;0.2753;0.0576;0.0898;0.1459
0000679109;6.0717;2.7749;0.1053;0.0557;0.0930;0.1051
0000679121;6.0118;2.8970;0.0934;0.0381;0.1050;0.0666
0000679130;5.7054;2.8395;0.2849;0.0280;0.1087;0.0506
0000679143;5.2577;2.7294;0.4788;0.0179;0.1075;0.0229
0000679152;5.1715;2.6959;0.6536;0.0081;0.1051;0.0032
0000679161;5.4324;2.5714;0.5650;-0.0017;0.1086;-0.0208
0000679173;5.8395;2.3918;0.4214;-0.0197;0.1399;-0.0424
0000679182;6.1914;2.3463;0.3472;-0.0028;0.1752;-0.0544
0000679195;6.6990;2.2745;0.0742;0.0414;0.2509;-0.0580
0000679204;7.0509;2.2482;-0.2370;0.0965;0.2914;-0.0485
0000679216;6.6200;2.4014;-0.4357;0.1553;0.3387;-0.0149
0000679225;6.1914;2.7031;-0.3136;0.1833;0.3464;-0.0083
0000679238;5.7126;3.1987;-0.1556;0.1451;0.3327;-0.0124
0000679247;5.3008;3.3088;-0.0263;0.0851;0.3135;-0.0233
0000679256;5.6719;3.4189;-0.0646;0.0236;0.2930;-0.0469
0000679324;5.9185;3.5147;-1.0295;-0.0334;0.5272;0.0089
0000679333;5.1427;3.8116;-0.7949;-0.0743;0.5355;0.0212
0000679346;4.8363;4.1108;-0.6728;-0.1655;0.5069;0.0197
0000679355;4.7190;4.0941;-0.6823;-0.2282;0.4684;0.0171
0000679367;5.2026;3.7421;-0.8930;-0.2658;0.4218;0.0139
0000679376;5.6455;3.3782;-0.7901;-0.2697;0.4002;0.0013
0000679385;5.7892;3.1484;-0.8140;-0.2493;0.4010;0.0043
0000679398;6.0214;3.0981;-0.7757;-0.2013;0.3901;0.0012
0000679407;5.6623;3.0454;-0.8260;-0.1803;0.3786;-0.0005
0000679419;5.0326;2.9808;-0.9697;-0.1687;0.3323;-0.0032
0000679428;4.7764;2.9497;-1.0774;-0.1713;0.2850;-0.0180
0000679441;5.2433;3.3423;-1.1540;-0.2037;0.2316;-0.0380
0000679450;5.4803;3.4429;-1.2234;-0.2329;0.2132;-0.0544
0000679462;6.1483;3.9002;-0.4190;-0.3140;0.2214;-0.0931
0000679471;6.4620;4.5705;0.9170;-0.4061;0.2443;-0.1058
0000679480;6.0908;4.8339;1.8771;-0.4710;0.2825;-0.0613
0000679493;3.7373;5.8921;2.4900;-0.3613;0.2006;0.1303
0000679502;1.2378;6.4859;2.3056;-0.1669;0.0400;0.2755
0000679513;0.2083;7.0964;1.2186;-0.0350;-0.2036;0.3030
0000679522;0.5028;6.2800;0.7685;-0.0787;-0.3856;0.2048
0000679536;3.5003;5.1260;0.8404;-0.2104;-0.6041;-0.0663
0000679545;5.6886;4.3479;1.2306;-0.2197;-0.6356;-0.2041
0000679554;7.7117;3.9935;1.6185;-0.1605;-0.5809;-0.2899
0000679621;4.5274;2.1261;2.8012;-0.0436;0.4258;0.2258
0000679630;4.1013;2.1715;2.6336;-0.0570;0.3797;0.2378
0000679642;3.2226;2.3990;2.7581;-0.0537;0.2570;0.2122
0000679651;2.7677;2.8012;2.6983;-0.0397;0.1495;0.1515
0000679664;2.7007;2.8443;2.5474;-0.0260;0.0039;0.0505
0000679673;3.1891;2.6217;2.4325;-0.0246;-0.0866;-0.0221
0000679685;4.2353;2.0973;2.5091;-0.0013;-0.2008;-0.0990
0000679694;4.7166;1.7478;2.4062;0.0554;-0.2618;-0.1436
0000679703;5.1451;1.6448;2.2410;0.1208;-0.2939;-0.1780
0000679716;5.2098;1.6496;1.9632;0.1701;-0.2915;-0.2174
0000679725;5.2146;1.7645;1.8890;0.1543;-0.2597;-0.2261
0000679737;5.1332;1.7071;1.7621;0.1142;-0.2244;-0.2257
0000679746;5.3486;1.6376;1.7645;0.1014;-0.2054;-0.1962
0000679759;5.1595;1.4988;1.7909;0.1128;-0.1879;-0.1356
0000679768;4.9895;1.5706;1.7095;0.1312;-0.1849;-0.0955
0000679777;4.7621;1.6640;1.8028;0.1597;-0.2013;-0.0711
0000679789;4.6064;1.7957;1.6999;0.2054;-0.2344;-0.0536
0000679798;4.5993;2.1284;1.8292;0.2431;-0.2673;-0.0658
0000679811;4.8866;2.2913;1.6520;0.2860;-0.3020;-0.0922
0000679820;4.8339;2.1284;1.4485;0.3047;-0.3273;-0.1069
0000679832;5.3032;2.2362;1.3216;0.2968;-0.3436;-0.0989
0000679841;5.4253;2.4086;1.3048;0.2797;-0.3349;-0.0831
0000679908;4.9632;2.5139;1.0247;0.1869;-0.3182;-0.0374
0000679917;4.9033;2.3032;0.8667;0.2084;-0.3172;-0.0465
0000679926;4.7716;2.1596;0.6943;0.2342;-0.3400;-0.0709
0000679938;4.7860;2.2529;0.5698;0.2606;-0.3623;-0.0941
0000679947;4.3886;2.2673;0.5746;0.2795;-0.3910;-0.1029
0000679960;4.3287;2.6097;0.4142;0.3063;-0.4335;-0.1174
0000679969;4.3670;2.9521;0.3998;0.3026;-0.4698;-0.1255
0000679981;4.3814;3.0215;0.2586;0.2838;-0.5128;-0.1170
0000679990;4.3838;2.9329;0.1365;0.2710;-0.5327;-0.1030
0000679999;4.5418;2.6360;0.0670;0.2739;-0.5613;-0.0967
0000680012;4.3479;1.9968;0.0048;0.2860;-0.5975;-0.0846
0000680021;4.7046;2.2769;-0.1125;0.3046;-0.6101;-0.0738
0000680033;4.6064;2.3774;-0.2586;0.3122;-0.6308;-0.0670
0000680042;4.6208;2.4325;-0.2801;0.3174;-0.6459;-0.0655
0000680055;5.0015;2.6264;-0.3519;0.3051;-0.6507;-0.0625
0000680064;5.0350;2.7007;-0.5650;0.2906;-0.6519;-0.0622
0000680076;5.3439;2.9497;-0.7733;0.2591;-0.6257;-0.0430
0000680085;5.1523;2.6935;-0.8212;0.2511;-0.6138;-0.0298
0000680094;5.3079;2.8754;-0.7207;0.2321;-0.5990;0.0025
0000680107;4.9105;2.5929;-0.6536;0.2189;-0.5885;0.0500
0000680116;5.1188;2.7461;-0.6129;0.2254;-0.5866;0.0773
0000680128;4.8028;2.7749;-0.7853;0.2332;-0.5718;0.1131
0000680137;4.8794;2.8970;-0.7494;0.2198;-0.5542;0.1351
0000680204;5.3774;3.4453;-0.4980;0.0725;-0.3048;0.1410
0000680213;5.2864;3.5937;-0.5914;0.0685;-0.2566;0.1219
0000680225;5.2218;3.6990;-0.7542;0.0554;-0.2006;0.0981
0000680234;4.9177;3.4764;-0.9385;0.0518;-0.1724;0.0977
0000680243;5.0326;3.4668;-1.2091;0.0561;-0.1608;0.0986
0000680256;4.5155;3.0406;-1.5514;0.0754;-0.1700;0.0981
0000680265;4.0989;3.0023;-1.7286;0.0965;-0.1789;0.0757
0000680277;3.1077;2.8563;-1.9872;0.1306;-0.2222;0.0350
0000680286;2.9808;2.9592;-1.9656;0.1608;-0.2679;0.0108
0000680299;2.7581;3.8044;-1.3791;0.1528;-0.3593;-0.0195
0000680308;3.0287;4.9368;-0.6225;0.0774;-0.4311;-0.0230
0000680317;3.9911;6.3231;0.1341;-0.0175;-0.5131;-0.0529
0000680329;5.6407;7.5753;1.2953;-0.1507;-0.5593;-0.1104
0000680338;7.1587;7.8913;1.6640;-0.2577;-0.5357;-0.1713
0000680351;8.5569;6.4165;1.4222;-0.3589;-0.3706;-0.2289
0000680360;8.5186;4.8866;1.4964;-0.3416;-0.2022;-0.2426
0000680372;7.4915;3.1220;1.3288;-0.2554;0.0304;-0.2181
0000680381;6.6870;2.4756;1.2067;-0.1912;0.1852;-0.1531
0000680394;5.0949;2.8180;1.7933;-0.1304;0.2879;-0.0238
0000680403;4.3742;3.5721;2.2673;-0.1295;0.2687;0.0436
0000680412;4.2952;4.1899;2.4660;-0.1339;0.1936;0.0654
0000680424;4.2569;4.4915;2.7318;-0.1823;0.0457;0.0585
0000680433;4.5107;4.3215;2.6863;-0.2338;-0.0886;0.0484
0000680500;7.0773;2.9137;1.6544;-0.1873;-0.2138;-0.1451
0000680509;7.4723;3.0574;1.7095;-0.2016;-0.1430;-0.1326
0000680521;7.5705;2.9281;1.7573;-0.1920;-0.0486;-0.1200
0000680530;7.3263;2.5259;1.7166;-0.1645;0.0357;-0.0971
0000680543;7.1994;2.2075;1.8004;-0.1001;0.1298;-0.0765
0000680552;6.8378;2.1117;1.8076;-0.0568;0.1815;-0.0759
0000680561;6.7445;2.1404;1.7286;-0.0372;0.2313;-0.0581
0000680573;6.8235;2.2577;1.6065;-0.0356;0.2866;-0.0376
0000680582;6.8977;2.3750;1.4317;-0.0409;0.3239;-0.0221
0000680595;7.0198;2.2673;1.4054;-0.0625;0.3852;-0.0125
0000680604;7.2832;2.3176;1.3336;-0.0677;0.4301;-0.0065
0000680616;7.3310;2.3822;1.3144;-0.0805;0.5064;0.0055
0000680625;7.3741;2.5666;1.2617;-0.0961;0.5649;0.0208
0000680634;6.9145;2.4421;1.1708;-0.0967;0.6135;0.0341
0000680647;6.6104;2.4995;1.1013;-0.0735;0.6792;0.0630
0000680656;6.3351;2.4517;0.9720;-0.0342;0.7125;0.0843
0000680668;6.0094;2.1883;0.8619;0.0218;0.7397;0.0989
0000680677;5.6072;1.9465;0.7302;0.0673;0.7406;0.0835
0000680690;5.6048;2.3631;0.7374;0.1069;0.7321;0.0570
0000680699;5.5689;2.6169;0.6105;0.1170;0.7229;0.0270
0000680708;5.8873;3.2226;0.7661;0.1162;0.7069;0.0065
0000680720;5.8873;3.3830;0.8188;0.1018;0.6980;-0.0112
0000680729;6.2225;3.5338;0.7302;0.0939;0.6993;-0.0207
0000680796;5.7221;3.2657;0.5746;0.0304;0.8338;0.0326
0000680805;5.8634;3.3136;0.5483;0.0020;0.8503;0.0393
0000680817;6.1028;3.3950;0.5243;-0.0305;0.8832;0.0330
0000680826;6.2225;3.3758;0.4070;-0.0265;0.9165;0.0187
0000680835;6.3375;3.2034;0.3903;-0.0309;0.9642;0.0204
0000680848;6.3255;2.9473;0.2610;-0.0177;1.0267;0.0249
0000680857;6.2106;2.8347;0.2107;-0.0013;1.0639;0.0453
0000680869;6.2273;2.9568;0.1484;0.0104;1.1105;0.0723
0000680878;5.9664;2.9353;0.2203;0.0072;1.1441;0.0930
0000680891;5.8921;3.0047;0.2370;-0.0001;1.1634;0.0970
0000680900;5.5522;2.9113;0.0551;-0.0049;1.1682;0.0930
0000680909;5.6431;3.0382;-0.0575;-0.0045;1.1695;0.0789
0000680921;5.5330;2.8467;-0.2274;0.0087;1.1647;0.0634
0000680930;5.4779;2.7725;-0.3759;0.0209;1.1458;0.0488
0000680943;5.3822;2.9425;-0.4118;0.0195;1.1238;0.0309
0000680952;5.3750;3.0813;-0.4262;0.0153;1.0985;0.0220
0000680964;5.2912;3.3040;-0.4286;0.0016;1.0596;0.0101
0000680973;5.1858;3.3974;-0.3855;-0.0133;1.0231;0.0012
0000680982;5.1667;3.3974;-0.3041;-0.0422;0.9860;-0.0060
0000680996;5.0949;3.2801;-0.4286;-0.0850;0.9324;-0.0085
0000681005;5.0853;2.9521;-0.4884;-0.0894;0.9037;-0.0151
0000681072;5.0494;3.2465;-0.7087;-0.0524;0.7601;-0.0333
0000681081;5.0039;3.2825;-0.8978;-0.0719;0.7218;-0.0221
0000681093;4.8052;2.9688;-0.9720;-0.0846;0.6829;0.0161
0000681102;4.8961;2.9425;-1.0606;-0.0718;0.6475;0.0452
0000681115;4.7022;2.9185;-1.1564;-0.0524;0.5820;0.0815
0000681124;4.8794;2.9185;-1.0702;-0.0568;0.5256;0.0951
0000681133;4.7716;2.9592;-1.0678;-0.0649;0.4543;0.0821
0000681145;4.9177;3.0502;-1.2115;-0.1029;0.3639;0.0698
0000681154;5.1404;3.2130;-1.1923;-0.1238;0.3070;0.0600
0000681167;5.1404;3.4500;-1.3048;-0.1531;0.2344;0.0406
0000681176;5.0087;3.3375;-1.3024;-0.1584;0.1929;0.0211
0000681188;5.2194;3.5626;-1.2833;-0.1749;0.1553;-0.0101
0000681197;5.2002;3.3447;-1.1708;-0.1951;0.1330;-0.0296
0000681206;5.3008;3.3208;-1.0606;-0.2060;0.1116;-0.0616
0000681219;5.4205;3.1843;-0.9385;-0.2021;0.0942;-0.0891
0000681228;5.5617;3.2298;-0.8021;-0.2034;0.1010;-0.0901
0000681240;5.7844;3.3327;-0.8882;-0.2108;0.1053;-0.1025
0000681249;5.8802;3.3806;-0.7733;-0.2274;0.1170;-0.1131
0000681262;6.1459;3.2130;-0.7638;-0.2898;0.1636;-0.1286
0000681271;6.1962;2.8826;-0.7590;-0.3211;0.1961;-0.1464
0000681283;6.4452;2.5235;-0.8691;-0.3238;0.2559;-0.1565
0000681292;6.2800;2.2314;-0.8906;-0.2890;0.3226;-0.1402
0000681301;5.8586;2.3798;-0.4166;-0.2569;0.3756;-0.1323
0000681368;3.4477;5.0015;0.7063;-0.2667;-0.2165;0.2457
0000681377;4.5538;4.4843;0.4310;-0.2835;-0.3140;0.1978
0000681389;5.4899;4.0079;0.2035;-0.2374;-0.3880;0.1222
0000681398;6.3279;4.0893;0.3352;-0.2118;-0.4012;0.0486
0000681411;6.7804;4.4987;0.5746;-0.2112;-0.3621;-0.0304
0000681420;7.0150;4.4700;0.5219;-0.2094;-0.3156;-0.0785
0000681432;7.0940;4.2114;0.5435;-0.1853;-0.2145;-0.1022
0000681441;6.8259;3.8906;0.4812;-0.1627;-0.1270;-0.0977
0000681450;6.6367;3.7326;0.6177;-0.1411;-0.0474;-0.1114
0000681463;5.9280;3.3040;0.6033;-0.1108;0.0557;-0.1286
0000681472;5.4516;3.3040;0.7805;-0.1135;0.1065;-0.1284
0000681484;4.7357;3.1747;1.2210;-0.1230;0.1335;-0.1071
0000681493;4.4939;3.0502;1.6520;-0.1535;0.1260;-0.0703
0000681506;4.6017;2.6791;2.0806;-0.2105;0.1057;-0.0290
0000681515;4.4412;2.0111;2.1931;-0.2385;0.0779;-0.0189
0000681527;5.0015;1.5179;2.2889;-0.2518;0.0552;-0.0095
0000681536;5.0805;1.2402;2.1859;-0.2499;0.0486;-0.0033
0000681545;5.2601;1.0894;2.1237;-0.2294;0.0316;-0.0169
0000681558;5.0613;1.1875;2.0231;-0.2110;0.0270;-0.0175
0000681567;4.9225;1.3192;1.9561;-0.2189;0.0273;-0.0139
0000681579;4.4149;1.9585;2.0111;-0.2242;0.0075;-0.0173
0000681588;4.3000;2.5474;2.1715;-0.2264;-0.0197;-0.0180
0000681657;4.6184;2.8515;1.4605;-0.0829;-0.3155;-0.1090
0000681666;5.0182;2.9880;1.4581;-0.0813;-0.3309;-0.1218
0000681675;5.0613;2.9185;1.4485;-0.0855;-0.3132;-0.1279
0000681687;5.0446;2.9042;1.4054;-0.0873;-0.2987;-0.1306
0000681696;5.1332;3.0263;1.3743;-0.0795;-0.2738;-0.1216
0000681709;4.6831;2.6528;1.3360;-0.0602;-0.2341;-0.1002
0000681718;4.8339;2.6671;1.2019;-0.0418;-0.2122;-0.0858
0000681730;4.6448;2.4014;1.2067;-0.0096;-0.1997;-0.0685
0000681739;4.7190;2.4325;1.1756;0.0187;-0.2053;-0.0703
0000681752;5.0470;2.5905;1.2378;0.0382;-0.2042;-0.0525
0000681761;4.8291;2.6360;1.1612;0.0433;-0.1956;-0.0489
0000681770;4.9752;2.7270;1.2258;0.0416;-0.2060;-0.0486
0000681782;4.9321;2.7414;1.1899;0.0334;-0.1961;-0.0497
0000681791;5.1380;2.7773;1.1684;0.0310;-0.1901;-0.0562
0000681804;4.7788;2.6743;1.0319;0.0556;-0.1889;-0.0686
0000681813;4.6735;2.4277;0.9960;0.0645;-0.1820;-0.0678
0000681825;4.6902;2.3655;0.9673;0.0954;-0.1913;-0.0719
0000681834;4.5107;2.4181;0.9720;0.1326;-0.2002;-0.0846
0000681847;4.6831;2.7174;1.0319;0.1695;-0.1974;-0.0797
0000681856;4.5729;2.7198;0.9936;0.1828;-0.2025;-0.0902
0000681865;4.7597;2.9042;1.0415;0.1777;-0.1899;-0.0803
0000681877;4.6256;3.1867;0.8954;0.1671;-0.1913;-0.0822
0000681886;4.7238;3.1963;0.8452;0.1407;-0.1852;-0.0853
0000681955;4.5418;3.1053;0.6728;0.1402;-0.3200;-0.1545
0000681964;4.3910;3.0765;0.6871;0.1295;-0.3311;-0.1529
0000681976;4.4508;2.9425;0.5674;0.1180;-0.3400;-0.1420
0000681985;4.5418;3.0765;0.6800;0.1174;-0.3456;-0.1427
0000681994;4.4700;3.0143;0.7446;0.1078;-0.3593;-0.1366
0000682007;4.4317;3.0406;0.6536;0.0810;-0.3680;-0.1182
0000682016;4.4508;2.8683;0.6895;0.0753;-0.3828;-0.1055
0000682028;4.5490;2.7869;0.6057;0.0612;-0.3990;-0.0811
0000682037;4.6256;2.5857;0.5914;0.0649;-0.4181;-0.0717
0000682050;4.5849;2.5618;0.3663;0.0642;-0.4266;-0.0580
0000682059;4.7788;2.7390;0.4717;0.0605;-0.4231;-0.0494
0000682071;4.4915;2.6935;0.5076;0.0629;-0.4273;-0.0501
0000682080;4.8674;2.8922;0.3687;0.0636;-0.4222;-0.0468
0000682089;4.8267;2.9616;0.2131;0.0614;-0.4239;-0.0368
0000682102;4.7932;2.8683;0.1844;0.0691;-0.4270;-0.0326
0000682111;4.7094;2.8467;0.2729;0.0725;-0.4305;-0.0318
0000682123;4.7836;2.7749;0.2059;0.0759;-0.4281;-0.0324
0000682132;4.6974;2.5881;0.0910;0.0835;-0.4198;-0.0329
0000682145;4.7788;2.6217;0.1413;0.0726;-0.4163;-0.0177
0000682154;4.5538;2.6600;0.1987;0.0569;-0.4124;0.0049
0000682163;4.7812;2.8108;0.2490;0.0464;-0.4116;0.0220
0000682175;5.0925;3.0454;0.1484;0.0453;-0.3968;0.0433
0000682184;5.1978;3.0263;0.1030;0.0494;-0.3829;0.0522
0000682253;4.7669;2.8994;-0.0766;0.0408;-0.2501;0.1186
0000682262;4.7094;2.7940;-0.0096;0.0436;-0.2365;0.1320
0000682274;4.7070;2.8084;-0.1197;0.0652;-0.2314;0.1348
0000682283;4.7381;2.9042;-0.1580;0.0753;-0.2386;0.1360
0000682296;4.6926;3.1580;-0.4453;0.0733;-0.2479;0.1362
0000682305;4.5203;3.0071;-0.4238;0.0569;-0.2535;0.1532
0000682314;4.5418;2.9425;-0.3974;0.0570;-0.2675;0.1423
0000682326;4.5969;2.9473;-0.4070;0.0558;-0.2717;0.1378
0000682335;4.5490;2.8515;-0.4046;0.0617;-0.2831;0.1294
0000682348;4.4796;2.8204;-0.3903;0.0718;-0.2813;0.1400
0000682357;4.5322;2.9018;-0.4070;0.0638;-0.2747;0.1519
0000682369;4.5394;2.9736;-0.0862;0.0489;-0.2733;0.1665
0000682378;4.7238;3.4884;0.0599;0.0373;-0.2727;0.1672
0000682387;5.2720;3.9600;0.2514;0.0184;-0.2703;0.1692
0000682400;5.8012;4.6184;0.5794;0.0036;-0.2459;0.1283
0000682409;5.9041;4.7022;0.7638;-0.0224;-0.2033;0.0814
0000682421;5.9999;4.4077;0.7709;-0.0600;-0.1358;0.0145
0000682430;6.1196;3.9385;0.5124;-0.0490;-0.0913;-0.0248
0000682443;5.6862;2.8587;0.4669;-0.0135;-0.0080;-0.0362
0000682452;5.1164;2.5474;0.6464;0.0020;0.0432;-0.0168
0000682461;4.5921;3.0981;1.0080;-0.0141;0.0561;-0.0008
0000682473;4.7525;3.9002;1.1253;-0.0224;0.0569;0.0176
0000682482;4.9536;4.4317;1.0750;-0.0300;0.0675;0.0127
0000682552;4.3598;2.7366;1.3192;0.0313;-0.1876;0.0155
0000682561;5.0781;2.8012;1.1085;0.0099;-0.2076;0.0120
0000682574;5.9855;2.6815;1.1085;-0.0011;-0.1856;-0.0035
0000682583;6.8402;2.8683;1.1037;-0.0077;-0.1532;-0.0232
0000682595;7.3406;2.7988;1.3408;-0.0201;-0.0934;-0.0380
0000682604;7.6255;2.8252;1.4988;-0.0461;-0.0376;-0.0270
0000682613;7.5896;2.5139;1.6017;-0.0731;0.0073;-0.0216
0000682626;7.4244;2.2841;1.7957;-0.1326;0.0793;-0.0028
0000682635;7.3670;2.2960;1.6855;-0.1552;0.1282;0.0059
0000682647;7.1706;2.2194;1.7430;-0.1740;0.2073;0.0397
0000682656;7.3047;2.4612;1.8268;-0.1715;0.2578;0.0558
0000682669;6.8283;2.5235;1.7454;-0.1661;0.3307;0.0747
0000682678;6.9743;2.9736;1.6233;-0.1572;0.3725;0.0797
0000682687;6.7971;3.1556;1.5921;-0.1491;0.4102;0.0927
0000682699;6.5841;3.2657;1.3886;-0.1238;0.4462;0.1019
0000682708;6.3494;3.2250;1.1827;-0.0918;0.4554;0.1011
0000682721;6.0310;3.1532;0.9984;-0.0565;0.4554;0.1238
0000682730;5.7844;3.0167;1.0271;-0.0508;0.4221;0.1179
0000682742;5.7245;3.1364;0.9242;-0.0711;0.3764;0.1081
0000682751;5.7006;3.0215;0.9840;-0.0882;0.3437;0.1079
0000682760;5.5067;2.8132;0.9361;-0.0921;0.3047;0.0962
0000682773;5.8347;3.1125;0.9313;-0.0691;0.2854;0.0814
0000682782;5.9089;3.0670;0.8308;-0.0406;0.2898;0.0667
0000682852;5.9209;2.9473;0.9553;-0.0064;0.3826;0.0750
0000682861;5.8873;2.9473;0.8332;-0.0127;0.3953;0.0790
0000682874;5.8442;2.9018;0.7566;0.0024;0.4006;0.0733
0000682883;5.8969;2.9760;0.6895;0.0009;0.4090;0.0758
0000682892;5.7964;2.9856;0.6656;0.0024;0.4044;0.0693
0000682904;5.7437;2.9640;0.7230;-0.0075;0.3978;0.0596
0000682913;5.8347;2.9856;0.6512;-0.0294;0.3968;0.0622
0000682926;5.8538;3.0502;0.5195;-0.0544;0.3809;0.0616
0000682935;5.6551;3.2202;0.5914;-0.0686;0.3692;0.0601
0000682947;5.7988;3.1029;0.5195;-0.0797;0.3531;0.0588
0000682956;5.8586;3.0382;0.5483;-0.0858;0.3456;0.0606
0000682965;5.9376;3.0478;0.5219;-0.0819;0.3452;0.0632
0000682978;5.9209;2.7150;0.5100;-0.0730;0.3475;0.0589
0000682987;6.1651;2.9185;0.6081;-0.0540;0.3525;0.0488
0000682999;6.1052;3.0957;0.5507;-0.0324;0.3615;0.0309
0000683008;6.1076;3.0215;0.5483;-0.0317;0.3685;0.0225
0000683021;6.1100;2.9951;0.4166;-0.0258;0.3838;0.0039
0000683030;6.2177;3.0574;0.3831;-0.0266;0.3973;-0.0003
0000683039;5.9520;2.9856;0.3711;-0.0254;0.4004;-0.0084
0000683051;6.0837;3.0789;0.2251;-0.0273;0.4002;-0.0183
0000683060;5.7676;2.8659;0.2322;-0.0342;0.4057;-0.0100
0000683073;5.8706;3.1484;0.1867;-0.0337;0.3956;-0.0224
0000683082;5.8610;3.2441;0.1437;-0.0465;0.3925;-0.0301
0000683152;5.9879;2.7366;0.1796;-0.0749;0.4283;-0.0879
0000683161;5.8179;2.7198;0.3112;-0.0472;0.4377;-0.0778
0000683174;5.6527;2.9473;0.1724;-0.0372;0.4398;-0.0597
0000683183;5.7604;2.7414;0.0527;-0.0252;0.4405;-0.0616
0000683192;5.9903;2.9233;-0.0287;-0.0188;0.4409;-0.0636
0000683204;6.0549;3.0095;-0.0622;-0.0024;0.4507;-0.0648
0000683213;6.1555;3.0933;-0.0479;0.0145;0.4522;-0.0750
0000683226;6.2896;3.2992;-0.1053;0.0141;0.4590;-0.0771
0000683235;6.4907;3.4141;-0.0455;0.0024;0.4627;-0.0911
0000683247;6.3949;3.4524;-0.0335;-0.0228;0.4610;-0.0902
0000683256;6.2680;3.5123;0.0072;-0.0293;0.4574;-0.0975
0000683265;6.2369;3.4692;0.1101;-0.0568;0.4672;-0.0894
0000683278;6.1842;3.1436;0.0455;-0.0911;0.4818;-0.0919
0000683287;6.1723;3.1173;-0.0168;-0.1014;0.4986;-0.0927
0000683299;6.3829;3.1556;-0.0646;-0.1167;0.5415;-0.1014
0000683308;6.6391;2.9616;-0.1604;-0.1116;0.5918;-0.0901
0000683321;6.7133;2.9856;-0.2394;-0.0951;0.6544;-0.0887
0000683328;6.7421;3.0358;-0.3663;-0.0806;0.7057;-0.0875
0000683339;7.0246;3.2034;-0.4094;-0.0705;0.7705;-0.0726
0000683347;7.0150;3.1651;-0.4717;-0.0593;0.8134;-0.0610
0000683355;7.0749;3.3112;-0.4908;-0.0532;0.8520;-0.0576
0000683367;6.8067;3.0981;-0.5243;-0.0428;0.9077;-0.0501
0000683375;6.5314;3.1149;-0.5076;-0.0444;0.9298;-0.0436
