time;acc_x;acc_y;acc_z;gyro_x;gyro_y;gyro_z
0000603705;8.8322;2.7342;-0.2011;0.2987;-0.0617;0.0586
0000603713;8.5808;3.0478;-0.2825;0.2986;-0.0393;0.0526
0000603720;8.3725;3.1484;-0.4022;0.2743;-0.0238;0.0458
0000603728;8.2456;3.1819;-0.4357;0.2473;-0.0143;0.0352
0000603737;8.3629;3.1029;-0.2394;0.2058;-0.0144;0.0229
0000603745;8.4300;3.0119;-0.1341;0.1669;-0.0083;0.0116
0000603753;8.5186;2.8084;-0.0215;0.1498;-0.0003;-0.0069
0000603765;8.6359;2.5115;0.1053;0.1607;0.0000;-0.0508
0000603773;8.8442;2.5163;0.1915;0.1892;0.0063;-0.0799
0000603840;7.7979;3.4884;0.1053;0.2966;-0.0129;-0.2879
0000603848;7.8338;3.7541;0.0694;0.2892;-0.0258;-0.2651
0000603860;7.8075;4.0127;0.5243;0.2547;-0.0464;-0.2104
0000603868;7.8219;4.5059;0.7446;0.2169;-0.0549;-0.1616
0000603879;7.3310;5.1020;1.4174;0.1359;-0.0661;-0.0709
0000603887;6.8187;5.4109;1.1923;0.0509;-0.0935;0.0012
0000603895;6.1387;5.5881;0.8188;-0.0366;-0.1220;0.0730
0000603907;5.3415;5.3774;0.9601;-0.1236;-0.2160;0.1879
0000603915;5.2720;4.7812;0.9194;-0.1495;-0.3210;0.2222
0000603926;6.1052;3.7086;0.6105;-0.1751;-0.4225;0.2184
0000603934;7.0054;2.6001;0.5722;-0.1573;-0.4808;0.1751
0000603946;8.6550;1.4748;0.9625;-0.0498;-0.5179;0.1171
0000603954;9.6726;0.7973;0.9074;0.0685;-0.5068;0.0789
0000603962;10.5752;0.3352;0.8547;0.1799;-0.4525;0.0530
0000603973;11.3198;0.2801;0.7638;0.2852;-0.3204;-0.0004
0000603981;11.6622;0.5028;0.3998;0.3268;-0.1927;-0.0392
0000603993;11.6430;0.8763;-0.0599;0.3337;0.0318;-0.0850
0000604001;11.2192;1.1827;0.0527;0.3292;0.1751;-0.1316
0000604012;10.1778;2.2960;0.1628;0.3200;0.3797;-0.1872
0000604020;9.1937;2.7940;0.0646;0.3317;0.4959;-0.2162
0000604032;8.0110;4.0318;-0.0862;0.3203;0.6281;-0.2205
0000604040;7.3454;4.7525;-0.1413;0.2915;0.6857;-0.1919
0000604048;6.8570;5.0446;-0.1987;0.2445;0.7153;-0.1411
0000604115;7.6351;1.4892;0.4142;0.3139;0.5586;0.0500
0000604123;7.7333;1.7813;0.2418;0.3769;0.5272;0.0321
0000604135;7.6806;2.5809;-0.2729;0.3917;0.4908;-0.0165
0000604143;7.2377;3.0382;-0.5243;0.3543;0.4711;-0.0454
0000604154;6.9791;3.9265;-0.7901;0.2839;0.4214;-0.0882
0000604162;6.5314;4.0534;-0.8763;0.2226;0.3841;-0.1038
0000604170;6.4045;4.3311;-0.9290;0.1676;0.3396;-0.1123
0000604182;6.0765;4.1180;-0.7183;0.0999;0.2550;-0.1178
0000604190;6.3901;3.9816;-0.5626;0.0689;0.1924;-0.1148
0000604201;6.4404;3.6775;-0.3496;0.0618;0.1164;-0.1077
0000604209;6.7373;3.4620;-0.2274;0.0767;0.0658;-0.1022
0000604221;7.2113;3.1771;-0.1101;0.1063;0.0249;-0.1001
0000604229;7.5441;3.1580;-0.2586;0.1144;0.0173;-0.0910
0000604240;7.5705;3.0742;-0.1437;0.1025;0.0313;-0.0819
0000604248;7.7716;3.2322;-0.1437;0.0962;0.0438;-0.0841
0000604256;7.6064;3.2561;-0.0982;0.0721;0.0715;-0.0785
0000604268;7.5872;3.3064;-0.1197;0.0512;0.0967;-0.0830
0000604276;7.5369;3.4261;-0.1939;0.0350;0.1226;-0.0750
0000604287;7.7668;3.3686;-0.1532;0.0277;0.1316;-0.0763
0000604295;7.5992;3.3686;-0.2035;0.0188;0.1391;-0.0706
0000604307;7.5202;3.1771;-0.1724;0.0152;0.1310;-0.0616
0000604315;7.4077;3.1556;-0.1413;0.0193;0.1228;-0.0662
0000604323;7.4579;3.3184;-0.0575;0.0222;0.1130;-0.0528
0000604390;6.8354;3.3902;-0.1580;-0.1299;-0.0099;-0.0133
0000604398;6.7014;3.1651;-0.1293;-0.1230;-0.0384;-0.0196
0000604410;6.9240;3.0023;-0.2346;-0.1095;-0.0620;-0.0278
0000604418;7.0820;2.9329;-0.1748;-0.0926;-0.0793;-0.0285
0000604429;7.1228;3.1196;-0.2969;-0.0821;-0.1003;-0.0425
0000604437;7.0270;2.9449;-0.4166;-0.0813;-0.1099;-0.0464
0000604449;6.8690;3.1747;-0.5531;-0.0862;-0.1276;-0.0490
0000604457;6.8809;3.2896;-0.3735;-0.0898;-0.1388;-0.0520
0000604468;6.9695;3.5291;-0.4932;-0.0914;-0.1478;-0.0474
0000604476;6.8809;3.4141;-0.5267;-0.0866;-0.1495;-0.0500
0000604484;6.8642;3.2441;-0.4381;-0.0797;-0.1608;-0.0446
0000604496;7.0390;3.0861;-0.3472;-0.0677;-0.1589;-0.0228
0000604504;7.1658;2.9185;-0.2969;-0.0520;-0.1659;-0.0117
0000604515;7.2113;2.9353;-0.4166;-0.0237;-0.1661;0.0027
0000604523;7.1443;2.8252;-0.4046;-0.0157;-0.1657;0.0119
0000604535;7.2018;2.7845;-0.5698;-0.0085;-0.1604;0.0180
0000604543;7.2903;2.9568;-0.6009;-0.0108;-0.1679;0.0137
0000604554;7.1563;3.0550;-0.6800;-0.0187;-0.1675;0.0274
0000604562;7.1395;3.0861;-0.6393;-0.0232;-0.1811;0.0357
0000604570;7.0773;3.1891;-0.5459;-0.0344;-0.1827;0.0552
0000604582;7.0174;3.3208;-0.4453;-0.0452;-0.1880;0.0923
0000604590;7.2544;3.4764;-0.4980;-0.0409;-0.2073;0.1140
0000604657;7.8243;3.4620;-0.2586;-0.0921;-0.0882;0.1250
0000604665;7.7764;3.1819;-0.3112;-0.1059;-0.0786;0.1263
0000604677;7.8626;3.0263;-0.2083;-0.0959;-0.0625;0.1336
0000604685;7.5705;2.8922;-0.1317;-0.0879;-0.0538;0.1383
0000604696;7.4986;3.0933;-0.3472;-0.0931;-0.0368;0.1736
0000604704;7.2281;3.0909;-0.3496;-0.0986;-0.0286;0.2054
0000604712;7.0078;3.0406;-0.3280;-0.0935;-0.0353;0.2274
0000604724;6.9647;3.2609;-0.3591;-0.0953;-0.0486;0.2533
0000604732;6.9145;3.3734;-0.3519;-0.1095;-0.0755;0.2661
0000604743;7.1467;3.6152;-0.3903;-0.1180;-0.1292;0.2611
0000604751;7.2065;3.6009;-0.3711;-0.1119;-0.1687;0.2471
0000604763;7.4771;3.5410;-0.3687;-0.1067;-0.2033;0.2410
0000604771;7.9942;3.4022;-0.2969;-0.1139;-0.2145;0.2422
0000604782;7.9799;3.0957;-0.2370;-0.1104;-0.2110;0.2278
0000604790;8.5114;3.1268;-0.1939;-0.1090;-0.1968;0.2153
0000604798;8.6431;2.9808;-0.0646;-0.0942;-0.1783;0.1860
0000604810;8.6886;2.6025;-0.0359;-0.0797;-0.1212;0.1492
0000604818;8.5760;2.5259;-0.0263;-0.0687;-0.0909;0.1255
0000604829;8.4348;2.3343;-0.0215;-0.0514;-0.0384;0.1087
0000604837;8.2839;2.3655;0.0263;-0.0365;0.0016;0.1134
0000604849;8.0709;2.3032;0.0431;0.0028;0.0500;0.1428
0000604857;7.9751;2.2075;0.1006;0.0432;0.0701;0.1627
0000604924;8.5976;3.0167;0.0263;0.1848;0.1741;0.1043
0000604932;8.8538;3.1723;0.1556;0.1581;0.1835;0.1009
0000604940;8.6024;2.9018;0.2274;0.1368;0.1900;0.1002
0000604952;8.7388;2.9066;0.3591;0.1371;0.1974;0.0775
0000604960;8.7149;3.0191;0.3831;0.1354;0.1978;0.0621
0000604971;8.7149;3.0574;0.3831;0.1183;0.2098;0.0388
0000604979;8.5641;3.0526;0.2442;0.1114;0.2148;0.0201
0000604987;8.4587;3.0837;0.2993;0.1112;0.2261;0.0131
0000604999;8.3965;3.4141;0.2610;0.1190;0.2470;0.0294
0000605007;8.4755;3.6799;0.2801;0.1327;0.2607;0.0564
0000605018;8.6167;3.9385;0.0862;0.1611;0.2746;0.1023
0000605026;8.6766;3.9528;-0.0215;0.1751;0.2858;0.1254
0000605038;8.9639;3.9049;-0.0335;0.1837;0.3096;0.1567
0000605046;9.0501;3.6248;-0.1652;0.1892;0.3175;0.1624
0000605054;9.3948;3.4716;-0.1125;0.1948;0.3365;0.1763
0000605065;9.7133;3.1867;-0.1365;0.2178;0.3728;0.1793
0000605073;9.9623;2.9856;-0.1891;0.2402;0.3961;0.1868
0000605085;9.9503;2.8874;-0.1724;0.2755;0.4210;0.1784
0000605093;9.8258;2.7294;-0.3496;0.2682;0.4405;0.1776
0000605105;9.7779;2.9185;-0.4860;0.2294;0.4529;0.1557
0000605113;9.9359;2.9521;-0.6153;0.1956;0.4600;0.1383
0000605121;10.0604;3.1029;-0.7183;0.1460;0.4736;0.1310
0000605133;9.8450;2.9784;-0.9457;0.0655;0.5020;0.1107
0000605141;9.9072;3.1460;-1.0654;0.0125;0.5360;0.0905
0000605209;8.9830;3.5506;-0.6393;-0.1120;0.7246;0.1994
0000605217;8.7939;3.5650;-0.5578;-0.1108;0.7051;0.2176
0000605228;8.4779;3.6368;-0.6321;-0.1219;0.6712;0.2158
0000605236;8.4108;3.4692;-0.5411;-0.1262;0.6319;0.2034
0000605244;8.3390;3.3878;-0.6057;-0.1399;0.5923;0.1973
0000605256;8.4443;3.1915;-0.5243;-0.1492;0.5332;0.1547
0000605264;8.6431;3.2202;-0.6416;-0.1525;0.5028;0.1324
0000605275;8.6431;3.1388;-0.6249;-0.1687;0.4672;0.1022
0000605283;8.6862;3.1556;-0.6656;-0.1815;0.4497;0.0818
0000605295;8.8442;3.0861;-0.5674;-0.2190;0.4195;0.0601
0000605303;8.9088;3.1029;-0.5148;-0.2555;0.4166;0.0534
0000605314;8.8633;2.6791;-0.5435;-0.2874;0.4143;0.0541
0000605322;9.0261;2.3655;-0.4334;-0.2907;0.4193;0.0558
0000605330;8.9759;2.1835;-0.3926;-0.2681;0.4135;0.0482
0000605342;8.6335;2.1284;-0.5459;-0.1985;0.4142;0.0556
0000605350;8.5162;2.2146;-0.5698;-0.1475;0.4053;0.0596
0000605361;8.4013;2.4900;-0.9960;-0.1003;0.3679;0.0480
0000605369;8.1762;2.6073;-1.0463;-0.1114;0.3412;0.0424
0000605381;8.2600;2.9113;-1.2019;-0.1676;0.2914;0.0246
0000605389;8.3773;3.1747;-1.0032;-0.2145;0.2586;0.0076
0000605397;8.7221;3.1795;-0.9218;-0.2683;0.2386;-0.0108
0000605409;8.8298;2.8395;-0.6776;-0.3293;0.2117;-0.0441
0000605417;8.7963;2.6791;-0.5483;-0.3320;0.1895;-0.0622
0000605485;9.1650;3.0287;-0.7853;-0.1555;0.0473;-0.2014
0000605493;9.4068;2.9113;-0.6823;-0.1723;0.0678;-0.2086
0000605504;9.3781;2.7485;-0.6728;-0.1789;0.0842;-0.2076
0000605512;9.2823;2.5211;-0.4860;-0.1687;0.1077;-0.1939
0000605524;9.1578;2.6001;-0.4357;-0.1283;0.1380;-0.1887
0000605532;9.3781;2.8539;-0.3855;-0.1082;0.1648;-0.1888
0000605543;9.0166;2.7581;-0.3376;-0.1104;0.2118;-0.1847
0000605551;9.3398;3.0119;-0.4190;-0.1174;0.2439;-0.1916
0000605559;9.3182;2.8922;-0.5195;-0.1132;0.2749;-0.1957
0000605571;9.3901;2.7318;-0.4860;-0.0779;0.3188;-0.2010
0000605579;9.4595;2.6073;-0.4022;-0.0384;0.3395;-0.2077
0000605590;9.5002;2.7054;-0.2825;0.0075;0.3854;-0.2280
0000605598;9.5074;2.7414;-0.0814;0.0353;0.4182;-0.2537
0000605610;9.3972;3.1436;0.1604;0.0536;0.4696;-0.2875
0000605618;9.2919;3.5817;0.3376;0.0576;0.5004;-0.3040
0000605626;8.9711;3.6775;0.1149;0.0528;0.5376;-0.2987
0000605637;7.9152;4.3335;-0.2921;0.0384;0.5664;-0.2750
0000605645;7.0437;4.8028;0.6608;0.0240;0.5682;-0.2228
0000605657;5.7868;6.6319;1.9010;-0.0107;0.5207;-0.0921
0000605665;5.3510;8.2049;1.3479;-0.0458;0.4748;0.0365
0000605677;4.6735;9.4332;0.8954;-0.2176;0.3940;0.2272
0000605685;5.0685;9.4236;0.8595;-0.3291;0.2763;0.3148
0000605693;6.7325;8.3222;0.5243;-0.4072;0.1372;0.3325
0000605761;8.6000;1.2713;1.0606;0.2229;0.3866;-0.4379
0000605769;7.5824;1.4964;0.9266;0.2308;0.4056;-0.4163
0000605780;6.3686;1.7645;1.0175;0.2010;0.4046;-0.3608
0000605788;5.7365;1.9704;1.2378;0.1559;0.3945;-0.3042
0000605800;5.0111;2.0901;1.4964;0.1200;0.3341;-0.2220
0000605808;4.9153;2.6097;1.4629;0.0894;0.2723;-0.1633
0000605816;5.3103;2.9760;1.4605;0.0612;0.1889;-0.1059
0000605827;5.5450;2.7773;1.6783;-0.0183;0.0798;-0.0470
0000605835;6.3853;2.7031;1.6328;-0.0666;0.0067;-0.0205
0000605847;7.1156;1.8962;1.7909;-0.1386;-0.0827;-0.0076
0000605855;7.8578;1.7837;2.1428;-0.1536;-0.1187;-0.0071
0000605866;7.9727;1.3192;2.3822;-0.1262;-0.1768;-0.0352
0000605874;8.0086;1.3431;2.4780;-0.0863;-0.2073;-0.0461
0000605886;7.9679;1.6257;2.4253;-0.0177;-0.2730;-0.0723
0000605894;7.9080;1.9896;2.4157;0.0188;-0.3072;-0.0935
0000605902;7.6375;2.2529;2.2458;0.0557;-0.3412;-0.1263
0000605913;7.6375;2.8683;2.0542;0.0937;-0.3785;-0.1725
0000605921;7.4460;2.9209;1.9920;0.1155;-0.4116;-0.2072
0000605933;7.6351;3.1699;1.9034;0.1565;-0.4563;-0.2350
0000605941;7.7955;2.9904;1.8364;0.1737;-0.4674;-0.2310
0000605953;8.0685;2.8108;1.7597;0.2252;-0.4806;-0.2317
0000605961;8.1283;2.6887;1.7478;0.2547;-0.4770;-0.2166
0000606029;8.5688;2.8060;0.9361;0.2256;-0.3449;-0.0337
0000606037;8.4060;2.7869;0.8236;0.2097;-0.3461;-0.0482
0000606045;8.0278;2.6911;0.8164;0.1891;-0.3629;-0.0719
0000606056;7.9679;2.7821;0.7590;0.1525;-0.3834;-0.1041
0000606064;7.7644;2.7174;0.8882;0.1338;-0.4036;-0.1268
0000606076;7.8003;2.8371;0.8619;0.1123;-0.4402;-0.1418
0000606084;7.8530;2.7940;0.8859;0.1079;-0.4664;-0.1294
0000606095;7.6830;2.6719;0.6704;0.0990;-0.5057;-0.1070
0000606103;7.6399;2.5259;0.6009;0.1027;-0.5355;-0.0770
0000606111;7.7907;2.7605;0.5578;0.1005;-0.5688;-0.0544
0000606123;7.3502;2.6240;0.5866;0.1067;-0.6066;-0.0329
0000606131;7.4053;2.8898;0.5411;0.1070;-0.6233;-0.0289
0000606142;7.3191;3.1580;0.5650;0.0902;-0.6376;-0.0402
0000606150;7.5010;3.3399;0.5770;0.0799;-0.6456;-0.0589
0000606162;7.7740;3.3160;0.4310;0.0570;-0.6428;-0.0845
0000606170;8.1379;3.3423;0.3974;0.0473;-0.6396;-0.1094
0000606181;8.3007;3.0358;0.3424;0.0416;-0.6181;-0.1275
0000606189;8.1714;2.8443;0.2945;0.0436;-0.5994;-0.1388
0000606197;8.3175;2.8539;0.0646;0.0444;-0.5957;-0.1487
0000606209;8.0924;3.1508;-0.1460;0.0262;-0.5797;-0.1580
0000606217;7.6399;3.0550;-0.2801;0.0051;-0.5738;-0.1605
0000606229;7.4699;3.3734;-0.3112;-0.0304;-0.5589;-0.1537
0000606237;7.0844;3.4237;-0.4357;-0.0500;-0.5685;-0.1527
0000606305;6.3398;2.5881;-0.3807;-0.0065;-0.6841;-0.1852
0000606313;6.5745;2.6839;-0.4621;-0.0071;-0.6911;-0.1669
0000606324;6.6631;2.7821;-0.4118;0.0119;-0.7071;-0.1474
0000606332;6.7086;2.8898;-0.3591;0.0152;-0.6993;-0.1248
0000606340;7.1491;3.0933;-0.4094;0.0220;-0.7019;-0.1062
0000606352;7.5609;3.4069;-0.5411;0.0201;-0.6574;-0.0801
0000606360;8.0517;3.4285;-0.6800;0.0155;-0.6234;-0.0733
0000606371;8.1163;3.3351;-0.7135;-0.0137;-0.5465;-0.0637
0000606379;8.1882;3.1460;-0.7398;-0.0434;-0.4902;-0.0665
0000606391;8.2504;3.0861;-0.6081;-0.0745;-0.4128;-0.0592
0000606399;8.1930;3.0167;-0.6009;-0.1025;-0.3597;-0.0413
0000606410;7.8578;3.0167;-0.7494;-0.1370;-0.3044;-0.0017
0000606418;7.5561;3.0526;-0.7638;-0.1580;-0.3024;0.0220
0000606426;7.3119;2.8922;-1.0702;-0.1647;-0.3004;0.0569
0000606438;6.9552;2.8874;-1.1253;-0.1556;-0.3212;0.0946
0000606446;6.9576;2.9664;-1.2857;-0.1350;-0.3387;0.1027
0000606457;6.8307;3.0191;-1.3312;-0.1029;-0.3537;0.1100
0000606465;6.6631;3.0670;-1.3527;-0.0809;-0.3655;0.1124
0000606477;6.5769;3.1963;-1.3910;-0.0813;-0.3651;0.1122
0000606485;6.4236;3.2010;-1.3120;-0.0826;-0.3653;0.1098
0000606497;6.3375;3.1651;-1.3647;-0.1017;-0.3612;0.1202
0000606505;6.2704;3.1053;-1.4222;-0.1096;-0.3655;0.1388
0000606513;6.0501;3.1388;-1.7119;-0.1132;-0.3889;0.1725
0000606580;10.7452;5.6551;1.6879;0.0524;-0.2417;-0.1151
0000606588;9.8282;5.5330;1.7502;0.1275;-0.1432;-0.1835
0000606600;8.4851;5.5857;1.1875;0.1884;-0.0059;-0.2206
0000606608;7.5226;5.1427;0.2179;0.1731;0.0566;-0.1799
0000606619;6.3351;4.2282;0.3136;0.1491;0.0863;-0.0755
0000606627;5.6407;3.8595;0.5794;0.1787;0.0549;0.0181
0000606639;5.3151;3.7828;0.8930;0.2178;-0.0701;0.1491
0000606647;5.6431;3.7565;1.0582;0.2152;-0.1908;0.2192
0000606655;6.3470;3.8499;1.0558;0.2009;-0.3194;0.2658
0000606666;7.2736;3.5362;1.2306;0.1450;-0.4876;0.3022
0000606674;7.8721;3.1915;1.1851;0.1070;-0.5949;0.2979
0000606686;8.7197;2.5690;1.3719;0.0931;-0.7099;0.2317
0000606694;8.9687;2.1548;1.5826;0.1122;-0.7552;0.1458
0000606705;9.5122;1.8483;1.7286;0.1713;-0.7699;0.0108
0000606713;9.7851;1.8148;1.6712;0.2140;-0.7545;-0.0730
0000606721;9.9024;2.1883;1.5514;0.2575;-0.7316;-0.1410
0000606733;10.1227;2.4253;1.0032;0.2671;-0.6574;-0.1857
0000606741;9.9264;2.4900;0.7590;0.2482;-0.5840;-0.1788
0000606752;9.6055;2.4612;0.5986;0.2220;-0.4670;-0.1128
0000606760;9.2847;2.4900;0.5171;0.2041;-0.3812;-0.0454
0000606772;9.2608;2.5857;0.6129;0.2172;-0.2771;0.0678
0000606780;9.0261;2.5283;0.5794;0.2289;-0.2268;0.1263
0000606788;8.7556;2.5115;0.5267;0.2380;-0.1853;0.1588
0000606852;8.9615;2.6456;0.3160;0.1322;-0.0196;0.1183
0000606860;8.8083;2.9401;0.2514;0.1271;-0.0064;0.1017
0000606872;8.3534;3.2082;0.1101;0.1160;-0.0104;0.0705
0000606880;8.0732;3.1843;-0.0814;0.1107;-0.0376;0.0516
0000606891;7.9655;3.1651;-0.2634;0.0657;-0.0726;0.0377
0000606899;7.8123;2.9712;-0.1915;0.0346;-0.1061;0.0304
0000606907;7.9607;2.7749;-0.3256;0.0005;-0.1392;0.0168
0000606919;8.2456;2.8730;-0.2562;-0.0366;-0.1599;-0.0004
0000606927;8.0685;2.7749;-0.3041;-0.0557;-0.1655;-0.0120
0000606938;8.4396;3.1603;-0.2849;-0.0737;-0.1557;-0.0167
0000606946;8.4372;3.1556;-0.4070;-0.0947;-0.1395;-0.0148
0000606958;8.7293;3.4692;-0.5411;-0.1311;-0.1070;-0.0232
0000606966;8.4970;3.2298;-0.3879;-0.1498;-0.0901;-0.0277
0000606977;8.6287;3.2585;-0.5483;-0.1617;-0.0655;-0.0296
0000606985;8.5162;3.2777;-0.7087;-0.1736;-0.0573;-0.0217
0000606997;8.8801;3.1747;-1.0056;-0.1947;-0.0522;0.0005
0000607005;8.9304;2.8826;-0.8140;-0.2105;-0.0510;0.0220
0000607013;9.2680;2.9425;-0.8404;-0.2361;-0.0396;0.0490
0000607024;9.0190;3.1077;-0.7997;-0.2669;-0.0444;0.0759
0000607032;8.8705;3.0047;-0.7374;-0.2831;-0.0466;0.0857
0000607044;8.8753;2.9185;-0.7757;-0.2867;-0.0574;0.0673
0000607052;8.7077;2.5091;-0.8811;-0.2790;-0.0733;0.0489
0000607119;9.4954;2.9305;-0.9361;-0.1741;-0.0986;-0.1775
0000607127;9.6941;3.1149;-0.9098;-0.1913;-0.0616;-0.1990
0000607139;9.5864;2.9999;-0.9744;-0.2162;0.0016;-0.2068
0000607147;9.5265;2.8946;-0.8571;-0.2296;0.0525;-0.2020
0000607155;9.3039;2.8395;-0.7039;-0.2205;0.0889;-0.1920
0000607166;8.8442;2.5953;-0.6393;-0.2029;0.1372;-0.1499
0000607174;8.7795;2.6097;-0.6177;-0.1973;0.1685;-0.1038
0000607186;8.6263;2.5738;-0.5171;-0.1696;0.1978;-0.0508
0000607194;8.5712;2.4924;-0.6153;-0.1535;0.2198;-0.0088
0000607205;8.5258;2.4205;-0.4453;-0.1339;0.2443;0.0353
0000607213;8.6981;2.6408;-0.4597;-0.1352;0.2643;0.0613
0000607225;8.8897;2.7988;-0.6273;-0.1392;0.2838;0.0767
0000607233;8.8155;2.8132;-0.6057;-0.1580;0.3015;0.0911
0000607241;8.8801;2.8036;-0.7901;-0.1681;0.3015;0.0794
0000607252;9.0190;2.8323;-1.0223;-0.1655;0.3236;0.0608
0000607260;9.1961;3.0502;-1.0606;-0.1669;0.3347;0.0473
0000607272;9.0932;3.0670;-1.3192;-0.1661;0.3592;0.0156
0000607280;9.3254;3.1723;-1.5107;-0.1749;0.3608;-0.0173
0000607291;9.4715;3.2968;-1.8268;-0.1947;0.3714;-0.0622
0000607299;9.5122;3.2465;-2.0135;-0.2122;0.3860;-0.0963
0000607311;9.5936;3.1675;-1.8747;-0.2250;0.4081;-0.1525
0000607319;9.5600;3.0358;-1.6496;-0.2233;0.4369;-0.1728
0000607327;9.5553;2.7797;-1.5299;-0.2026;0.4783;-0.2028
0000607394;5.2146;8.8298;2.4493;-0.1500;0.3647;0.3892
0000607402;5.7197;9.4164;2.2266;-0.2896;0.2108;0.4596
0000607414;6.8929;8.3773;1.6352;-0.4277;0.0068;0.4980
0000607422;7.4053;6.1938;1.8028;-0.4322;-0.1295;0.4433
0000607433;8.7987;3.2465;1.9656;-0.3485;-0.2610;0.2876
0000607441;9.5648;1.3743;2.0925;-0.1893;-0.3230;0.1284
0000607449;9.9240;-0.0431;2.2051;0.0039;-0.3309;-0.0111
0000607461;10.5704;-0.6991;1.9944;0.3140;-0.2747;-0.1757
0000607469;10.7093;-0.2059;1.5802;0.4612;-0.1792;-0.2366
0000607480;10.0772;0.8595;0.9481;0.5694;-0.0352;-0.2669
0000607488;9.3685;1.8124;0.4334;0.5317;0.0755;-0.2321
0000607500;8.1163;2.7916;0.2873;0.3683;0.1848;-0.1559
0000607508;7.5489;3.3878;0.4956;0.2136;0.2234;-0.0894
0000607519;6.5122;3.8379;1.0391;0.0802;0.2009;-0.0025
0000607527;5.8897;4.1204;1.3072;0.0545;0.1388;0.0457
0000607535;5.5809;4.5418;1.2833;0.0413;0.0715;0.0731
0000607547;5.5067;4.6759;1.1444;0.0404;-0.0517;0.0701
0000607555;5.7293;4.2258;1.1732;0.0408;-0.1354;0.0165
0000607566;5.9927;3.6799;1.3168;0.0654;-0.2353;-0.0693
0000607574;6.3375;3.2992;1.3288;0.1022;-0.3244;-0.1255
0000607586;6.7157;2.6025;1.4078;0.1863;-0.4475;-0.1933
0000607594;7.1012;2.1261;1.2186;0.2478;-0.5137;-0.2210
0000607602;7.4220;1.8890;1.1564;0.3123;-0.5614;-0.2563
0000607669;8.2049;2.6217;0.2825;0.1612;-0.4667;-0.1627
0000607677;8.2313;2.7438;0.3136;0.1151;-0.4429;-0.1240
0000607689;8.1068;2.7940;0.3879;0.0358;-0.4041;-0.0766
0000607697;7.9607;2.9904;0.3567;-0.0091;-0.4001;-0.0553
0000607708;7.6758;2.6384;0.3831;-0.0634;-0.3913;-0.0386
0000607716;7.5130;2.5498;0.2083;-0.0914;-0.4034;-0.0433
0000607728;7.7117;2.4565;0.1748;-0.1082;-0.4366;-0.0613
0000607736;7.6662;2.3343;0.2274;-0.0943;-0.4603;-0.0809
0000607744;7.9176;2.4014;0.3065;-0.0777;-0.4918;-0.1170
0000607755;8.0038;2.3966;0.2418;-0.0320;-0.5073;-0.1583
0000607763;8.4300;2.5833;0.2658;0.0181;-0.5201;-0.1928
0000607775;9.0405;2.8395;0.2179;0.0707;-0.5085;-0.2118
0000607783;8.9423;3.0167;0.1101;0.0749;-0.4808;-0.1981
0000607794;9.0261;3.4860;-0.1293;0.0546;-0.4374;-0.1717
0000607802;8.7460;3.4237;-0.1197;0.0141;-0.3970;-0.1312
0000607814;7.9703;3.2777;-0.1389;-0.0230;-0.3368;-0.0590
0000607822;7.5609;3.0382;-0.0287;-0.0261;-0.3122;-0.0257
0000607830;7.6543;3.2417;-0.1221;-0.0282;-0.2879;0.0155
0000607842;7.5154;3.0478;0.0024;-0.0493;-0.2513;0.0490
0000607850;7.7261;3.3639;-0.1389;-0.0750;-0.2356;0.0628
0000607917;7.1826;2.6456;-0.0383;-0.1552;-0.2249;0.0775
0000607925;7.2137;2.5307;0.0527;-0.1267;-0.2414;0.0670
0000607937;7.0677;2.5283;-0.0192;-0.1082;-0.2641;0.0462
0000607945;7.0461;2.5355;-0.0862;-0.0966;-0.2838;0.0272
0000607957;7.3358;2.6767;-0.1437;-0.0937;-0.2831;-0.0036
0000607965;7.2808;2.6576;-0.1963;-0.0945;-0.2702;-0.0168
0000607973;7.4795;2.6288;-0.2083;-0.0893;-0.2471;-0.0232
0000607985;7.5082;2.6671;-0.1772;-0.0679;-0.2093;-0.0027
0000607993;7.3741;2.9018;-0.3017;-0.0530;-0.1815;0.0385
0000608005;7.4939;3.2825;-0.4166;-0.0592;-0.1271;0.0931
0000608013;7.1036;3.2154;-0.5818;-0.0806;-0.1022;0.1199
0000608025;7.3885;3.4285;-0.6033;-0.1198;-0.0613;0.1633
0000608033;7.7045;3.6488;-0.7398;-0.1226;-0.0492;0.1787
0000608045;7.6471;3.7781;-0.9912;-0.1198;-0.0310;0.1864
0000608053;7.6950;3.8211;-1.2163;-0.1094;-0.0358;0.1687
0000608061;7.6088;3.8642;-1.2689;-0.1001;-0.0350;0.1394
0000608073;7.2951;3.7781;-1.5634;-0.0945;-0.0380;0.0766
0000608081;7.0964;3.4333;-1.8555;-0.1037;-0.0454;0.0410
0000608092;7.1754;3.3375;-1.9824;-0.1207;-0.0520;0.0270
0000608100;7.0222;3.1460;-2.0039;-0.1408;-0.0561;0.0446
0000608112;6.7971;3.1939;-2.1644;-0.1584;-0.0971;0.0973
0000608120;6.2058;3.0167;-2.0423;-0.1636;-0.1310;0.1419
0000608187;9.7947;4.1875;1.3767;0.2270;-0.1703;-0.0428
0000608195;9.5936;4.1492;1.5347;0.3479;-0.1585;-0.0694
0000608203;8.7364;4.4029;1.3408;0.4281;-0.1132;-0.0833
0000608215;7.6950;4.5107;0.7709;0.4389;-0.0368;-0.0662
0000608223;7.1371;4.4005;0.7326;0.3993;-0.0226;-0.0290
0000608235;6.6870;4.3000;1.0846;0.3483;-0.0552;0.0405
0000608243;6.1890;4.2497;1.1492;0.3071;-0.1042;0.0766
0000608255;5.6479;3.7876;1.3144;0.2497;-0.2442;0.1140
0000608263;5.5162;3.2322;1.3024;0.2089;-0.3549;0.1288
0000608271;5.9568;2.7988;1.3934;0.1759;-0.4890;0.1288
0000608283;6.7708;2.2003;1.5706;0.1391;-0.6911;0.1156
0000608291;7.2568;1.9752;1.5969;0.1502;-0.8215;0.0805
0000608303;7.9583;1.6520;1.5155;0.1677;-0.9675;0.0181
0000608311;8.7747;2.0087;1.6137;0.1868;-1.0456;-0.0448
0000608323;9.6630;2.5426;1.6089;0.2057;-1.0828;-0.1378
0000608331;10.2137;3.0933;1.7358;0.2213;-1.0680;-0.2026
0000608343;10.7164;3.9863;1.1708;0.2376;-0.9586;-0.2883
0000608351;10.5082;3.9983;0.7901;0.2392;-0.8491;-0.3028
0000608359;10.6422;4.1468;0.4214;0.2274;-0.7432;-0.2910
0000608371;10.3789;3.8451;0.3974;0.1996;-0.5550;-0.1693
0000608379;10.0844;3.6871;0.4741;0.1955;-0.4299;-0.0714
0000608391;10.0485;3.2561;0.4669;0.1863;-0.2474;0.0665
0000608399;10.0796;3.2322;0.2849;0.1676;-0.1456;0.1324
0000608466;8.1475;2.9233;0.5363;0.0841;0.1098;0.1769
0000608474;7.6902;3.4381;0.4860;0.1078;0.0809;0.1414
0000608482;7.4627;3.4907;0.2514;0.1275;0.0273;0.1002
0000608494;7.0102;3.3878;-0.7087;0.1009;-0.1018;0.0528
0000608502;7.3789;3.1556;-1.0199;0.0441;-0.1904;0.0266
0000608514;8.0421;2.4708;-1.0247;-0.0478;-0.2762;-0.0201
0000608522;8.6790;2.1787;-0.8236;-0.0882;-0.3088;-0.0456
0000608534;8.9088;2.0159;-0.6847;-0.1567;-0.3046;-0.0681
0000608542;8.8897;1.8531;-0.3687;-0.1871;-0.2978;-0.0714
0000608554;8.7915;2.1883;-0.1556;-0.2156;-0.2727;-0.0797
0000608562;8.7891;2.1979;-0.2634;-0.2261;-0.2457;-0.0794
0000608570;8.7077;2.3535;-0.5315;-0.2284;-0.2336;-0.0802
0000608582;8.7125;2.8323;-0.7494;-0.2245;-0.2081;-0.0552
0000608590;8.6814;3.0813;-0.7207;-0.2061;-0.1887;-0.0386
0000608602;8.7700;3.8403;-1.0463;-0.1945;-0.1717;-0.0199
0000608610;8.9040;4.1587;-1.2881;-0.2184;-0.1596;-0.0068
0000608622;8.8681;4.2713;-1.3719;-0.2974;-0.1564;0.0197
0000608630;8.8298;4.1444;-1.3216;-0.3356;-0.1564;0.0398
0000608642;8.9519;3.6823;-1.3264;-0.3593;-0.1735;0.0606
0000608650;8.9854;3.2777;-1.2546;-0.3576;-0.1761;0.0677
0000608662;8.8609;2.9353;-1.3048;-0.3585;-0.1787;0.0502
0000608670;9.1722;2.7150;-1.4246;-0.3636;-0.1628;0.0370
0000608678;9.4308;2.7222;-1.4700;-0.3632;-0.1486;0.0222
0000608746;9.6989;2.2314;-0.7135;-0.2240;0.0622;-0.1803
0000608755;9.5984;2.6384;-0.6105;-0.2050;0.0885;-0.1879
0000608768;9.0405;2.6384;-1.0415;-0.2154;0.0897;-0.1851
0000608777;8.7628;2.7438;-0.9625;-0.2430;0.0841;-0.1675
0000608789;8.7221;2.6887;-0.7685;-0.2642;0.0769;-0.1195
0000608798;8.6311;2.3990;-0.5267;-0.2717;0.0867;-0.0846
0000608811;8.8418;2.1715;-0.5387;-0.2530;0.0985;-0.0484
0000608820;9.0836;2.2338;-0.5914;-0.2446;0.1242;-0.0087
0000608829;8.9854;2.0614;-0.6608;-0.1998;0.1366;0.0153
0000608842;9.1315;2.1931;-0.5962;-0.1170;0.1428;0.0394
0000608851;9.0621;2.3439;-0.9170;-0.0873;0.1512;0.0334
0000608864;9.3733;2.6145;-1.0056;-0.0939;0.1656;-0.0059
0000608873;9.4882;2.8204;-1.0630;-0.1235;0.1961;-0.0332
0000608886;9.8665;3.0311;-1.1157;-0.1500;0.2474;-0.0941
0000608895;10.0796;3.2106;-1.2929;-0.1459;0.2982;-0.1306
0000608908;9.8689;2.9018;-1.4461;-0.1243;0.3689;-0.1679
0000608917;9.8234;2.8946;-1.4629;-0.1009;0.4143;-0.1736
0000608926;9.5792;2.6073;-1.5850;-0.0655;0.4631;-0.1705
0000608939;9.1866;2.6264;-1.5036;-0.0044;0.5429;-0.1856
0000608948;8.8562;2.6264;-1.5275;0.0288;0.5782;-0.2086
0000608961;8.7771;2.6456;-1.6664;0.0636;0.6177;-0.2240
0000608970;8.8849;2.5833;-1.5251;0.1011;0.6443;-0.2446
0000609038;4.3407;7.9009;3.3974;0.3985;0.4459;0.2605
0000609047;2.7557;9.7492;2.3774;0.2910;0.2105;0.4574
0000609056;3.1388;9.6223;1.0247;0.1447;-0.1130;0.5665
0000609069;7.6638;5.8993;0.1724;-0.0510;-0.4719;0.2827
0000609078;9.8258;3.6464;1.1660;-0.0225;-0.5998;-0.0424
0000609090;10.6111;1.7430;1.0104;0.1431;-0.6073;-0.4000
0000609099;10.5105;1.4892;0.9194;0.2614;-0.5068;-0.5442
0000609112;8.6000;1.6783;0.7398;0.3700;-0.2691;-0.6049
0000609121;7.0270;1.8818;0.9433;0.4215;-0.1214;-0.5689
0000609134;5.7413;2.2601;1.0439;0.4798;-0.0119;-0.4133
0000609143;5.4277;2.8491;1.0678;0.4739;0.0116;-0.2862
0000609152;5.4109;3.3854;0.8643;0.3994;-0.0337;-0.1600
0000609165;5.6814;4.0294;0.7422;0.2188;-0.1498;-0.0023
0000609174;6.6152;4.6017;1.0247;0.0950;-0.2013;0.0135
0000609186;7.3789;5.0159;1.1253;-0.0096;-0.2911;-0.0898
0000609195;7.5489;5.0087;0.8428;-0.1246;-0.3624;-0.1905
0000609208;7.4340;4.1276;1.1684;-0.3239;-0.4454;-0.3194
0000609217;7.1323;2.7892;1.7813;-0.3790;-0.4810;-0.3632
0000609226;6.7445;1.2737;2.1237;-0.3329;-0.4867;-0.3633
0000609239;6.7732;0.1820;2.0470;-0.1211;-0.4614;-0.3443
0000609248;7.0342;-0.0239;1.8555;0.0845;-0.4379;-0.3256
0000609261;7.4651;0.8380;1.3910;0.3240;-0.3754;-0.2738
0000609270;7.6878;1.5275;0.9170;0.4032;-0.3227;-0.2166
0000609341;7.6255;4.0749;-1.1133;-0.2991;-0.0031;0.0658
0000609350;7.6854;3.5698;-0.9457;-0.3613;0.0330;0.0657
0000609363;7.4915;3.0957;-0.5507;-0.4145;0.0701;0.0286
0000609372;7.1299;2.5833;-0.3112;-0.4034;0.0642;-0.0095
0000609381;6.8738;2.4756;-0.2969;-0.3861;0.0418;-0.0310
0000609393;6.3375;2.5426;-0.1221;-0.3373;-0.0533;-0.0573
0000609402;6.0166;2.4756;-0.1149;-0.2817;-0.1362;-0.0734
0000609415;5.8275;2.4229;0.0144;-0.1998;-0.2489;-0.1041
0000609424;6.0430;2.4972;-0.2394;-0.1335;-0.3254;-0.1154
0000609436;6.5673;2.8635;-0.6249;-0.0445;-0.4121;-0.0961
0000609445;6.6319;2.8156;-0.8595;-0.0199;-0.4439;-0.0453
0000609458;7.0102;2.8036;-1.1708;-0.0353;-0.4499;0.0156
0000609467;7.1682;2.8467;-1.3695;-0.0602;-0.4135;0.0549
0000609479;7.6207;2.9233;-1.4988;-0.0847;-0.3419;0.0841
0000609488;7.6974;2.9425;-1.4653;-0.1147;-0.2956;0.0989
0000609497;7.6327;3.2154;-1.3862;-0.1621;-0.2579;0.1069
0000609510;7.3263;3.0191;-1.3934;-0.2669;-0.2237;0.1118
0000609519;7.2042;2.9473;-1.1732;-0.3230;-0.2178;0.1114
0000609531;6.8905;2.8395;-1.1732;-0.3461;-0.2401;0.1037
0000609540;6.6343;2.7773;-1.1851;-0.3424;-0.2721;0.0989
0000609609;6.5601;2.1979;-0.7278;-0.2402;-0.5504;0.0276
0000609618;6.8953;2.1739;-0.7638;-0.2166;-0.5458;0.0280
0000609630;7.4388;2.3583;-1.0319;-0.1620;-0.5367;0.0328
0000609639;7.5178;2.2362;-1.1492;-0.1199;-0.5191;0.0457
0000609648;7.6279;2.5953;-1.3120;-0.0838;-0.4824;0.0616
0000609661;7.5848;3.0263;-1.4246;-0.0891;-0.4147;0.0786
0000609670;7.6806;3.4836;-1.3862;-0.1295;-0.3627;0.0713
0000609682;7.6902;3.7421;-1.2761;-0.2106;-0.3003;0.0629
0000609691;7.5537;3.7445;-0.9960;-0.2731;-0.2586;0.0581
0000609704;7.2472;3.4524;-0.5650;-0.3395;-0.2061;0.0562
0000609713;7.2927;3.3447;-0.3304;-0.3529;-0.1853;0.0500
0000609725;6.6870;2.8276;-0.1365;-0.3032;-0.1831;0.0321
0000609734;6.6894;2.4684;-0.4118;-0.2292;-0.1984;0.0225
0000609743;6.5505;2.3990;-0.7614;-0.1178;-0.2138;0.0308
0000609756;6.4979;2.8395;-1.2402;0.0193;-0.2289;0.0577
0000609765;6.5457;3.3734;-1.4413;0.0678;-0.2238;0.0722
0000609777;6.7971;4.4556;-0.8619;0.0787;-0.2398;0.0613
0000609786;7.1874;5.1595;-0.2059;0.0466;-0.2392;0.0108
0000609799;8.8753;6.1435;0.5315;-0.0925;-0.1924;-0.1191
0000609808;9.6534;6.1603;0.6536;-0.1555;-0.1573;-0.2334
0000609820;9.5361;5.7150;0.7254;-0.2140;-0.0613;-0.3115
0000609829;8.9519;5.3223;2.1644;-0.1827;0.0184;-0.3070
0000609838;8.4922;5.0685;3.4333;-0.0719;0.0843;-0.2952
0000609907;7.8027;3.2417;1.9848;-0.0657;0.0806;0.1435
0000609916;8.8514;2.8946;2.1811;-0.0713;0.0417;0.1544
0000609928;9.8306;2.6169;2.0446;-0.0312;0.0260;0.1478
0000609937;10.3645;2.3320;1.9178;0.0115;0.0493;0.1483
0000609950;10.7093;2.3032;1.7741;0.0934;0.1236;0.1443
0000609959;10.7811;2.4565;1.6400;0.1561;0.1928;0.1460
0000609968;10.4531;2.7438;1.5299;0.2050;0.2579;0.1600
0000609980;10.0221;3.1364;0.9625;0.2060;0.3608;0.1904
0000609989;9.5624;3.1053;0.6273;0.1724;0.4319;0.2098
0000610002;8.8178;2.9329;0.5722;0.1042;0.5192;0.2533
0000610011;8.2935;2.6959;0.6656;0.0731;0.5674;0.2818
0000610023;7.9033;2.5139;0.7853;0.0637;0.5724;0.2931
0000610032;7.7764;2.3296;0.8380;0.0713;0.5590;0.2801
0000610041;7.9009;2.2051;0.8571;0.0846;0.5248;0.2442
0000610054;7.7692;1.8483;1.0606;0.1170;0.4499;0.1797
0000610063;7.9631;1.6640;1.0032;0.1416;0.3982;0.1294
0000610075;8.1570;1.6424;1.1444;0.1745;0.3415;0.0798
0000610084;7.8338;1.5706;1.0750;0.2062;0.3006;0.0426
0000610093;7.8817;1.7669;0.8859;0.2228;0.2759;0.0344
0000610106;7.9392;2.3008;0.6393;0.2510;0.2407;0.0156
0000610115;7.9368;2.6049;0.4262;0.2478;0.2105;0.0088
0000610127;7.7788;2.9185;0.1413;0.2241;0.1733;-0.0029
0000610136;7.8697;3.0981;0.0048;0.1867;0.1494;-0.0089
0000610205;8.0206;2.3128;-0.1724;0.0957;0.0989;-0.0121
0000610214;8.2025;2.4301;-0.3208;0.1216;0.0834;0.0093
0000610223;8.2001;2.4253;-0.3496;0.1344;0.0753;0.0420
0000610235;8.2145;2.5283;-0.5411;0.1408;0.0726;0.0725
0000610244;8.2576;2.5187;-0.7757;0.1318;0.0723;0.0838
0000610257;8.4204;2.6097;-0.9146;0.1164;0.0795;0.0945
0000610266;8.5569;2.6025;-1.0511;0.1112;0.0901;0.0935
0000610278;8.6311;2.5115;-1.0463;0.1354;0.0729;0.0556
0000610287;8.5473;2.4469;-1.1660;0.1456;0.0634;0.0293
0000610296;8.3749;2.4253;-1.2426;0.1484;0.0458;-0.0129
0000610309;8.7676;2.6815;-1.3838;0.1222;0.0382;-0.0582
0000610318;8.7771;2.5426;-1.3719;0.0989;0.0390;-0.0863
0000610330;8.9998;2.4995;-1.2522;0.0946;0.0404;-0.1228
0000610339;9.1985;2.5331;-1.1732;0.1087;0.0329;-0.1545
0000610352;9.3302;2.7892;-1.1325;0.1248;0.0500;-0.1789
0000610361;9.2560;3.0191;-1.1468;0.1099;0.0536;-0.1889
0000610373;9.0621;3.0047;-1.2258;0.0679;0.0703;-0.1931
0000610382;8.6574;3.1316;-1.0056;0.0257;0.0897;-0.1872
0000610391;8.6095;3.2226;-0.6656;-0.0007;0.1086;-0.1687
0000610404;8.0637;2.9449;0.0311;0.0220;0.1256;-0.0982
0000610413;7.8745;2.8754;0.0886;0.0522;0.1258;-0.0274
0000610425;8.3749;2.9568;-0.0192;0.0550;0.1464;0.0626
0000610434;8.7724;3.2417;-0.0479;0.0222;0.1973;0.1283
0000610503;10.1634;3.6512;-2.8898;0.1432;0.4648;0.1949
0000610512;10.6997;3.8666;-3.1005;0.1239;0.5259;0.1226
0000610521;10.9942;3.9002;-3.1532;0.0907;0.5889;0.0440
0000610533;11.0038;4.0127;-2.6839;0.0742;0.6765;-0.0584
0000610542;10.4579;4.2880;-1.4365;0.0846;0.7477;-0.0866
0000610555;9.0836;5.2936;-0.8619;0.1303;0.8096;-0.0413
0000610564;7.7237;5.9017;-0.9002;0.1751;0.7947;0.0353
0000610576;6.3518;6.3183;-0.3998;0.1605;0.6924;0.0353
0000610585;5.7772;6.4572;0.2490;0.1134;0.5464;-0.0402
0000610598;5.4085;7.1802;0.6752;0.0592;0.2928;-0.2140
0000610607;4.9057;7.4436;1.2809;-0.0549;0.1208;-0.3348
0000610616;4.4652;7.8051;1.7693;-0.2434;-0.0410;-0.3545
0000610628;4.3790;6.5290;1.5897;-0.4511;-0.2427;-0.2609
0000610637;5.3870;4.4748;1.4796;-0.4483;-0.4065;-0.1888
0000610650;7.6112;0.9720;2.1261;-0.2166;-0.5906;-0.1915
0000610659;8.9399;0.1101;2.1237;0.0155;-0.6198;-0.2292
0000610671;9.8976;-0.1796;1.8028;0.3014;-0.5057;-0.2747
0000610680;10.3046;0.6273;1.4676;0.4414;-0.3561;-0.2657
0000610689;10.2089;1.9225;0.9601;0.4831;-0.2057;-0.2372
0000610702;9.5313;3.7852;0.4717;0.3556;-0.0079;-0.1739
0000610711;8.8609;4.7549;0.4142;0.1788;0.0955;-0.1348
0000610723;8.0804;5.4564;0.3998;-0.0454;0.1776;-0.1111
0000610732;7.1371;5.2289;0.4956;-0.1420;0.2133;-0.1042
0000610801;6.1483;1.3575;1.0630;-0.0998;-0.2467;-0.2052
0000610810;6.2656;1.2306;0.8499;-0.0705;-0.2910;-0.1913
0000610821;6.5170;1.4365;0.8643;-0.0272;-0.3451;-0.1916
0000610830;6.2776;1.6137;0.8068;-0.0169;-0.3633;-0.1857
0000610839;6.4859;2.0423;0.8188;-0.0128;-0.3874;-0.1816
0000610853;6.5146;2.0590;0.8571;0.0113;-0.4129;-0.1591
0000610862;6.7349;2.0542;0.9290;0.0401;-0.4191;-0.1342
0000610875;6.8690;2.0016;0.9002;0.0874;-0.3996;-0.0817
0000610884;7.0390;2.2697;0.7302;0.1001;-0.3623;-0.0456
0000610896;7.2185;2.5091;0.5698;0.0949;-0.3078;-0.0059
0000610905;7.1108;2.6049;0.6033;0.0730;-0.2698;0.0129
0000610918;6.9576;2.8252;0.4741;0.0222;-0.2237;0.0360
0000610927;7.1084;3.0382;0.3974;-0.0092;-0.2150;0.0334
0000610936;6.8809;3.0358;0.4836;-0.0614;-0.2077;0.0232
0000610948;7.0318;3.0574;0.5722;-0.1147;-0.2052;0.0000
0000610957;7.2113;2.9137;0.5219;-0.1306;-0.2177;-0.0229
0000610970;6.9911;2.5235;0.4597;-0.1252;-0.2405;-0.0418
0000610979;7.2113;2.6001;0.1748;-0.1019;-0.2605;-0.0613
0000610991;6.8546;2.7725;-0.4717;-0.0973;-0.2883;-0.0655
0000611000;6.7109;3.0311;-0.4980;-0.1077;-0.2976;-0.0652
0000611069;6.9911;2.9257;-0.7733;-0.3477;-0.2328;-0.0201
0000611078;6.9384;2.4397;-0.7733;-0.3218;-0.2244;-0.0055
0000611087;7.0078;2.4181;-0.7709;-0.2790;-0.2233;0.0079
0000611099;6.7684;2.3679;-1.1827;-0.2410;-0.2270;0.0362
0000611108;6.6535;2.9090;-1.3431;-0.2467;-0.2312;0.0550
0000611121;6.1052;3.3208;-1.1420;-0.2777;-0.2701;0.0783
0000611130;6.1244;3.6416;-1.2617;-0.3119;-0.3006;0.0945
0000611142;5.8706;3.4979;-1.2570;-0.3419;-0.3701;0.0991
0000611151;5.6360;3.2729;-1.1612;-0.3520;-0.4342;0.1162
0000611164;5.9999;3.0670;-1.1349;-0.3304;-0.5387;0.1306
0000611173;6.0190;2.6240;-1.0511;-0.2781;-0.6095;0.1244
0000611182;6.2776;2.4062;-0.9864;-0.2298;-0.6543;0.1210
0000611194;6.8953;2.1261;-1.0319;-0.1423;-0.7116;0.1013
0000611203;7.1515;2.1428;-1.1109;-0.0709;-0.7318;0.0945
0000611216;7.4723;2.5905;-1.1540;-0.0165;-0.7128;0.0811
0000611225;7.4795;2.9090;-1.1564;-0.0104;-0.6690;0.0783
0000611237;7.6974;3.4405;-1.2594;-0.0608;-0.5878;0.0834
0000611246;7.8530;3.5003;-1.3072;-0.1099;-0.5112;0.0967
0000611259;8.0038;3.1867;-1.4198;-0.1547;-0.4092;0.1251
0000611268;7.9703;2.7725;-1.3719;-0.1479;-0.3428;0.1439
0000611277;8.2289;2.7461;-1.5706;-0.1081;-0.2906;0.1688
0000611289;7.8434;2.6576;-1.9249;-0.0497;-0.2442;0.2149
0000611298;7.1946;2.7438;-1.9130;-0.0416;-0.1920;0.2637
0000611367;11.9423;5.9256;0.3974;-0.2333;-0.0971;-0.2401
0000611376;10.2256;5.4181;0.1915;-0.1344;-0.0043;-0.2625
0000611388;6.9480;4.5131;0.6033;-0.0995;0.0626;-0.0879
0000611397;5.6910;3.5410;1.6161;-0.0882;0.0350;0.0424
0000611410;5.6695;3.0358;1.6185;0.0068;-0.0794;0.1836
0000611419;6.7756;3.0071;1.7980;0.0298;-0.1563;0.2589
0000611428;8.0493;3.6320;2.6959;0.0962;-0.1921;0.2774
0000611440;9.7396;4.5155;2.6671;0.1408;-0.1729;0.2152
0000611449;9.9862;4.7980;2.4684;0.1014;-0.1407;0.1202
0000611462;9.5888;4.7956;2.2434;0.0216;-0.0929;-0.0027
0000611471;8.5904;4.2832;1.9920;-0.0080;-0.1053;-0.0289
0000611483;8.0756;3.6559;2.1859;-0.0326;-0.1142;0.0392
0000611492;7.8961;3.1220;2.2697;0.0063;-0.0967;0.0913
0000611501;8.1547;3.0478;1.9824;0.0344;-0.0549;0.1242
0000611514;8.7484;3.1412;1.6616;0.0218;0.0203;0.1332
0000611523;9.1482;3.2106;1.5299;-0.0309;0.0813;0.1302
0000611535;9.7372;3.5051;1.2330;-0.1038;0.1621;0.1090
0000611544;9.6941;3.1173;1.1612;-0.1350;0.2190;0.0966
0000611557;9.3972;2.4948;1.3982;-0.1342;0.2619;0.0965
0000611566;9.0094;2.1596;1.5850;-0.0846;0.2590;0.0846
0000611575;8.6622;1.6999;1.7741;-0.0036;0.2397;0.0906
0000611587;8.1977;1.1133;1.8076;0.1296;0.1887;0.1066
0000611596;8.2911;1.0295;1.7358;0.2254;0.1467;0.1251
0000611663;8.1259;2.2146;0.4310;0.2491;0.0248;-0.0356
0000611672;8.4060;2.3655;0.3232;0.2451;0.0273;-0.0783
0000611684;8.5569;2.5115;0.2897;0.2176;0.0518;-0.1278
0000611693;8.7843;2.6743;0.2298;0.1808;0.0913;-0.1492
0000611702;8.9639;2.6600;0.2442;0.1588;0.1148;-0.1611
0000611715;8.9208;2.4397;0.2107;0.1291;0.1579;-0.1459
0000611724;9.1339;2.4852;0.3998;0.1298;0.1924;-0.1196
0000611736;9.2081;1.9728;0.5387;0.1625;0.2372;-0.0981
0000611745;9.3709;2.0710;0.4788;0.1908;0.2751;-0.0757
0000611758;9.2584;2.0638;0.3998;0.2561;0.3155;-0.0645
0000611767;9.2273;2.4541;0.2514;0.3044;0.3452;-0.0678
0000611776;9.1363;2.7318;0.0192;0.3269;0.3741;-0.0685
0000611788;8.7029;3.0167;-0.1772;0.3164;0.4120;-0.0787
0000611797;8.7628;3.2394;-0.4908;0.2618;0.4381;-0.0914
0000611810;8.6287;3.2322;-0.6752;0.1635;0.4783;-0.0983
0000611819;8.4563;3.1651;-0.5339;0.1187;0.5023;-0.0873
0000611831;8.2528;3.0311;-0.2442;0.1010;0.5172;-0.0634
0000611840;8.1834;2.7557;-0.3496;0.0991;0.5155;-0.0492
0000611849;8.3821;2.7916;-0.3424;0.0941;0.4995;-0.0334
0000611862;8.2935;2.3391;-0.2873;0.1199;0.4679;-0.0269
0000611871;8.4228;2.1859;-0.3711;0.1472;0.4431;-0.0454
0000611883;8.5138;2.0016;-0.5578;0.1843;0.4120;-0.0969
0000611892;8.5569;2.1835;-0.7063;0.2130;0.3950;-0.1394
0000611961;8.7987;2.8874;-0.9481;-0.0328;0.3127;-0.2066
0000611970;9.0477;3.0598;-0.6177;-0.0258;0.3176;-0.1884
0000611982;8.9399;3.1556;-0.2394;-0.0033;0.3316;-0.1246
0000611991;8.6694;3.5674;-0.0982;0.0195;0.3143;-0.0835
0000612000;7.9823;3.4213;0.0024;0.0144;0.2931;-0.0398
0000612013;7.8530;3.4429;0.0551;0.0001;0.2541;-0.0032
0000612022;7.8219;3.2394;-0.3041;0.0225;0.2132;0.0016
0000612034;8.2600;3.0382;-0.7805;0.0997;0.1741;0.0053
0000612043;8.5808;2.7964;-1.3312;0.1689;0.1671;0.0073
0000612056;8.6407;2.8012;-2.0303;0.2004;0.1828;-0.0297
0000612065;8.6766;2.8180;-2.4110;0.2004;0.2038;-0.0879
0000612074;8.9998;3.2537;-2.6935;0.2001;0.2491;-0.1434
0000612086;9.2799;3.9002;-2.4253;0.1940;0.3497;-0.2438
0000612095;9.3541;4.4652;-2.0638;0.1356;0.4526;-0.3067
0000612108;9.2177;5.2098;-1.6113;0.0111;0.5994;-0.3383
0000612117;8.7317;5.5952;-0.9002;-0.0510;0.7031;-0.3062
0000612129;8.0373;6.3782;0.7997;-0.0798;0.8403;-0.1855
0000612138;7.3909;7.3382;2.2218;-0.0773;0.9110;-0.0300
0000612151;6.3566;8.9064;2.6695;-0.0699;0.8933;0.2686
0000612160;5.9448;9.2057;2.0686;-0.1264;0.8096;0.4167
0000612169;6.4620;8.2504;1.6568;-0.2088;0.6924;0.4121
0000612181;8.4204;5.2960;1.5658;-0.2749;0.5301;0.2001
0000612190;9.7276;2.9999;1.9273;-0.2166;0.4085;0.0080
0000612259;4.3981;3.5458;0.0982;0.2326;0.3383;-0.5276
0000612268;4.1276;4.2162;-0.0096;0.1756;0.2787;-0.4738
0000612280;4.6136;4.7740;0.0000;0.0640;0.1608;-0.3881
0000612289;5.3127;4.7094;0.0215;-0.0344;0.0745;-0.3343
0000612298;6.1938;4.5825;0.0958;-0.1031;-0.0104;-0.3168
0000612312;6.8139;3.6152;0.2993;-0.2062;-0.0767;-0.2682
0000612321;6.7732;2.7581;0.3591;-0.2505;-0.1138;-0.2316
0000612334;7.1635;2.2362;0.7326;-0.2610;-0.1819;-0.1703
0000612343;7.1587;1.7549;0.7542;-0.2198;-0.2130;-0.1358
0000612355;7.1587;1.4988;0.6656;-0.1280;-0.2180;-0.1320
0000612364;6.6535;1.5179;0.8045;-0.0536;-0.2121;-0.1410
0000612377;6.2010;2.0949;0.6584;0.0301;-0.2148;-0.1595
0000612386;5.9807;2.1739;0.4525;0.0472;-0.2269;-0.1772
0000612395;5.7269;2.5235;0.4310;0.0525;-0.2493;-0.1772
0000612407;5.2744;2.4373;0.5459;0.0522;-0.2916;-0.1430
0000612416;5.7006;2.8491;0.5483;0.0505;-0.3215;-0.1098
0000612429;6.3375;3.0311;0.4501;0.0454;-0.3625;-0.0801
0000612438;6.5601;3.2585;0.2993;0.0298;-0.3877;-0.0586
0000612450;7.0342;3.4477;0.0742;-0.0133;-0.3906;-0.0425
0000612459;7.0844;3.5578;0.0024;-0.0612;-0.3688;-0.0273
0000612468;7.1084;3.6440;0.0646;-0.1092;-0.3675;-0.0309
0000612481;6.6343;3.3303;0.2466;-0.1848;-0.3649;-0.0133
0000612490;6.2297;3.1101;0.4214;-0.2040;-0.3750;-0.0241
0000612559;6.6319;2.8898;0.6871;-0.3190;-0.3416;0.0616
0000612568;6.8666;3.3686;0.4645;-0.3082;-0.3607;0.0751
0000612581;6.8450;3.7350;0.3065;-0.2920;-0.3742;0.0859
0000612590;6.5242;3.6536;0.1389;-0.2991;-0.3792;0.0873
0000612602;6.7397;3.6248;0.1652;-0.3287;-0.3693;0.0761
0000612611;6.8331;3.4237;0.1628;-0.3375;-0.3604;0.0645
0000612620;6.8977;3.0694;0.1197;-0.3485;-0.3547;0.0497
0000612633;7.0270;2.5019;0.1867;-0.3269;-0.3676;0.0456
0000612642;7.1539;2.1787;0.2346;-0.2870;-0.3720;0.0409
0000612654;6.9480;1.9537;0.1437;-0.2427;-0.3813;0.0425
0000612663;6.8259;2.1404;0.1915;-0.2136;-0.3997;0.0417
0000612676;6.7181;2.5666;0.0024;-0.1976;-0.4041;0.0633
0000612685;6.7924;2.9760;-0.1580;-0.1974;-0.3952;0.0857
0000612697;6.7253;3.0909;-0.3879;-0.1912;-0.3944;0.1081
0000612706;6.7804;3.2058;-0.3448;-0.1856;-0.3828;0.1244
0000612715;6.8019;3.0837;-0.3400;-0.1640;-0.3684;0.1436
0000612728;7.1515;2.9568;-0.1460;-0.1323;-0.3636;0.1584
0000612737;7.4268;2.8826;-0.1221;-0.1267;-0.3551;0.1551
0000612749;7.4627;2.4636;0.0790;-0.0993;-0.3623;0.1447
0000612758;7.7476;2.5953;0.1987;-0.0462;-0.3806;0.1244
0000612771;7.5417;2.6312;0.2298;0.0386;-0.3768;0.0929
0000612780;7.5489;2.7461;0.2083;0.0834;-0.3580;0.0741
0000612789;7.6543;2.9161;0.1101;0.1092;-0.3182;0.0654
0000612858;6.1986;3.0574;-1.0654;0.2214;-0.1392;0.0199
0000612867;5.8371;3.3040;-1.1109;0.2164;-0.1704;0.0308
0000612880;5.4636;3.7206;-1.2067;0.1541;-0.2326;0.0461
0000612889;5.1978;3.4069;-1.2617;0.0962;-0.2721;0.0725
0000612901;5.5929;3.1292;-1.3623;0.0585;-0.3281;0.1066
0000612910;5.6719;2.8730;-1.3264;0.0721;-0.3649;0.1242
0000612923;5.4181;2.6815;-1.5060;0.1206;-0.4120;0.1801
0000612932;5.6240;2.8635;-1.5897;0.1498;-0.4695;0.2098
0000612941;5.5857;2.7725;-1.9321;0.1464;-0.5299;0.2310
0000612953;5.5689;2.6695;-2.1500;0.1159;-0.6408;0.2353
0000612962;5.3893;2.4732;-2.3080;0.0911;-0.7224;0.2164
0000612975;5.1380;3.1436;-1.4078;0.0691;-0.8294;0.1675
0000612984;5.2768;4.5226;-0.0527;0.0245;-0.8944;0.0958
0000612996;7.4340;6.2848;1.5706;-0.2461;-0.8920;-0.0525
0000613005;9.8809;6.7780;2.3272;-0.3936;-0.8592;-0.1851
0000613014;12.3900;6.7852;2.4948;-0.3327;-0.7831;-0.2798
0000613027;13.4387;7.3406;2.3679;-0.1033;-0.5740;-0.3204
0000613036;12.8832;6.8187;1.2378;-0.0504;-0.3981;-0.2045
0000613048;10.1562;4.0941;0.2298;-0.0987;-0.1262;-0.0294
0000613057;8.0948;1.9632;0.6440;-0.0004;0.0159;0.0614
0000613070;5.6144;0.8523;1.2282;0.3214;0.0893;0.1652
0000613079;5.3534;1.3072;1.6951;0.4994;0.0222;0.1986
0000613148;11.4156;3.6823;0.7590;0.2138;0.0408;-0.1207
0000613157;10.3238;2.9353;0.9146;0.1679;0.1813;-0.1082
0000613166;9.6007;2.2960;0.9936;0.1688;0.3190;-0.0873
0000613179;8.8155;1.6376;1.3743;0.1829;0.4768;0.0179
0000613188;8.6718;1.2186;1.5227;0.2503;0.5505;0.0689
0000613200;9.2871;1.7166;1.0080;0.3643;0.6706;0.0865
0000613209;8.5162;1.8603;0.5387;0.4089;0.8291;0.0614
0000613222;6.8283;1.9201;1.4916;0.5127;0.6394;0.0894
0000613231;7.2257;3.0358;2.1189;0.5959;0.3940;0.1515
0000613240;8.0182;3.4237;0.1700;0.5664;0.3107;0.1779
0000613252;8.1475;4.0677;-1.5514;0.3499;0.4246;0.1616
0000613261;7.9775;4.2593;-1.9225;0.2269;0.5309;0.1533
0000613274;8.3366;3.8690;-1.1708;0.0610;0.6764;0.1228
0000613283;8.9160;4.0223;-0.8835;-0.0222;0.7117;0.1251
0000613295;9.4739;3.8738;-0.4645;-0.0320;0.6917;0.1355
0000613304;9.3302;3.5961;-0.4118;-0.0003;0.6706;0.0751
0000613313;8.9232;3.3567;-0.0862;0.0357;0.6290;0.0076
0000613326;8.6383;3.4261;0.0072;0.0775;0.5400;-0.0457
0000613335;8.3510;2.9760;0.0144;0.0911;0.4958;-0.0775
0000613347;8.1858;2.5905;-0.3591;0.0630;0.4839;-0.1115
0000613356;7.9823;2.2649;-0.6081;0.0257;0.5017;-0.1454
0000613369;7.8745;1.6113;-0.7566;-0.0069;0.5203;-0.1717
0000613378;7.9631;1.4102;-0.5267;0.0084;0.5119;-0.1612
0000613387;7.8243;1.5514;-0.2610;0.0549;0.4818;-0.1291
0000613456;7.9080;3.6727;-1.0151;-0.0653;0.2108;-0.0120
0000613465;7.8027;3.2513;-0.8284;-0.0889;0.2036;-0.0276
0000613478;7.8171;2.8299;-0.7638;-0.0777;0.1873;-0.0301
0000613487;7.6495;2.5474;-0.6967;-0.0520;0.1776;-0.0111
0000613499;8.0349;2.8036;-0.9266;-0.0091;0.1720;0.0203
0000613508;8.3414;2.8515;-1.0774;0.0197;0.1641;0.0305
0000613521;8.7293;3.1412;-1.3503;-0.0088;0.1817;0.0313
0000613530;8.8825;3.3806;-1.3791;-0.0677;0.2056;0.0281
0000613539;9.2129;3.5075;-1.4030;-0.1156;0.2261;0.0079
0000613551;9.1506;3.3854;-1.4796;-0.1567;0.2801;-0.0025
0000613560;8.8274;3.4429;-1.4916;-0.1575;0.3148;0.0001
0000613573;8.6742;3.1891;-1.5179;-0.1628;0.3509;0.0077
0000613582;8.2241;3.0263;-1.4413;-0.1527;0.3688;-0.0069
0000613594;7.9009;2.9257;-1.3647;-0.1440;0.3798;-0.0220
0000613603;7.9775;2.9880;-1.3408;-0.1410;0.3868;-0.0358
0000613616;8.3510;3.3710;-1.2833;-0.1463;0.3832;-0.0644
0000613625;8.2432;3.2226;-1.2234;-0.1851;0.3873;-0.0715
0000613634;8.4803;3.3471;-1.2665;-0.2216;0.3853;-0.0854
0000613646;8.6694;3.1364;-1.2186;-0.2533;0.3769;-0.0822
0000613655;8.4946;2.9066;-1.2378;-0.2618;0.3708;-0.0713
0000613668;8.3246;2.7174;-1.3623;-0.2365;0.3600;-0.0711
0000613677;8.4635;2.7797;-1.2139;-0.2156;0.3512;-0.0850
0000613746;9.3446;2.7749;-1.2378;-0.1306;0.5409;-0.1923
0000613755;9.5337;2.7294;-1.2043;-0.0430;0.5801;-0.2133
0000613768;9.6271;2.5690;-1.4796;0.0958;0.6428;-0.2458
0000613777;9.3182;2.4157;-1.7980;0.1956;0.6712;-0.2770
0000613786;9.4044;2.6049;-1.9776;0.2618;0.7040;-0.2871
0000613798;8.7819;2.7725;-1.7861;0.3349;0.7196;-0.3152
0000613807;8.1259;3.3136;-1.4940;0.3560;0.7398;-0.3036
0000613821;6.2944;4.2066;-1.6735;0.3273;0.7500;-0.2326
0000613830;5.4444;5.0135;-1.2665;0.3022;0.7123;-0.1335
0000613843;5.7174;6.1675;0.5076;0.3096;0.5974;0.0412
0000613850;6.0358;7.2808;1.5060;0.3110;0.4986;0.1302
0000613858;5.9664;8.6335;1.5658;0.2687;0.4048;0.2322
0000613869;5.3846;9.4834;1.0295;0.1010;0.2619;0.3535
0000613877;5.5929;8.8274;0.7853;-0.0757;0.1319;0.3993
0000613889;7.4771;5.9328;1.2426;-0.2457;-0.0588;0.3429
0000613897;8.4228;3.7182;1.5323;-0.2084;-0.1448;0.2470
