time;acc_x;acc_y;acc_z;gyro_x;gyro_y;gyro_z
0000716508;5.8347;3.4093;0.8428;-0.3076;-0.0709;-0.0033
0000716516;6.2321;3.5602;0.5219;-0.3130;-0.0622;0.0132
0000716523;6.5266;3.6344;0.3615;-0.3060;-0.0512;0.0135
0000716531;6.8953;3.5602;0.2945;-0.2888;-0.0172;0.0228
0000716539;7.3095;3.7900;0.2251;-0.2904;0.0297;0.0301
0000716547;7.7716;3.8307;0.1939;-0.2814;0.0859;0.0370
0000716555;7.9440;3.8690;0.1987;-0.2843;0.1520;0.0478
0000716563;7.9368;3.8834;0.1748;-0.2813;0.2258;0.0569
0000716571;8.1307;3.8882;0.2586;-0.2713;0.2972;0.0570
0000716579;7.8482;4.0534;0.3160;-0.2503;0.3617;0.0593
0000716587;7.3813;3.9289;0.2777;-0.2346;0.4251;0.0705
0000716595;6.9216;3.7302;0.3974;-0.2092;0.4690;0.0754
0000716603;6.6583;3.6583;0.4405;-0.1807;0.4888;0.0781
0000716611;6.4021;3.5554;0.5124;-0.1547;0.4995;0.0726
0000716619;6.2537;3.3543;0.6536;-0.1420;0.4980;0.0654
0000716627;5.9831;3.2729;0.6895;-0.1294;0.4839;0.0525
0000716635;5.8371;2.9664;0.6680;-0.1323;0.4699;0.0480
0000716643;5.8371;2.8778;0.8547;-0.1364;0.4435;0.0334
0000716651;6.0501;2.9161;0.8523;-0.1311;0.4205;0.0228
0000716659;6.1004;2.7892;0.9026;-0.1376;0.3989;0.0361
0000716667;6.1914;2.5905;0.8739;-0.1342;0.3777;0.0436
0000716675;6.4476;2.5809;0.8547;-0.1388;0.3649;0.0632
0000716683;6.5960;2.6288;0.9337;-0.1335;0.3509;0.0709
0000716691;6.6918;2.4804;1.0199;-0.1266;0.3505;0.0850
0000716699;6.9839;2.6600;0.9649;-0.1140;0.3447;0.0839
0000716707;6.9240;2.5857;0.9697;-0.1001;0.3441;0.0745
0000716715;6.9073;2.4876;0.9290;-0.0911;0.3545;0.0624
0000716723;6.6918;2.2529;0.8619;-0.0914;0.3680;0.0496
0000716731;6.6750;2.2098;0.8212;-0.0811;0.3805;0.0297
0000716739;6.8618;2.2194;0.7374;-0.0574;0.3940;0.0111
0000716747;6.7876;2.1356;0.7398;-0.0390;0.4142;0.0008
0000716755;6.5864;2.0207;0.7446;-0.0107;0.4305;-0.0099
0000716763;6.7349;2.3032;0.6895;0.0177;0.4483;-0.0285
0000716771;6.6535;2.4708;0.6057;0.0444;0.4636;-0.0392
0000716779;6.7277;2.5809;0.4860;0.0506;0.4796;-0.0532
0000716787;6.8354;2.7438;0.3352;0.0691;0.4818;-0.0657
0000716795;6.4763;2.7102;0.2897;0.0739;0.4795;-0.0709
0000716803;6.4476;2.6935;0.1077;0.0699;0.4782;-0.0717
0000716811;6.5266;2.7869;0.1341;0.0666;0.4782;-0.0858
0000716819;6.1148;2.6935;0.1030;0.0714;0.4663;-0.1075
0000716827;6.1028;2.8252;0.1030;0.0782;0.4688;-0.1148
0000716835;6.1172;3.3375;0.1891;0.0903;0.4608;-0.1226
0000716843;5.7868;3.4716;0.2418;0.1001;0.4539;-0.1214
0000716851;5.6072;3.9696;0.2394;0.1167;0.4377;-0.1128
0000716859;5.2433;4.1755;0.2227;0.1288;0.4046;-0.0949
0000716867;5.1547;4.4125;0.1604;0.1243;0.3648;-0.0722
0000716875;4.9967;4.2928;0.0886;0.1172;0.3143;-0.0481
0000716883;5.0733;4.0989;0.0287;0.1015;0.2538;-0.0428
0000716891;5.3223;3.8762;-0.0790;0.0870;0.1976;-0.0417
0000716899;5.7078;3.7493;-0.1437;0.0648;0.1580;-0.0422
0000716907;6.1220;3.4381;-0.2801;0.0520;0.1231;-0.0581
0000716915;6.3734;3.2992;-0.3304;0.0418;0.1176;-0.0661
0000716923;6.6870;3.2154;-0.3543;0.0232;0.1214;-0.0754
0000716931;6.8283;3.2274;-0.3041;0.0067;0.1302;-0.0853
0000716939;6.9911;3.3926;-0.1628;-0.0199;0.1522;-0.0741
0000716947;6.9504;3.3830;-0.1053;-0.0413;0.1705;-0.0624
0000716955;6.7564;3.2633;-0.0120;-0.0657;0.2017;-0.0413
0000716963;6.4715;2.8778;0.3065;-0.0751;0.2434;-0.0183
0000716971;6.4835;2.7294;0.3400;-0.0624;0.2774;-0.0025
0000716979;6.1483;2.4349;0.4908;-0.0262;0.3114;0.0215
0000716987;6.1746;2.2936;0.5171;0.0254;0.3344;0.0380
0000716995;5.9017;2.1261;0.6680;0.0701;0.3589;0.0590
0000717003;5.8562;2.4732;0.5842;0.1041;0.3784;0.0629
0000717011;5.4803;2.6360;0.6800;0.1315;0.3876;0.0632
0000717019;5.3989;3.0933;0.6704;0.1210;0.4028;0.0679
0000717027;5.4229;3.3040;0.8140;0.0817;0.4104;0.0697
0000717035;5.4875;3.5291;0.9553;0.0372;0.4093;0.0654
0000717043;5.4372;3.4213;1.1540;-0.0036;0.4173;0.0608
0000717051;5.6240;3.3591;1.1564;-0.0217;0.4190;0.0500
0000717059;5.6479;3.1340;1.3024;-0.0416;0.4303;0.0496
0000717067;5.7126;2.8659;1.4485;-0.0429;0.4365;0.0457
0000717075;5.7293;2.8659;1.4293;-0.0533;0.4401;0.0572
0000717083;5.6048;2.8132;1.4006;-0.0665;0.4369;0.0691
0000717091;5.4612;2.9185;1.3982;-0.0921;0.4338;0.0863
0000717118;4.8100;3.9480;1.4293;-0.1873;0.3816;0.0358
0000717126;4.7477;4.1013;1.3767;-0.2157;0.3768;0.0159
0000717134;4.6136;3.9025;1.0822;-0.2278;0.3722;-0.0096
0000717142;4.6591;3.5171;0.7350;-0.2030;0.3683;-0.0414
0000717150;4.7046;2.7845;0.4956;-0.1733;0.3808;-0.0614
0000717158;4.6855;2.5809;0.2418;-0.1147;0.3809;-0.0875
0000717166;4.5777;2.4349;-0.0215;-0.0699;0.3840;-0.0889
0000717174;4.4269;2.4157;-0.1101;-0.0310;0.3616;-0.0978
0000717182;4.4365;2.7821;-0.1700;-0.0084;0.3312;-0.0913
0000717190;4.2353;3.1963;0.0838;-0.0228;0.2967;-0.0906
0000717198;4.0677;3.7134;0.2753;-0.0538;0.2613;-0.0965
0000717206;4.2162;4.1539;0.4190;-0.0943;0.2230;-0.1207
0000717214;4.3000;4.4197;0.5363;-0.1442;0.2016;-0.1490
0000717222;4.2737;4.1994;0.6105;-0.1998;0.1856;-0.1805
0000717230;4.6783;3.8068;0.5483;-0.2350;0.1661;-0.2010
0000717238;4.9632;3.1580;0.3089;-0.2407;0.1676;-0.1952
0000717246;5.0039;2.6336;0.2179;-0.2086;0.1597;-0.1773
0000717254;5.1236;2.2146;0.2346;-0.1637;0.1500;-0.1547
0000717262;4.8722;1.9154;0.2490;-0.1176;0.1366;-0.1214
0000717270;4.7884;2.0518;0.2346;-0.0961;0.1220;-0.0846
0000717278;4.7501;2.1380;0.3184;-0.0911;0.1098;-0.0574
0000717286;4.6711;2.3439;0.4429;-0.0867;0.0867;-0.0485
0000717294;4.5394;2.7222;0.4956;-0.0979;0.0726;-0.0410
0000717302;4.5490;2.7198;0.4381;-0.1099;0.0663;-0.0498
0000717310;4.5729;2.7605;0.4573;-0.1374;0.0580;-0.0622
0000717318;4.6040;2.6552;0.2873;-0.1422;0.0409;-0.0783
0000717326;4.8123;2.4852;0.2203;-0.1375;0.0322;-0.0775
0000717334;4.8626;2.2913;-0.0215;-0.1103;0.0103;-0.0743
0000717342;4.8602;2.2194;-0.1101;-0.0830;0.0015;-0.0553
0000717350;4.7932;2.0566;-0.1772;-0.0509;-0.0246;-0.0476
0000717358;4.6400;2.0279;-0.4334;-0.0049;-0.0589;-0.0369
0000717366;4.3622;2.1524;-0.3208;0.0200;-0.0863;-0.0189
0000717374;3.9911;2.0925;-0.1844;0.0396;-0.1180;-0.0071
0000717382;4.1013;2.3535;-0.1891;0.0565;-0.1699;-0.0061
0000717390;3.7421;2.3703;-0.1365;0.0521;-0.2104;0.0064
0000717398;3.8547;2.5690;-0.0239;0.0518;-0.2438;0.0242
0000717406;4.1492;2.7007;0.0287;0.0489;-0.2817;0.0357
0000717414;4.1539;2.8180;0.0790;0.0625;-0.3087;0.0509
0000717422;4.3718;2.7988;0.1077;0.0723;-0.3351;0.0580
0000717430;4.4388;3.1268;0.0646;0.0899;-0.3607;0.0498
0000717438;4.6352;3.1891;-0.0359;0.1051;-0.3824;0.0481
0000717446;4.5514;3.1460;-0.0503;0.1116;-0.4041;0.0328
0000717454;4.6639;3.2968;0.0431;0.1092;-0.4201;0.0302
0000717462;4.6591;3.4213;0.0000;0.0959;-0.4287;0.0256
0000717470;4.7190;3.3854;0.1245;0.0846;-0.4470;0.0192
0000717478;4.6591;3.3279;0.0551;0.0729;-0.4599;0.0137
0000717486;4.6615;3.4093;-0.1628;0.0653;-0.4584;0.0147
0000717494;4.5681;3.4165;-0.3041;0.0640;-0.4655;0.0125
0000717502;4.4915;3.2609;-0.0958;0.0556;-0.4771;0.0277
0000717510;4.4724;3.2705;0.1077;0.0364;-0.4846;0.0381
0000717518;4.4173;3.2561;0.2083;0.0191;-0.4958;0.0646
0000717526;4.4053;3.2777;0.2729;0.0221;-0.5155;0.0803
0000717534;4.7094;3.3040;0.2705;0.0161;-0.5145;0.1035
0000717542;4.7525;3.2633;0.2801;0.0201;-0.5208;0.1096
0000717550;4.9967;3.1436;0.3232;0.0087;-0.5108;0.1278
0000717558;5.1356;3.0382;0.3136;0.0008;-0.5053;0.1300
0000717566;5.5306;3.1053;0.3160;0.0005;-0.4850;0.1398
0000717574;5.7652;2.9473;0.2682;-0.0105;-0.4493;0.1484
0000717582;5.8826;2.8252;0.1556;-0.0139;-0.4143;0.1579
0000717590;6.3877;2.9856;0.0670;-0.0155;-0.3824;0.1514
0000717598;6.3303;2.8802;0.1125;-0.0217;-0.3281;0.1458
0000717606;6.2920;2.6695;0.1245;-0.0402;-0.2723;0.1352
0000717614;6.2848;2.7701;0.0503;-0.0525;-0.2245;0.1243
0000717622;6.1411;2.5929;0.0455;-0.0706;-0.1645;0.1234
0000717630;6.0238;2.5426;0.0215;-0.0774;-0.0986;0.1259
0000717638;5.9256;2.4349;-0.1652;-0.0665;-0.0450;0.1081
0000717646;5.5282;2.4732;-0.1125;-0.0592;0.0057;0.1065
0000717654;5.2768;2.7509;-0.3543;-0.0580;0.0373;0.1055
0000717662;4.8195;2.8228;-0.3567;-0.0593;0.0366;0.1239
0000717670;4.2234;3.0574;0.0168;-0.0674;0.0099;0.1412
0000717678;3.9217;3.4213;0.7111;-0.0835;-0.0397;0.1518
0000717686;4.0007;4.1084;1.2019;-0.1065;-0.0930;0.1487
0000717694;4.3766;4.9416;1.3527;-0.1308;-0.1431;0.1192
0000717778;4.0055;3.3758;0.3424;-0.0853;0.0457;0.0341
0000717786;4.0534;3.5745;0.7230;-0.0602;0.0079;0.0302
0000717794;4.1731;3.8786;0.8667;-0.0385;-0.0280;0.0165
0000717802;4.8004;4.2353;1.2426;-0.0309;-0.0460;0.0003
0000717810;5.2313;4.4293;1.3958;-0.0385;-0.0538;-0.0140
0000717818;5.6000;4.4317;1.4413;-0.0453;-0.0681;-0.0284
0000717826;5.7940;3.9720;1.5945;-0.0650;-0.0714;-0.0123
0000717834;6.2369;3.7852;1.6592;-0.0871;-0.0933;0.0175
0000717842;5.8897;2.9760;1.4748;-0.0938;-0.1218;0.0465
0000717850;5.9185;2.5905;1.7310;-0.0837;-0.1667;0.0560
0000717858;5.6719;2.0446;1.8890;-0.0745;-0.2090;0.0512
0000717866;5.3271;1.6544;1.9417;-0.0597;-0.2510;0.0172
0000717874;5.5186;1.5826;2.1069;-0.0426;-0.3003;-0.0282
0000717882;5.3223;1.4365;2.1045;-0.0489;-0.3341;-0.0608
0000717890;5.7844;1.5993;2.2242;-0.0675;-0.3463;-0.0837
0000717898;6.0047;1.6233;2.3487;-0.0847;-0.3504;-0.0927
0000717906;6.3949;1.5131;2.3176;-0.0867;-0.3267;-0.0957
0000717914;6.6702;1.6520;2.3008;-0.0797;-0.2920;-0.0839
0000717922;7.1204;1.8627;2.3008;-0.0786;-0.2426;-0.0741
0000717930;7.2185;1.9680;2.3391;-0.0589;-0.2144;-0.0714
0000717938;7.2544;2.1644;2.3966;-0.0574;-0.1777;-0.0629
0000717946;7.2927;2.5307;2.4157;-0.0585;-0.1605;-0.0693
0000717954;7.0868;2.9161;2.2960;-0.0593;-0.1523;-0.0783
0000717962;6.8666;3.0239;2.3607;-0.0695;-0.1516;-0.0926
0000717970;6.6391;3.1388;2.4588;-0.0765;-0.1503;-0.1094
0000717978;6.6032;3.0742;2.4804;-0.0917;-0.1456;-0.1195
0000717986;6.4691;3.0909;2.4708;-0.0835;-0.1368;-0.1303
0000717994;6.4141;2.9042;2.4277;-0.0674;-0.1067;-0.1266
0000718002;6.4739;2.7749;2.3750;-0.0402;-0.0798;-0.1216
0000718010;6.4907;2.6073;2.2793;-0.0011;-0.0378;-0.0993
0000718018;6.7062;2.5187;2.0925;0.0428;-0.0024;-0.0710
0000718026;6.8929;2.6001;1.9345;0.0646;0.0514;-0.0393
0000718034;7.0677;2.7342;1.7813;0.0821;0.0850;-0.0123
0000718042;7.3741;2.9736;1.6855;0.0935;0.1187;0.0133
0000718050;7.2257;2.8826;1.5012;0.0753;0.1529;0.0326
0000718058;7.3406;3.1460;1.5562;0.0566;0.1748;0.0409
0000718066;7.3406;3.3471;1.6400;0.0208;0.2009;0.0452
0000718074;7.1754;3.2034;1.7047;-0.0061;0.2188;0.0329
0000718082;7.0509;3.2920;1.6305;-0.0233;0.2350;0.0203
0000718090;6.9216;3.2154;1.5490;-0.0352;0.2585;0.0165
0000718098;6.7133;2.7725;1.5538;-0.0310;0.2739;0.0108
0000718106;6.6822;2.8084;1.4653;-0.0108;0.2802;0.0160
0000718114;6.3039;2.5929;1.4509;0.0036;0.2912;0.0268
0000718122;6.3925;2.5977;1.3743;0.0302;0.2906;0.0417
0000718130;6.0813;2.4493;1.3862;0.0376;0.2943;0.0542
0000718138;6.2130;2.6743;1.2665;0.0516;0.2894;0.0564
0000718146;6.4332;2.7629;1.2785;0.0633;0.2899;0.0569
0000718154;6.3351;2.8012;1.2594;0.0518;0.3004;0.0552
0000718162;6.4835;2.8395;1.2402;0.0370;0.2998;0.0562
0000718170;6.4093;2.8778;1.2857;0.0292;0.2907;0.0525
0000718178;6.2872;2.8563;1.2641;0.0095;0.2896;0.0586
0000718186;6.1316;2.8467;1.1756;-0.0021;0.2789;0.0606
0000718194;5.9424;2.6025;1.2713;0.0025;0.2574;0.0533
0000718202;5.8658;2.6097;1.1636;0.0113;0.2382;0.0500
0000718210;5.6455;2.6360;1.1947;0.0148;0.2245;0.0454
0000718218;5.8083;2.5594;1.1349;0.0188;0.2118;0.0424
0000718226;5.8586;2.4780;1.1923;0.0216;0.1913;0.0312
0000718234;6.0501;2.3463;1.1349;0.0368;0.1852;0.0272
0000718242;6.1316;2.3439;0.9649;0.0445;0.1939;0.0256
0000718250;6.5218;2.4469;0.8619;0.0545;0.2081;0.0337
0000718258;6.7253;2.6073;0.8978;0.0741;0.2170;0.0400
0000718266;6.5410;2.6671;0.8021;0.0925;0.2272;0.0457
0000718274;6.6008;2.9616;0.8428;0.1027;0.2305;0.0526
0000718282;6.2968;2.9640;0.8643;0.1123;0.2236;0.0521
0000718290;6.1028;3.0430;0.8906;0.1029;0.2161;0.0533
0000718298;6.1268;3.2106;0.7446;0.0901;0.1976;0.0429
0000718306;6.0094;3.1077;0.6584;0.0666;0.1868;0.0278
0000718314;5.8969;2.9066;0.4357;0.0380;0.1761;0.0151
0000718322;6.1986;2.8898;0.3400;0.0228;0.1711;-0.0113
0000718330;6.3997;2.9161;0.2610;-0.0003;0.1804;-0.0292
0000718338;6.3422;3.0215;0.0551;-0.0107;0.1992;-0.0349
0000718346;6.4835;3.2010;-0.1604;-0.0132;0.2264;-0.0376
0000718354;6.3087;3.1915;-0.2753;-0.0059;0.2462;-0.0396
0000718362;6.1316;3.3519;-0.1867;-0.0077;0.2625;-0.0344
0000718446;5.2984;2.7414;0.3807;0.0703;0.0933;-0.0922
0000718454;5.5689;3.2753;0.4812;0.0432;0.0420;-0.1047
0000718462;5.6910;3.5362;0.6153;0.0100;0.0044;-0.1088
0000718470;5.8419;3.8140;0.5411;-0.0112;-0.0376;-0.1148
0000718478;6.2273;3.6943;0.5411;-0.0342;-0.0618;-0.1206
0000718486;6.0334;3.4860;0.6321;-0.0512;-0.0646;-0.1274
0000718494;6.3111;3.3375;0.5531;-0.0502;-0.0545;-0.1424
0000718502;6.3303;3.2250;0.4836;-0.0270;-0.0345;-0.1476
0000718510;6.4212;3.0406;0.3687;-0.0040;0.0093;-0.1436
0000718518;6.5625;3.0718;0.1939;0.0165;0.0545;-0.1292
0000718526;6.4835;2.9233;0.1245;0.0397;0.0953;-0.1095
0000718534;6.4883;2.9066;-0.0527;0.0566;0.1332;-0.0871
0000718542;6.6774;2.9353;-0.1197;0.0613;0.1796;-0.0486
0000718550;6.9145;3.2298;-0.1844;0.0766;0.2146;-0.0240
0000718558;6.9073;3.4500;-0.2753;0.0703;0.2598;0.0032
0000718566;7.1108;3.7254;-0.3136;0.0617;0.2879;0.0132
0000718574;7.2065;3.9624;-0.2705;0.0258;0.3251;0.0192
0000718582;7.2472;4.0797;-0.4190;-0.0072;0.3541;0.0065
0000718590;7.3646;4.0606;-0.4262;-0.0333;0.3844;-0.0044
0000718598;7.2999;3.9792;-0.5746;-0.0669;0.4118;-0.0080
0000718606;7.0126;3.7206;-0.5387;-0.0949;0.4246;-0.0164
0000718614;6.8666;3.7924;-0.6033;-0.1319;0.4365;-0.0248
0000718622;6.5577;3.6057;-0.4597;-0.1500;0.4374;-0.0489
0000718630;6.2968;3.5338;-0.5435;-0.1537;0.4406;-0.0675
0000718638;5.9304;3.2561;-0.4836;-0.1669;0.4363;-0.0889
0000718646;5.8490;3.2370;-0.5148;-0.1737;0.4198;-0.1155
0000718654;5.6934;3.1268;-0.5267;-0.1828;0.4130;-0.1346
0000718662;5.7461;2.9568;-0.6584;-0.1909;0.4149;-0.1419
0000718670;6.1603;2.9449;-0.6752;-0.1809;0.4229;-0.1394
0000718678;6.4715;2.9521;-0.8619;-0.1572;0.4246;-0.1308
0000718686;6.6702;3.1077;-0.6656;-0.1446;0.4382;-0.1099
0000718694;6.2944;3.5195;-0.0359;-0.1580;0.4462;-0.0935
0000718702;5.6695;4.1731;0.9098;-0.1932;0.4266;-0.0761
0000718710;4.7573;4.9033;1.6328;-0.2459;0.3821;-0.0284
0000718718;3.7924;5.7581;2.0327;-0.2742;0.2922;0.0421
0000718726;2.8802;6.6343;1.9034;-0.2991;0.1720;0.1371
0000718734;1.7406;6.9073;1.9417;-0.3511;-0.0047;0.2178
0000718742;1.4461;6.7038;2.1141;-0.3969;-0.2120;0.2623
0000718750;1.7023;5.7557;1.8962;-0.4218;-0.4133;0.2701
0000718758;2.3248;4.5346;1.3312;-0.3982;-0.5800;0.2214
0000718766;3.6679;3.5458;0.7685;-0.3439;-0.6793;0.1518
0000718774;4.9943;2.6983;0.5866;-0.2407;-0.7432;0.0815
0000718782;6.4045;2.4157;0.3519;-0.1107;-0.7492;0.0310
0000718790;7.6207;2.9353;0.0958;-0.0005;-0.7079;-0.0075
0000718798;8.6000;3.7565;0.1269;0.0518;-0.6210;-0.0256
0000718806;9.3087;4.6088;0.4645;0.0466;-0.5124;-0.0528
0000718814;9.3134;4.9919;0.8595;-0.0048;-0.3804;-0.0624
0000718822;9.0381;5.1212;1.3192;-0.0821;-0.2475;-0.0731
0000718830;8.7340;5.0135;1.7526;-0.1536;-0.1264;-0.0826
0000718838;7.7237;4.4125;2.0087;-0.2082;-0.0012;-0.0806
0000718846;6.5769;3.7757;2.4157;-0.2329;0.1067;-0.0741
0000718854;5.6383;3.1316;2.8683;-0.2202;0.1837;-0.0525
0000718862;4.5849;2.4780;3.1723;-0.2037;0.2465;-0.0221
0000718870;3.8140;1.8316;3.2465;-0.1965;0.2734;0.0056
0000718878;3.3375;1.2594;3.2896;-0.1837;0.2675;0.0369
0000718886;3.0478;0.6225;3.1173;-0.1735;0.2353;0.0719
0000718894;3.1077;0.2083;2.9401;-0.1603;0.1721;0.0831
0000718902;3.3830;0.0838;2.7438;-0.1418;0.0871;0.0903
0000718910;3.9409;0.4980;2.6839;-0.1363;0.0145;0.0829
0000718918;4.3958;0.9313;2.5402;-0.1283;-0.0717;0.0533
0000718926;4.6400;1.2881;2.3918;-0.1198;-0.1296;0.0298
0000718934;4.9775;1.8651;2.3224;-0.1055;-0.1911;-0.0129
0000718942;5.1188;2.4110;2.1907;-0.1011;-0.2382;-0.0577
0000718950;5.3223;2.6911;2.2889;-0.1021;-0.2666;-0.0987
0000718958;5.2960;2.8252;2.2482;-0.0914;-0.2936;-0.1488
0000718966;5.1236;2.6959;2.4134;-0.0705;-0.3090;-0.1763
0000718974;5.1858;2.4708;2.4086;-0.0518;-0.3130;-0.1920
0000718982;5.0901;2.4086;2.5498;-0.0173;-0.3308;-0.2029
0000718990;4.8578;2.0566;2.6145;0.0308;-0.3400;-0.2124
0000718998;4.7956;1.9848;2.5905;0.0674;-0.3357;-0.2057
0000719006;4.8698;2.0327;2.5690;0.0955;-0.3313;-0.1980
0000719014;5.1499;2.2122;2.4134;0.1144;-0.3301;-0.1993
0000719022;5.1906;2.3655;2.4565;0.1286;-0.3214;-0.2000
0000719106;4.8866;2.4876;2.3343;0.0834;0.0947;-0.0332
0000719114;4.5370;2.2769;2.2482;0.0978;0.0689;-0.0234
0000719122;4.4436;2.2386;2.1955;0.1231;0.0414;-0.0288
0000719130;4.3407;2.3104;1.9944;0.1653;-0.0017;-0.0342
0000719138;4.3024;2.3343;1.9704;0.2025;-0.0406;-0.0490
0000719146;4.2329;2.3846;1.8842;0.2129;-0.0742;-0.0590
0000719154;4.6639;2.6169;1.7621;0.2154;-0.1124;-0.0769
0000719162;4.8123;2.5522;1.7597;0.2218;-0.1415;-0.0999
0000719170;5.0494;2.5067;1.5634;0.2180;-0.1571;-0.1152
0000719178;5.3989;2.5594;1.4700;0.2264;-0.1743;-0.1500
0000719186;5.2146;2.4852;1.3240;0.2252;-0.1724;-0.1651
0000719194;5.1284;2.4660;1.3527;0.2250;-0.1697;-0.1763
0000719202;5.0637;2.4756;1.3455;0.2324;-0.1753;-0.1883
0000719210;4.9201;2.4205;1.3408;0.2458;-0.1852;-0.1969
0000719218;4.6519;2.3272;1.1660;0.2650;-0.1978;-0.2004
0000719226;4.3838;2.4804;1.1899;0.2741;-0.2210;-0.2022
0000719234;3.9456;2.5115;1.1779;0.2790;-0.2531;-0.2016
0000719242;3.9768;2.6935;1.1636;0.2613;-0.2801;-0.1855
0000719250;4.0294;2.6121;1.2594;0.2455;-0.3135;-0.1823
0000719258;4.3934;2.6719;1.2186;0.2302;-0.3329;-0.1753
0000719266;4.4915;2.5307;1.1205;0.2176;-0.3516;-0.1753
0000719274;4.6400;2.4325;0.9505;0.2114;-0.3665;-0.1733
0000719282;4.9153;2.3056;0.8332;0.1931;-0.3667;-0.1608
0000719290;4.9464;2.0997;0.5914;0.1976;-0.3714;-0.1555
0000719298;5.1619;2.1835;0.5459;0.2057;-0.3730;-0.1324
0000719306;4.9273;1.9968;0.5459;0.2088;-0.3792;-0.1130
0000719314;4.8985;2.1093;0.4717;0.2285;-0.3938;-0.1014
0000719322;4.5562;2.1165;0.4070;0.2360;-0.3950;-0.0890
0000719330;4.6639;2.3080;0.4190;0.2483;-0.4159;-0.0734
0000719338;4.3886;2.4157;0.4070;0.2374;-0.4281;-0.0590
0000719346;4.3551;2.4924;0.4812;0.2232;-0.4346;-0.0418
0000719354;4.3766;2.4995;0.3615;0.2048;-0.4499;-0.0325
0000719362;4.2856;2.3128;0.2729;0.1947;-0.4608;-0.0228
0000719370;4.1970;1.9944;0.1748;0.1709;-0.4663;0.0007
0000719378;4.3862;2.0806;0.2586;0.1471;-0.4763;0.0228
0000719386;4.7309;1.8818;0.2586;0.1419;-0.4952;0.0445
0000719394;4.7597;1.7549;0.1030;0.1544;-0.5197;0.0608
0000719402;5.1978;2.1165;-0.1030;0.1711;-0.5203;0.0769
0000719410;5.1236;2.2817;-0.2705;0.1767;-0.5167;0.0917
0000719418;5.1308;2.5139;-0.3352;0.1732;-0.5137;0.0890
0000719426;5.0350;2.6791;-0.3519;0.1576;-0.5051;0.0861
0000719434;5.0949;2.7461;-0.3926;0.1442;-0.4922;0.0757
0000719442;5.1930;2.5618;-0.2921;0.1235;-0.4750;0.0794
0000719450;4.9321;2.4517;-0.2897;0.1262;-0.4690;0.0823
0000719458;4.9728;2.3870;-0.2514;0.1311;-0.4588;0.0954
0000719466;4.6184;2.4181;-0.1532;0.1478;-0.4541;0.1091
0000719474;4.4341;2.5019;-0.1939;0.1804;-0.4763;0.1251
0000719482;4.4772;2.6695;-0.3280;0.2004;-0.4875;0.1430
0000719490;4.3335;2.7821;-0.4884;0.2164;-0.5036;0.1636
0000719498;4.3503;2.9951;-0.5746;0.2340;-0.5196;0.1719
0000719506;4.4101;2.9951;-0.5363;0.2389;-0.5335;0.1769
0000719514;4.7812;3.2106;-0.5602;0.2461;-0.5296;0.1648
0000719522;5.0278;3.4165;-0.6536;0.2479;-0.5265;0.1436
0000719530;5.1978;3.5458;-0.7470;0.2455;-0.4939;0.1299
0000719538;5.2816;3.6200;-0.8667;0.2344;-0.4694;0.1087
0000719546;5.4827;3.7709;-0.9792;0.2302;-0.4513;0.0949
0000719554;5.4109;3.7326;-1.2306;0.2236;-0.4342;0.0943
0000719562;5.3893;3.7900;-1.5107;0.2329;-0.4255;0.0989
0000719570;4.8387;3.5745;-1.6161;0.2337;-0.4194;0.1143
0000719578;4.3167;3.4453;-1.8196;0.2433;-0.4262;0.1184
0000719586;3.9217;3.4836;-1.7789;0.2489;-0.4405;0.1139
0000719594;3.9002;3.7924;-1.7837;0.2392;-0.4565;0.1147
0000719602;3.8786;3.9169;-1.8411;0.2129;-0.4968;0.1061
0000719610;4.1061;3.9121;-1.9273;0.1813;-0.5279;0.1231
0000719618;4.3215;3.6057;-1.8890;0.1639;-0.5444;0.1298
0000719626;4.4173;3.4117;-1.7430;0.1657;-0.5233;0.1314
0000719634;4.5705;3.4620;-1.5969;0.1759;-0.4844;0.1251
0000719642;4.5490;3.5123;-1.7214;0.1797;-0.4323;0.1199
0000719650;5.0398;3.8618;-2.0542;0.1643;-0.3668;0.1238
0000719658;5.2002;4.0821;-2.2529;0.1336;-0.3118;0.1248
0000719666;5.0542;4.4772;-1.7573;0.0544;-0.2506;0.1407
0000719674;5.2170;5.4588;-0.3879;-0.0839;-0.2116;0.1442
0000719682;5.6024;6.9001;1.3431;-0.2566;-0.2018;0.1358
0000719766;3.2489;2.8659;1.3144;0.2447;-0.0834;0.3636
0000719774;4.1492;3.4907;2.2338;0.1609;-0.1869;0.3729
0000719782;4.8291;3.5793;2.9305;0.0596;-0.2928;0.3469
0000719790;5.8419;3.5793;3.3639;-0.0370;-0.3599;0.3002
0000719798;6.6990;3.2417;3.6176;-0.1182;-0.3816;0.2357
0000719806;7.4603;2.9640;3.6033;-0.1450;-0.3777;0.1605
0000719814;8.0182;2.7533;3.2034;-0.1391;-0.3199;0.0879
0000719822;8.4563;2.7342;2.6049;-0.1384;-0.2449;0.0300
0000719830;8.7580;2.8802;2.2482;-0.1480;-0.1753;-0.0192
0000719838;8.7652;3.1723;1.9776;-0.1739;-0.1075;-0.0472
0000719846;8.4443;3.1723;1.8148;-0.1861;-0.0433;-0.0622
0000719854;8.5688;3.4955;1.7717;-0.1884;0.0083;-0.0714
0000719862;8.3246;3.7254;1.8220;-0.1917;0.0679;-0.0560
0000719870;7.9727;3.6392;1.8675;-0.2018;0.1198;-0.0333
0000719878;7.7500;3.5769;1.7645;-0.1982;0.1617;-0.0085
0000719886;7.3694;3.2801;1.9369;-0.1683;0.1909;0.0159
0000719894;6.7373;2.9018;1.9489;-0.1262;0.2309;0.0405
0000719902;6.3566;2.7342;1.8603;-0.0652;0.2558;0.0481
0000719910;6.2058;2.4756;1.8579;-0.0085;0.2777;0.0506
0000719918;6.1316;2.5019;1.7478;0.0272;0.2848;0.0506
0000719926;6.3422;2.5618;1.6089;0.0457;0.2839;0.0528
0000719934;6.9983;2.6671;1.4820;0.0373;0.2870;0.0532
0000719942;7.2640;2.6025;1.3503;0.0160;0.2856;0.0429
0000719950;7.3191;2.4349;1.3815;-0.0226;0.3039;0.0298
0000719958;7.4819;2.4684;1.3599;-0.0755;0.3224;0.0089
0000719966;7.8554;2.4014;1.2905;-0.1222;0.3585;-0.0056
0000719974;7.8626;2.1237;1.2043;-0.1467;0.4077;-0.0068
0000719982;8.0445;2.2625;1.3001;-0.1430;0.4571;-0.0047
0000719990;8.0589;2.2410;1.2833;-0.1320;0.5085;0.0077
0000719998;7.5968;2.1500;1.2977;-0.1030;0.5484;0.0217
0000720006;7.2281;2.0399;1.1516;-0.0568;0.5704;0.0211
0000720014;7.0198;1.9297;1.2737;-0.0188;0.5869;0.0293
0000720022;6.7421;2.1093;1.1085;0.0136;0.5921;0.0217
0000720030;6.5146;2.1524;1.0104;0.0518;0.5800;0.0101
0000720038;6.3518;2.2003;0.9050;0.0609;0.5725;0.0087
0000720046;6.1052;2.0183;0.8116;0.0773;0.5570;-0.0032
0000720054;6.3135;2.2649;0.7278;0.0874;0.5412;-0.0278
0000720062;6.3015;2.2434;0.6273;0.0893;0.5292;-0.0380
0000720070;6.4883;2.5019;0.7326;0.0953;0.5172;-0.0610
0000720078;6.4667;2.4062;0.8475;0.0967;0.5059;-0.0747
0000720086;6.7947;2.5857;0.8380;0.0989;0.5139;-0.0763
0000720094;6.9216;2.6576;0.8045;0.0955;0.5377;-0.0734
0000720102;7.2496;2.7222;1.0247;0.0891;0.5700;-0.0743
0000720110;7.1850;2.6815;0.9481;0.0850;0.6062;-0.0637
0000720118;7.3574;2.6624;1.1492;0.0915;0.6404;-0.0549
0000720126;7.2808;2.3870;0.9146;0.0962;0.6727;-0.0352
0000720134;7.4388;2.3750;0.7949;0.1138;0.7073;-0.0133
0000720142;7.1682;2.5235;0.6656;0.1312;0.7384;0.0071
0000720150;6.9025;2.5355;0.5555;0.1492;0.7514;0.0157
0000720158;6.7157;2.5618;0.3807;0.1438;0.7722;0.0270
0000720166;6.6726;2.7390;0.2203;0.1363;0.7770;0.0224
0000720174;6.7133;2.8228;0.2083;0.1183;0.7842;0.0254
0000720182;6.7421;2.8491;0.0886;0.1022;0.7881;0.0213
0000720190;6.5314;2.6169;-0.0551;0.0970;0.7823;0.0095
0000720198;6.7062;2.6647;-0.0622;0.0993;0.7746;0.0199
0000720206;6.6774;2.5762;-0.0072;0.1069;0.7576;0.0304
0000720214;6.1770;2.6336;0.1963;0.1164;0.7258;0.0505
0000720222;6.0478;3.0167;0.0431;0.1330;0.6924;0.0701
0000720230;5.7628;3.0789;0.0527;0.1466;0.6543;0.0870
0000720238;5.4708;3.0885;-0.0168;0.1395;0.6205;0.0959
0000720246;5.5809;2.9999;-0.2251;0.1272;0.5965;0.0975
0000720254;5.7245;3.0382;-0.3112;0.1083;0.5784;0.0966
0000720262;5.8658;2.7892;-0.3926;0.1103;0.5701;0.0921
0000720270;6.2656;2.8252;-0.5746;0.1238;0.5750;0.0933
0000720278;6.4452;2.5642;-0.6393;0.1536;0.5837;0.0869
0000720286;6.7469;2.7150;-0.6105;0.1835;0.6033;0.0874
0000720294;6.8738;2.8395;-0.4645;0.2148;0.6259;0.0883
0000720302;7.0342;3.0095;-0.3974;0.2238;0.6623;0.0897
0000720310;7.0054;3.1508;-0.4022;0.2233;0.6937;0.0821
0000720318;7.3358;3.4261;-0.4262;0.2248;0.7300;0.0763
0000720326;7.0198;3.2513;-0.4334;0.2198;0.7693;0.0622
0000720334;7.0485;3.1771;-0.5315;0.2114;0.8163;0.0622
0000720342;7.0509;2.9544;-0.7135;0.2168;0.8713;0.0577
0000720350;6.8738;2.7031;-0.9242;0.2304;0.9328;0.0581
0000720358;6.9959;2.5331;-1.4054;0.2633;0.9827;0.0525
0000720442;6.1866;2.1237;-1.4844;-0.1596;0.8709;-0.0863
0000720450;6.2417;1.8938;-1.6640;-0.0849;0.8753;-0.0893
0000720458;6.2968;1.8364;-1.8148;0.0125;0.8769;-0.0929
0000720466;6.1818;2.1979;-1.8004;0.0926;0.8709;-0.0957
0000720474;5.8730;2.8491;-1.3791;0.1436;0.8444;-0.1116
0000720482;5.5617;3.4740;-1.1516;0.1316;0.8099;-0.1331
0000720490;5.4300;3.8259;-0.9385;0.0678;0.7646;-0.1857
0000720498;5.6407;4.0342;-0.9625;-0.0301;0.7234;-0.2406
0000720506;5.4588;3.6536;-1.0726;-0.1340;0.6936;-0.3228
0000720514;5.9472;3.1029;-1.4198;-0.1693;0.6599;-0.4048
0000720522;6.1268;2.0399;-1.7980;-0.1415;0.6508;-0.4632
0000720530;6.0406;1.5251;-1.8579;-0.0847;0.6414;-0.5073
0000720538;6.5218;1.7047;-1.8914;-0.0366;0.6416;-0.5353
0000720546;6.4476;1.8818;-1.7214;-0.0016;0.6154;-0.5557
0000720554;6.3015;2.4493;-1.7142;-0.0224;0.5785;-0.5565
0000720562;6.2680;3.2346;-1.3910;-0.1051;0.5277;-0.5582
0000720570;6.0310;4.0725;-0.8667;-0.2503;0.4728;-0.5610
0000720578;5.8538;4.9081;-0.1628;-0.4588;0.4389;-0.5684
0000720586;5.3151;6.0741;0.6800;-0.7289;0.4407;-0.5732
0000720594;4.0845;7.4268;1.5730;-0.9794;0.4455;-0.5295
0000720602;2.3008;9.1746;2.4349;-1.1389;0.4402;-0.4096
0000720610;-0.1053;10.5082;2.3870;-1.1479;0.3419;-0.1879
0000720618;-1.1899;10.7619;1.4126;-1.1806;0.1668;0.0422
0000720626;0.2394;8.7245;0.7901;-1.2899;-0.0913;0.1748
0000720634;4.0175;5.4803;0.4405;-1.2768;-0.2793;0.1673
0000720642;7.2688;2.5474;0.4334;-0.9518;-0.2706;0.1541
0000720650;8.9615;1.6544;-0.2035;-0.5261;-0.1392;0.1146
0000720658;9.8833;2.4205;0.0527;-0.1648;0.0338;0.0469
0000720666;10.6374;4.2162;0.5363;0.0504;0.2330;-0.0264
0000720674;11.0852;6.2776;0.8523;0.0834;0.4162;-0.0809
0000720682;10.4675;7.4771;1.5467;-0.0477;0.5562;-0.0937
0000720690;9.1004;7.8051;2.2673;-0.2970;0.6448;-0.0530
0000720698;7.7764;7.2496;2.8802;-0.5470;0.6889;0.0041
0000720706;6.3135;5.7174;2.9904;-0.7261;0.7313;0.0532
0000720714;4.9416;3.6129;3.0047;-0.7818;0.7659;0.0778
0000720722;4.0486;2.1356;2.6552;-0.7461;0.7889;0.0918
0000720730;3.1556;0.8595;2.3152;-0.6443;0.7893;0.1082
0000720738;2.6121;0.0096;2.0183;-0.5367;0.7682;0.1236
0000720746;2.3750;-0.1556;1.7071;-0.4493;0.7087;0.1500
0000720754;2.1141;-0.0072;1.5299;-0.3932;0.6368;0.1887
0000720762;2.1380;0.2777;1.6616;-0.3754;0.5437;0.2160
0000720770;2.2146;0.8140;1.7765;-0.3624;0.4338;0.2209
0000720778;2.4349;1.2665;1.7957;-0.3613;0.3268;0.2158
0000720786;2.7294;1.6807;2.0782;-0.3453;0.2236;0.1815
0000720794;3.4381;1.8004;2.0375;-0.3039;0.1344;0.1474
0000720802;3.7397;1.5419;2.0590;-0.2157;0.0699;0.1035
0000720810;4.1851;1.4988;1.7454;-0.1049;0.0308;0.0628
0000720818;4.4867;1.5395;1.7334;-0.0035;0.0012;0.0249
0000720826;4.5226;1.6807;1.5323;0.0781;-0.0278;-0.0152
0000720834;4.5394;2.0662;1.4653;0.1196;-0.0438;-0.0436
0000720842;4.3072;2.3798;1.3551;0.1210;-0.0510;-0.0838
0000720850;3.9887;2.5522;1.3288;0.1095;-0.0678;-0.1192
0000720858;3.9025;2.7509;1.3623;0.0798;-0.0923;-0.1462
0000720866;4.1061;2.7198;1.4988;0.0546;-0.1128;-0.1636
0000720874;4.2066;2.4110;1.5586;0.0476;-0.1394;-0.1771
0000720882;4.4819;2.1332;1.8028;0.0739;-0.1621;-0.1760
0000720890;4.7932;2.1404;1.7214;0.1340;-0.1781;-0.1737
0000720898;4.9297;2.0016;1.6759;0.2050;-0.1809;-0.1787
0000720906;5.0781;2.1835;1.6281;0.2631;-0.1715;-0.1825
0000720914;5.1763;2.2146;1.4868;0.2922;-0.1484;-0.2017
0000720922;5.2625;2.4421;1.5036;0.3000;-0.1151;-0.2166
0000720930;5.4205;2.2721;1.4964;0.3015;-0.0641;-0.2353
0000720938;5.6575;2.4588;1.4533;0.3220;-0.0129;-0.2567
0000720946;5.5330;2.3583;1.4317;0.3235;0.0506;-0.2610
0000720954;5.5426;2.6600;1.6376;0.3216;0.1123;-0.2573
0000720962;5.5474;2.6743;1.8004;0.3060;0.1603;-0.2538
0000720970;5.5091;2.7174;1.9154;0.2817;0.2069;-0.2350
0000720978;5.5952;2.7629;1.7597;0.2631;0.2477;-0.2101
0000720986;5.4013;2.4852;1.6328;0.2587;0.2777;-0.1881
0000720994;5.3606;2.5666;1.5897;0.2510;0.2990;-0.1665
0000721002;5.0733;2.4876;1.4964;0.2413;0.3035;-0.1402
0000721010;5.0159;2.4660;1.3408;0.2369;0.2903;-0.1282
0000721018;4.4748;2.2386;1.2977;0.2277;0.2786;-0.1112
0000721115;4.6543;2.5809;0.8380;0.1124;-0.1065;0.0077
0000721123;4.7764;2.7222;0.6297;0.1039;-0.1079;-0.0097
0000721131;4.9584;2.7078;0.6345;0.0939;-0.1041;-0.0185
0000721139;4.7740;2.5067;0.4693;0.0667;-0.0935;-0.0152
0000721147;4.7022;2.4948;0.3184;0.0602;-0.0939;-0.0100
0000721155;4.7669;2.9161;0.1628;0.0458;-0.0893;0.0077
0000721163;4.2353;2.8419;0.0910;0.0244;-0.0997;0.0218
0000721171;4.0390;3.1963;0.1748;0.0028;-0.1222;0.0302
0000721179;3.5506;3.2154;0.0024;-0.0289;-0.1643;0.0438
0000721187;3.4046;3.2346;0.1820;-0.0586;-0.2004;0.0616
0000721195;3.1244;3.0502;0.2610;-0.0831;-0.2535;0.0634
0000721203;3.1340;2.6935;0.2753;-0.0989;-0.3019;0.0685
0000721211;3.5099;2.5379;0.1820;-0.0991;-0.3372;0.0747
0000721219;3.7086;2.4972;0.0527;-0.0861;-0.3625;0.0849
0000721227;4.3503;2.2146;-0.1293;-0.0600;-0.3865;0.0953
0000721235;4.5921;2.1045;-0.4070;-0.0249;-0.4030;0.1035
0000721243;4.7908;2.0423;-0.7326;0.0025;-0.4143;0.1212
0000721251;5.1715;2.1739;-0.9457;0.0336;-0.4173;0.1243
0000721259;5.0087;2.4229;-1.1468;0.0525;-0.4234;0.1247
0000721267;4.6902;2.4612;-1.1492;0.0481;-0.4166;0.1223
0000721275;4.5514;2.4421;-0.8667;0.0354;-0.4197;0.1144
0000721283;4.4628;2.5379;-0.7063;0.0306;-0.4229;0.1158
0000721291;4.4412;2.4445;-0.6273;0.0284;-0.4235;0.1264
0000721299;4.3814;2.3822;-0.5004;0.0392;-0.4203;0.1379
0000721307;4.3144;2.2003;-0.3543;0.0702;-0.4247;0.1486
0000721315;4.3766;2.3320;-0.2251;0.0913;-0.4191;0.1687
0000721323;4.2377;2.5019;-0.2945;0.1115;-0.4125;0.1857
0000721331;4.3958;2.7629;-0.2777;0.1303;-0.4122;0.1965
0000721339;4.4125;3.0143;-0.1484;0.1202;-0.4076;0.2038
0000721347;5.0470;3.4357;-0.0766;0.1066;-0.4076;0.2064
0000721355;5.1811;3.3639;-0.0599;0.0798;-0.4102;0.1962
0000721363;5.5258;3.3303;-0.0551;0.0629;-0.4013;0.1892
0000721371;5.8107;3.0789;-0.1101;0.0570;-0.3841;0.1931
0000721379;5.6695;2.8778;-0.3663;0.0707;-0.3829;0.1943
0000721387;5.4755;2.7892;-0.8380;0.1033;-0.3701;0.2002
0000721395;4.9057;2.4157;-1.3599;0.1677;-0.3729;0.1923
0000721403;4.5681;2.6480;-1.8818;0.2340;-0.3997;0.1761
0000721411;4.3215;3.0023;-2.2553;0.2711;-0.4335;0.1711
0000721419;3.8451;3.0502;-2.6169;0.2934;-0.5039;0.1475
0000721427;3.3710;3.2394;-2.8587;0.3016;-0.5745;0.1187
0000721435;3.1053;3.3279;-2.7845;0.3171;-0.6420;0.0791
0000721443;2.8946;3.3998;-2.6384;0.3255;-0.7218;0.0345
0000721451;2.8539;3.4285;-2.2817;0.3251;-0.7841;0.0113
0000721459;2.9090;3.3758;-1.9872;0.3208;-0.8295;0.0052
0000721467;3.0957;3.3902;-1.9513;0.3328;-0.8334;0.0256
0000721475;3.2561;3.6464;-1.4006;0.3063;-0.8328;0.0633
0000721483;3.6392;4.3646;-0.3903;0.2302;-0.8579;0.0902
0000721491;4.7980;5.3678;0.6943;0.1198;-0.8624;0.0974
0000721499;6.5481;6.6990;1.7454;0.0071;-0.8144;0.0925
0000721507;8.4300;8.3318;2.5379;-0.0797;-0.7281;0.0554
0000721515;10.5393;9.8258;2.5307;-0.1631;-0.5638;0.0037
0000721524;11.7244;9.7636;2.5211;-0.2730;-0.3925;-0.0277
0000721532;11.1067;8.7819;2.6600;-0.4185;-0.2346;-0.0469
0000721541;8.7029;6.4643;3.5027;-0.5331;-0.1002;-0.0613
0000721550;6.6152;4.3934;3.6033;-0.5084;0.0226;-0.0649
0000721559;4.9201;2.8539;3.3136;-0.3824;0.0913;-0.0445
0000721568;3.8475;2.1213;3.0670;-0.2182;0.0837;-0.0007
0000721577;3.0933;2.3200;2.9568;-0.1077;-0.0028;0.0440
0000721586;2.9042;2.5809;2.9353;-0.0817;-0.1411;0.0689
0000721595;3.3926;3.2226;2.9401;-0.1150;-0.3424;0.0462
0000721604;4.1252;3.4333;2.8683;-0.2093;-0.5028;-0.0059
0000721613;5.2002;3.3567;2.8204;-0.3234;-0.6328;-0.0971
0000721622;5.9065;2.8970;2.7414;-0.4198;-0.7092;-0.2125
0000721631;6.7516;2.5690;2.5905;-0.4724;-0.7241;-0.3533
0000721640;7.3765;2.4038;2.2122;-0.4964;-0.6856;-0.4590
0000721649;8.1523;2.4205;1.8124;-0.5165;-0.6069;-0.5256
0000721658;8.5521;2.5714;1.6113;-0.5552;-0.4923;-0.5159
0000721667;9.0381;2.6528;1.6616;-0.5989;-0.3520;-0.4449
0000721676;9.7013;2.6528;1.6735;-0.5938;-0.1797;-0.3353
0000721685;10.1825;2.6001;1.7837;-0.5549;0.0238;-0.1892
0000721694;10.1849;2.4804;1.6807;-0.4674;0.2145;-0.0465
0000721703;9.5457;2.3200;1.4964;-0.3647;0.3826;0.0649
0000721712;8.6167;2.4900;1.3408;-0.2703;0.4896;0.1315
0000721798;6.0549;2.3655;1.0965;-0.1172;-0.0628;0.0261
0000721807;6.4811;2.4493;1.1947;-0.0993;-0.0709;0.0544
0000721816;6.7900;2.4301;1.1181;-0.0866;-0.0492;0.0878
0000721825;6.9312;2.3080;0.9457;-0.0653;-0.0135;0.0965
0000721834;6.8259;2.2027;0.8835;-0.0466;0.0396;0.0869
0000721843;7.1156;2.4517;0.9266;-0.0212;0.0751;0.0834
0000721852;6.6104;2.0518;1.0534;0.0116;0.1120;0.0954
0000721861;6.6894;2.4588;0.9577;0.0557;0.1282;0.1031
0000721870;6.6607;2.7988;0.8475;0.0910;0.1408;0.1142
0000721879;6.4476;2.7629;0.7877;0.1088;0.1454;0.1180
0000721888;6.2704;2.8850;0.6991;0.1138;0.1399;0.1035
0000721897;6.4476;3.1939;0.6105;0.0933;0.1391;0.0870
0000721906;6.3614;2.8730;0.6800;0.0909;0.1295;0.0570
0000721915;6.2776;2.6671;0.7183;0.0971;0.1347;0.0304
0000721924;6.1794;2.6695;0.6943;0.1083;0.1378;0.0211
0000721933;5.9376;2.5426;0.8021;0.1156;0.1350;0.0200
0000721942;5.7509;2.5522;0.8164;0.1310;0.1308;0.0237
0000721951;5.7557;2.4445;0.7302;0.1426;0.1203;0.0336
0000721960;5.6862;2.4229;0.5938;0.1536;0.1115;0.0470
0000721969;5.8610;2.6935;0.5938;0.1555;0.1071;0.0576
0000721978;6.2632;2.6647;0.5818;0.1503;0.1152;0.0622
0000721987;6.5146;2.8084;0.5052;0.1516;0.1366;0.0578
0000721996;6.7780;2.8036;0.4286;0.1302;0.1703;0.0633
0000722005;6.7708;2.7461;0.3400;0.1206;0.2068;0.0552
0000722014;6.6990;2.6073;0.2011;0.1078;0.2585;0.0624
0000722023;6.6463;2.8467;0.1724;0.1124;0.2975;0.0584
0000722032;6.5841;2.8299;0.1413;0.1224;0.3415;0.0637
0000722041;6.3135;2.9736;0.1820;0.1422;0.3487;0.0513
0000722050;5.9807;2.9975;0.2274;0.1347;0.3567;0.0370
0000722059;5.6814;2.7054;0.3304;0.1232;0.3541;-0.0007
0000722068;5.8107;2.7007;0.4908;0.1154;0.3505;-0.0406
0000722077;5.9376;2.4756;0.4788;0.1312;0.3487;-0.0842
0000722086;6.0190;2.1787;0.2466;0.1592;0.3617;-0.1219
0000722095;6.1124;2.3152;-0.0790;0.2141;0.3866;-0.1514
0000722104;6.2177;2.3894;-0.4621;0.2611;0.4249;-0.1693
0000722113;6.2848;2.5786;-0.7326;0.2847;0.4507;-0.1724
0000722122;6.6080;2.8850;-0.8811;0.2753;0.4778;-0.1565
0000722131;6.5697;2.8491;-0.6488;0.2538;0.4912;-0.1391
0000722140;6.2297;2.7892;-0.5387;0.2262;0.4999;-0.1336
0000722149;6.1124;3.1316;-0.5674;0.1939;0.4915;-0.1330
0000722158;5.6934;3.0550;-0.5100;0.1757;0.4558;-0.1632
0000722167;5.6144;3.2944;-0.5267;0.1296;0.4194;-0.2038
0000722176;5.5210;3.5195;-0.4669;0.0774;0.3688;-0.2378
0000722185;5.3750;3.4668;-0.5626;0.0187;0.3130;-0.2673
0000722194;5.3127;3.3591;-0.5507;-0.0222;0.2545;-0.2912
0000722203;5.5043;3.0670;-0.5483;-0.0400;0.1787;-0.2934
0000722212;5.6503;3.0430;-0.4501;-0.0600;0.1163;-0.2817
0000722221;5.7485;3.0167;-0.1987;-0.0779;0.0610;-0.2530
0000722230;6.0238;3.0789;0.0239;-0.1063;0.0346;-0.2184
0000722239;6.0406;2.9377;0.3184;-0.1286;0.0123;-0.1986
0000722248;6.1866;2.7749;0.1508;-0.1512;0.0281;-0.1763
0000722257;6.4356;2.6169;0.0455;-0.1677;0.0429;-0.1761
0000722266;6.5266;2.2266;-0.1556;-0.1636;0.0709;-0.1595
0000722275;7.0030;1.9441;-0.4501;-0.1232;0.0926;-0.1494
0000722284;7.2760;1.6831;-0.8930;-0.0871;0.1268;-0.1218
0000722293;7.4771;1.4676;-1.0774;-0.0258;0.1472;-0.1111
0000722302;7.7668;2.0853;-0.8499;-0.0005;0.1781;-0.1010
0000722311;7.5992;2.8778;-0.0215;-0.0294;0.1920;-0.1067
0000722320;6.5697;3.9959;1.2115;-0.0946;0.1743;-0.0942
0000722329;4.5753;5.6455;2.3032;-0.1495;0.1053;-0.0536
0000722338;1.3264;7.5130;2.9066;-0.1568;-0.0317;0.0750
0000722347;-1.7071;9.3134;3.3016;-0.1847;-0.2278;0.2842
0000722356;-2.7653;9.0884;3.1747;-0.3015;-0.5188;0.4550
0000722365;-0.3759;7.0342;2.0279;-0.4102;-0.8043;0.4894
0000722374;3.5410;4.6974;0.5722;-0.4309;-0.9895;0.4017
0000722383;6.6870;3.5913;0.4190;-0.3445;-1.0682;0.2505
0000722392;9.0501;3.9385;0.5052;-0.2281;-0.9879;0.0990
0000722401;10.6566;4.6807;0.7350;-0.1130;-0.8009;-0.0430
0000722410;11.5999;5.6048;1.1851;-0.0633;-0.5387;-0.1239
0000722419;11.6622;6.1627;1.2067;-0.0803;-0.2838;-0.1474
0000722428;10.8816;6.2513;1.5514;-0.1548;-0.0629;-0.0853
0000722437;9.3829;5.7437;1.9752;-0.2282;0.1079;-0.0071
0000722446;7.7620;5.0685;2.5331;-0.2830;0.2341;0.0621
0000722455;5.9424;4.3886;2.7725;-0.3235;0.3176;0.1019
0000722543;4.9129;1.8603;2.4708;-0.0969;-0.0067;-0.0147
0000722552;4.7405;1.9345;2.1763;-0.0546;-0.0389;-0.0173
0000722561;4.4173;1.7957;1.9920;-0.0377;-0.0600;-0.0302
0000722570;4.3742;1.6400;1.8555;-0.0204;-0.0865;-0.0597
0000722579;4.5538;1.8268;1.7478;-0.0039;-0.0966;-0.0710
0000722588;4.3455;1.7813;1.6688;0.0137;-0.1180;-0.0897
0000722597;4.4053;1.7047;1.7286;0.0238;-0.1522;-0.0910
0000722606;4.4580;1.5754;1.8531;0.0329;-0.1901;-0.0833
0000722615;4.4556;1.3336;1.9178;0.0574;-0.2401;-0.0882
0000722624;4.5490;1.4820;2.0039;0.0697;-0.2697;-0.0801
0000722633;4.7333;1.5323;2.1524;0.0834;-0.3087;-0.0910
0000722642;4.8602;1.5921;2.0782;0.0863;-0.3194;-0.0965
0000722651;4.9344;1.8771;1.7142;0.0819;-0.3293;-0.1074
0000722660;5.2481;2.1979;1.6664;0.0614;-0.3267;-0.1124
0000722669;5.5115;2.5474;1.7047;0.0140;-0.3072;-0.1050
0000722678;5.7174;2.8252;1.8052;-0.0157;-0.2805;-0.0981
0000722687;6.1483;2.7533;1.6831;-0.0398;-0.2280;-0.0749
0000722696;5.9352;2.6073;1.6065;-0.0434;-0.1825;-0.0718
0000722705;5.7581;2.5833;1.4676;-0.0576;-0.1298;-0.0473
0000722714;5.5043;2.4038;1.6305;-0.0616;-0.1131;-0.0402
0000722723;4.8004;2.1069;1.7047;-0.0689;-0.1124;-0.0252
0000722732;4.5562;2.0877;1.6185;-0.0554;-0.1463;-0.0216
0000722741;4.4436;2.0518;1.5562;-0.0364;-0.1771;-0.0072
0000722750;4.3383;1.7262;1.3575;0.0128;-0.2346;-0.0024
0000722759;4.3622;1.7980;1.0942;0.0532;-0.2813;0.0253
0000722768;4.5011;1.7693;0.9673;0.0941;-0.3367;0.0393
0000722777;4.8291;2.0806;0.7542;0.1180;-0.3810;0.0654
0000722786;4.9392;2.2793;0.5507;0.1476;-0.4165;0.0783
0000722795;5.0398;2.4397;0.2586;0.1528;-0.4381;0.0878
0000722804;5.2816;2.7366;0.1197;0.1532;-0.4736;0.0770
0000722813;5.3870;2.5043;0.0838;0.1294;-0.4896;0.0818
0000722822;5.5545;2.2625;0.2849;0.1359;-0.5187;0.0710
0000722831;5.3271;1.8076;0.3304;0.1592;-0.5239;0.0578
0000722840;5.4085;1.6376;0.3041;0.2080;-0.5344;0.0461
0000722849;5.3606;1.5107;0.1915;0.2670;-0.5456;0.0405
0000722858;5.0949;1.6041;0.3352;0.3031;-0.5484;0.0645
0000722867;5.3510;2.2314;0.2418;0.3292;-0.5697;0.0763
0000722876;5.0015;2.4565;0.1341;0.3339;-0.5778;0.0957
0000722885;5.1140;3.1771;0.0742;0.3260;-0.5923;0.0919
0000722894;5.1834;3.4692;-0.0311;0.3024;-0.6034;0.0843
0000722903;4.9584;3.4788;-0.0335;0.2855;-0.6126;0.0661
0000722912;4.8339;3.3758;-0.0192;0.2742;-0.6071;0.0497
0000722921;4.9847;3.2848;-0.0958;0.2813;-0.5887;0.0389
0000722930;4.9081;2.7701;-0.1652;0.3204;-0.5802;0.0185
0000722939;4.7549;2.3918;-0.2370;0.3637;-0.5733;0.0088
0000722948;4.8100;2.4349;-0.2394;0.4013;-0.5644;0.0023
0000722957;4.7645;2.5402;-0.2538;0.4253;-0.5592;-0.0061
0000722966;4.7908;2.5905;-0.4741;0.4343;-0.5561;-0.0080
0000722975;5.0254;2.7509;-0.7302;0.4461;-0.5497;-0.0124
0000722984;5.2026;3.0598;-0.7374;0.4191;-0.5413;-0.0107
0000722993;5.1691;3.1675;-0.5171;0.3829;-0.5323;-0.0117
0000723002;5.2074;3.5147;-0.5339;0.3349;-0.5323;-0.0386
0000723011;5.0350;3.5769;-0.3496;0.2771;-0.5159;-0.0609
0000723020;5.3989;3.8523;-0.3831;0.2256;-0.5016;-0.0829
0000723029;5.3103;3.5458;-0.3328;0.1832;-0.4752;-0.0910
0000723038;5.6288;3.6152;-0.4118;0.1456;-0.4366;-0.0886
0000723047;5.5498;3.4333;-0.4501;0.1370;-0.3897;-0.0913
0000723056;5.7150;3.6272;-0.4022;0.1127;-0.3183;-0.0886
0000723065;5.7174;3.7086;-0.5339;0.0794;-0.2519;-0.1042
0000723074;5.9759;3.9241;-0.6752;0.0326;-0.1897;-0.1280
0000723083;6.1962;4.0534;-1.0630;-0.0109;-0.1268;-0.1358
0000723092;6.1196;4.0103;-1.3479;-0.0533;-0.0758;-0.1252
0000723101;5.5498;3.8810;-1.4629;-0.0829;-0.0580;-0.1054
0000723110;4.9680;3.9600;-1.4078;-0.1051;-0.0725;-0.0877
0000723119;4.2928;4.3479;-1.0726;-0.1382;-0.1013;-0.0686
0000723128;3.8140;4.7573;-1.0175;-0.1488;-0.1825;-0.0755
0000723137;3.5674;5.3630;-0.8284;-0.1716;-0.2561;-0.1102
0000723146;3.6583;6.1986;-0.4238;-0.2144;-0.3202;-0.1915
0000723155;4.1156;6.5266;0.1413;-0.2598;-0.3600;-0.2769
0000723164;4.6280;6.4189;0.6416;-0.2835;-0.3675;-0.3577
0000723173;5.9664;6.3758;0.7829;-0.2723;-0.3433;-0.3926
0000723182;6.8857;6.0501;0.5890;-0.2399;-0.2852;-0.3444
0000723270;5.1332;2.5402;2.6217;0.2068;-0.9130;-0.1800
0000723279;5.5689;2.3320;2.4397;0.1591;-0.9233;-0.2258
0000723288;6.3949;2.2769;2.3583;0.0990;-0.9224;-0.2641
0000723297;6.9288;2.1524;2.3990;0.0333;-0.8883;-0.2930
0000723306;7.4939;2.1859;2.3966;-0.0364;-0.8458;-0.3076
0000723315;7.8362;2.1332;2.3846;-0.0953;-0.7790;-0.3063
0000723324;8.1570;2.1979;2.2936;-0.1271;-0.7069;-0.3043
0000723333;8.4467;2.2362;2.2098;-0.1484;-0.6094;-0.2795
0000723342;8.2720;2.2075;2.1165;-0.1419;-0.5324;-0.2450
0000723351;7.9104;2.1955;2.0063;-0.1215;-0.4582;-0.1773
0000723360;7.3670;2.1093;2.0375;-0.0851;-0.4108;-0.1222
0000723369;6.9336;2.3750;1.9321;-0.0425;-0.3738;-0.0739
0000723378;6.3686;2.5762;1.7813;0.0120;-0.3632;-0.0485
0000723387;6.1435;2.6815;1.5083;0.0441;-0.3484;-0.0289
0000723396;5.8826;2.8491;1.2378;0.0608;-0.3405;-0.0217
0000723405;6.1914;3.1867;1.1109;0.0533;-0.3357;-0.0298
0000723414;6.5481;3.2896;0.9864;0.0321;-0.3268;-0.0410
0000723423;6.6415;3.1867;0.8930;0.0117;-0.3026;-0.0502
0000723432;6.9384;3.1747;0.9361;0.0053;-0.2860;-0.0655
0000723441;7.1682;3.2489;1.0989;-0.0207;-0.2582;-0.0715
0000723450;7.1587;3.0239;1.2594;-0.0213;-0.2361;-0.0881
0000723459;7.0509;2.7198;0.9122;-0.0141;-0.1864;-0.0981
0000723468;6.7780;2.8060;0.7853;0.0113;-0.1480;-0.1262
0000723477;6.3758;2.8587;0.8260;0.0177;-0.1142;-0.1560
0000723486;6.0094;2.7749;0.8691;0.0108;-0.1142;-0.2044
0000723495;5.7341;2.6049;0.6416;0.0028;-0.1168;-0.2180
0000723504;5.6264;2.1261;0.5219;0.0173;-0.1304;-0.2205
0000723513;5.4947;1.9058;0.5962;0.0353;-0.1295;-0.1957
0000723522;5.4612;1.7023;0.6895;0.0718;-0.1324;-0.1797
0000723531;5.5474;2.1213;0.7590;0.0962;-0.1092;-0.1661
0000723540;5.9448;2.1955;0.6632;0.1188;-0.0903;-0.1688
0000723549;6.3398;1.9632;0.5124;0.1088;-0.0528;-0.1510
0000723558;7.1156;1.6209;0.5914;0.1021;-0.0364;-0.1348
0000723567;7.5729;1.3767;0.4477;0.1308;-0.0242;-0.1282
0000723576;7.8506;1.6185;0.8835;0.2049;-0.0128;-0.1693
0000723585;7.9847;2.5450;1.2234;0.2900;0.0296;-0.2551
0000723594;8.0110;3.6607;1.4988;0.2583;0.1279;-0.3072
0000723603;7.4244;3.7996;1.7358;0.1486;0.2370;-0.3010
0000723612;7.1467;2.9113;1.9273;0.0701;0.3451;-0.2418
0000723621;7.5417;1.9704;1.8579;0.0505;0.4582;-0.1651
0000723630;7.9751;1.6376;1.4676;0.1063;0.5405;-0.0548
0000723639;7.8937;2.3607;1.1660;0.1856;0.6139;0.0453
0000723648;7.4699;3.4692;1.1732;0.1865;0.6751;0.1279
0000723657;6.8019;4.1779;1.3336;0.1150;0.7248;0.1763
0000723666;6.1124;4.0007;1.4150;0.0246;0.7690;0.1944
0000723675;5.8538;3.2513;1.6281;-0.0188;0.8208;0.1881
0000723684;5.6623;2.5331;1.5969;0.0192;0.8807;0.1615
0000723693;5.6216;2.4493;1.5586;0.1037;0.9441;0.1198
0000723702;5.9185;2.9568;1.3001;0.1443;0.9785;0.0869
0000723711;6.4787;3.8164;1.1037;0.1023;0.9922;0.0843
0000723720;6.8594;3.6105;0.7494;0.0550;0.9918;0.1148
0000723729;6.9647;3.1532;0.4645;0.0245;0.9915;0.1664
0000723738;7.0126;2.7438;0.2346;0.0313;0.9870;0.2137
0000723747;7.1060;2.6001;-0.1030;0.0340;0.9860;0.2573
0000723756;6.5457;2.4900;-0.1389;0.0488;0.9800;0.2562
0000723765;6.0262;2.3367;-0.5818;0.0709;0.9723;0.2205
0000723774;6.0166;2.0662;-0.7661;0.0845;0.9754;0.1775
0000723783;6.3351;1.7262;-0.9122;0.1062;0.9976;0.1319
0000723792;6.9528;1.6328;-1.1875;0.1430;1.0584;0.0883
0000723801;7.5657;1.1492;-1.6520;0.1772;1.1518;0.0754
0000723810;7.8243;0.1317;-1.6544;0.2268;1.2453;0.0786
0000723819;7.8362;-0.5626;-1.5945;0.2915;1.3243;0.1295
0000723828;7.6806;-0.8188;-1.4557;0.3545;1.3636;0.2121
0000723837;6.7876;-1.0942;-1.2210;0.3601;1.3494;0.3222
0000723846;6.2968;-1.2258;-1.0870;0.3300;1.3063;0.4201
0000723855;5.3702;-1.6879;-1.1923;0.2785;1.2761;0.4883
0000723864;4.9584;-1.6472;-1.1013;0.2389;1.2578;0.5183
0000723873;4.3024;-0.9026;1.4126;0.1736;1.2461;0.5247
0000723882;2.1500;1.7454;4.8770;0.0851;1.1138;0.5674
0000723891;-1.5490;5.5593;6.8690;0.1154;0.7338;0.7244
0000723900;-3.8595;10.1466;5.9376;0.2943;0.3067;0.9154
0000723909;-0.1604;11.1019;3.8020;0.1736;0.1871;0.8603
0000723918;5.3702;8.8298;2.3535;-0.0670;0.2310;0.5510
0000723927;8.6550;6.4811;0.6776;-0.2358;0.4700;0.1976
0000724014;1.2522;3.0526;1.0534;-0.5654;0.4622;-0.1545
0000724023;2.6959;2.4253;1.3503;-0.5445;0.3665;-0.3055
0000724032;4.2090;2.3631;1.6041;-0.5590;0.3095;-0.4090
0000724041;5.7341;2.7821;1.8196;-0.5812;0.3123;-0.4293
0000724050;7.2784;3.2130;1.4509;-0.5490;0.3497;-0.4104
0000724059;8.1163;3.4596;0.8835;-0.4836;0.4246;-0.3758
0000724068;8.1116;3.7278;0.1484;-0.3922;0.4983;-0.3364
0000724077;7.3933;4.2282;-0.7614;-0.3080;0.5364;-0.3269
0000724086;5.9735;4.8363;-1.3001;-0.2879;0.5484;-0.3094
0000724095;4.5131;5.0350;-1.4006;-0.3226;0.4968;-0.3151
0000724104;3.5721;4.9464;-1.5036;-0.4036;0.4110;-0.3443
0000724113;3.3136;4.2353;-1.3886;-0.4656;0.3070;-0.3762
0000724122;3.5985;3.3854;-1.2929;-0.5055;0.2156;-0.3873
0000724131;4.1707;2.8347;-1.2857;-0.4790;0.1132;-0.3886
0000724140;4.8363;2.4924;-1.4341;-0.4571;0.0445;-0.3734
0000724149;5.5881;2.3942;-1.4269;-0.4265;-0.0340;-0.3616
0000724158;6.1675;2.8156;-1.5060;-0.3966;-0.0741;-0.3551
0000724167;6.1938;3.0071;-1.6400;-0.3663;-0.1104;-0.3637
0000724176;6.2010;3.7014;-1.4653;-0.3477;-0.1693;-0.3734
0000724185;5.7940;3.9744;-1.5227;-0.3424;-0.2317;-0.3619
0000724194;5.3726;4.0582;-1.4413;-0.3299;-0.3044;-0.3335
0000724203;5.1595;4.1803;-1.1181;-0.3441;-0.3544;-0.2745
0000724212;5.1834;4.2425;-0.3567;-0.3776;-0.4097;-0.2290
0000724221;5.5091;3.8331;0.0670;-0.4092;-0.4314;-0.1747
0000724230;6.1699;3.5099;0.3256;-0.4287;-0.4474;-0.1327
0000724239;6.9121;3.2848;0.8092;-0.4315;-0.4367;-0.0862
0000724248;7.7117;3.4093;0.9864;-0.4357;-0.4077;-0.0609
0000724257;7.8195;3.4860;1.3312;-0.4357;-0.3627;-0.0546
0000724266;7.6064;3.7254;1.6257;-0.4501;-0.3171;-0.0588
0000724275;7.2113;3.9696;1.8890;-0.4557;-0.2758;-0.0594
0000724284;6.2632;3.7876;1.9776;-0.4435;-0.2394;-0.0449
0000724293;5.4372;3.7517;1.8986;-0.3864;-0.2316;-0.0380
0000724302;4.6040;3.5171;1.7957;-0.3018;-0.2394;-0.0276
0000724311;4.0223;3.4572;1.2354;-0.2260;-0.2822;-0.0232
0000724320;3.9193;3.4093;1.1612;-0.1673;-0.3376;-0.0230
0000724329;3.8140;2.9760;0.9529;-0.1346;-0.3906;-0.0297
0000724338;3.6248;2.6001;0.8452;-0.1014;-0.4457;-0.0416
0000724347;3.5123;2.3032;0.9601;-0.1067;-0.4764;-0.0444
0000724356;3.6081;2.3176;1.0918;-0.1116;-0.5049;-0.0530
0000724365;3.7326;2.1428;1.1995;-0.1216;-0.5188;-0.0566
0000724374;3.7852;1.7549;1.3216;-0.1350;-0.5387;-0.0666
0000724383;4.0031;1.6975;1.3623;-0.1412;-0.5516;-0.0685
0000724392;4.1587;1.7262;1.2641;-0.1415;-0.5649;-0.0875
0000724401;4.3407;1.3671;1.0989;-0.1495;-0.5698;-0.1091
0000724410;4.5226;1.5754;0.9888;-0.1462;-0.5624;-0.1355
0000724419;4.7214;1.6592;1.0247;-0.1487;-0.5501;-0.1525
0000724428;4.6400;1.8196;1.1277;-0.1356;-0.5517;-0.1635
0000724437;4.4963;2.0016;1.3168;-0.1158;-0.5573;-0.1703
0000724446;4.5059;1.8268;1.3001;-0.0846;-0.5518;-0.1720
0000724455;4.3934;1.8507;1.2570;-0.0228;-0.5553;-0.1892
0000724464;4.4580;1.6712;0.9050;0.0433;-0.5462;-0.2118
0000724473;4.3527;1.6472;0.5531;0.0843;-0.5335;-0.2182
0000724482;4.7884;1.9656;0.3352;0.1005;-0.5323;-0.2378
0000724491;5.0757;2.1069;0.2634;0.1061;-0.5428;-0.2344
0000724500;5.1571;2.0399;0.5626;0.1010;-0.5396;-0.2197
0000724509;5.1212;2.0470;0.7398;0.1046;-0.5540;-0.2096
0000724518;5.2888;2.1691;0.8954;0.1175;-0.5415;-0.1943
0000724527;5.2529;2.0925;1.0439;0.1399;-0.5291;-0.1863
0000724536;5.1739;2.3894;1.1947;0.1472;-0.4942;-0.1857
0000724545;5.2385;2.3320;1.1779;0.1495;-0.4660;-0.1741
0000724554;5.3103;1.9824;1.0439;0.1423;-0.4218;-0.1593
0000724563;5.6096;2.0399;1.1181;0.1504;-0.3732;-0.1254
0000724572;5.6575;1.7334;1.0295;0.1685;-0.3352;-0.1018
0000724581;5.3989;1.8699;0.8116;0.1949;-0.3012;-0.0949
0000724590;5.3678;2.2505;0.7709;0.2086;-0.2691;-0.0938
0000724599;4.7094;2.2649;0.7494;0.2172;-0.2495;-0.1090
0000724608;4.4125;2.6528;0.6249;0.2228;-0.2550;-0.1300
0000724617;4.2665;2.8419;0.5219;0.2120;-0.2735;-0.1448
0000724626;4.1204;2.9449;0.7015;0.1856;-0.3028;-0.1443
0000724635;4.3263;2.9975;0.7135;0.1739;-0.3399;-0.1491
0000724644;4.1994;2.7629;0.6632;0.1723;-0.3734;-0.1548
0000724653;4.2713;2.5546;0.6081;0.1716;-0.3850;-0.1504
0000724740;3.6320;2.6576;-0.0599;0.1599;-0.5533;-0.0011
0000724749;3.6559;2.7366;-0.0862;0.1672;-0.5582;0.0041
0000724758;3.7445;2.5379;-0.1652;0.1707;-0.5754;0.0085
0000724767;3.8762;2.5642;-0.3711;0.1793;-0.5789;0.0348
0000724776;4.1587;2.7988;-0.5076;0.1941;-0.5778;0.0564
0000724785;4.4604;3.1053;-0.5914;0.1823;-0.5798;0.0871
0000724794;4.7501;3.3184;-0.5124;0.1657;-0.5991;0.0833
0000724803;5.0087;3.4453;-0.3687;0.1262;-0.5999;0.0842
0000724812;5.1906;3.5721;0.0024;0.0955;-0.5993;0.0791
0000724821;5.1571;3.4046;0.0622;0.0853;-0.5910;0.0690
0000724830;5.3989;3.3806;0.0718;0.0793;-0.5497;0.0657
0000724839;5.1739;3.0023;-0.1413;0.1003;-0.4984;0.0388
0000724848;5.3870;3.2274;-0.1030;0.1079;-0.4161;0.0088
0000724857;5.4109;3.1436;-0.1101;0.1102;-0.3289;-0.0418
0000724866;5.6838;3.1651;-0.3448;0.0921;-0.2214;-0.0612
0000724875;5.8826;2.8443;-0.6440;0.1104;-0.1460;-0.0592
0000724884;5.6264;2.6839;-1.1205;0.1303;-0.0829;-0.0071
0000724893;5.1068;2.1069;-1.2929;0.1787;-0.0747;0.0616
0000724902;4.4341;2.1213;-1.5586;0.2344;-0.1138;0.1287
0000724911;3.7541;2.3415;-1.6065;0.2801;-0.1836;0.1880
0000724920;2.8706;2.4086;-1.8866;0.3011;-0.3036;0.2318
0000724929;1.9034;2.7677;-1.8052;0.2852;-0.4454;0.2595
0000724938;1.6807;3.8211;-1.0223;0.2242;-0.6058;0.2658
0000724947;2.4972;5.6096;0.5794;0.0998;-0.7418;0.2469
0000724956;3.7565;7.2042;1.6927;-0.0120;-0.8343;0.1982
0000724965;6.0142;8.0637;1.8627;-0.0734;-0.8820;0.1127
0000724974;8.1547;8.3103;1.8507;-0.1737;-0.8468;0.0677
0000724983;9.1554;7.2592;2.2051;-0.2726;-0.7589;0.0661
0000724992;9.5241;5.9280;2.5163;-0.3190;-0.6091;0.0885
0000725001;9.5624;4.4676;2.6073;-0.2855;-0.4391;0.1033
0000725010;8.5066;3.0311;2.1380;-0.1969;-0.2489;0.1344
0000725019;7.1204;2.0710;1.4198;-0.0929;-0.1075;0.1847
0000725028;5.5761;1.5538;0.9290;0.0155;-0.0338;0.2778
0000725037;4.2210;1.6927;0.5986;0.1315;-0.0457;0.3695
0000725046;3.0335;1.8052;0.6991;0.2685;-0.1159;0.4175
0000725055;2.3343;2.3080;0.9242;0.3884;-0.2109;0.4214
0000725064;2.5019;2.8898;1.2905;0.4716;-0.3183;0.3595
0000725073;3.7852;3.2896;1.3384;0.4743;-0.4045;0.2802
0000725082;5.2313;3.5314;1.6664;0.4016;-0.4630;0.2118
0000725091;6.9288;4.1851;2.4948;0.2902;-0.4815;0.1628
0000725100;8.2720;4.4293;2.4804;0.2070;-0.4835;0.1123
0000725109;8.9232;3.9552;2.3679;0.1432;-0.4403;0.0646
0000725118;9.6031;3.9121;2.2913;0.0863;-0.4012;0.0172
0000725127;9.1028;3.4333;2.3439;0.0244;-0.3569;0.0027
0000725136;8.0589;3.0765;2.2673;-0.0143;-0.3419;-0.0107
0000725145;6.8402;2.7054;2.3631;-0.0215;-0.3396;-0.0188
0000725154;5.6479;2.4445;2.3343;-0.0005;-0.3459;-0.0252
0000725163;4.6424;2.2242;2.4062;0.0584;-0.3656;-0.0450
0000725172;4.0917;1.9465;2.1021;0.1092;-0.3758;-0.0628
0000725181;4.1324;2.0063;2.2314;0.1591;-0.3881;-0.0625
0000725190;4.8004;2.0566;1.9369;0.1912;-0.3804;-0.0667
0000725199;5.5306;2.2865;1.9680;0.1943;-0.3571;-0.0638
0000725208;6.4260;2.8323;1.8483;0.1941;-0.3395;-0.0805
0000725217;7.4053;3.1077;1.7597;0.1656;-0.2995;-0.0823
0000725226;8.2384;3.4548;1.5802;0.1282;-0.2629;-0.0705
0000725235;8.8322;3.4931;1.4629;0.0906;-0.2140;-0.0628
0000725244;8.8250;3.1053;1.2522;0.0549;-0.1676;-0.0574
0000725253;8.4922;2.7150;1.0918;0.0234;-0.1027;-0.0560
0000725262;8.0828;2.3343;0.9242;0.0068;-0.0532;-0.0642
0000725271;7.4627;1.9752;0.6704;-0.0121;-0.0093;-0.0653
0000725280;7.0174;1.9130;0.4908;-0.0211;0.0234;-0.0606
0000725289;6.3398;1.8675;0.4549;-0.0076;0.0277;-0.0665
0000725298;5.8969;2.3655;0.4190;0.0040;0.0230;-0.0753
0000725307;5.3343;2.4493;0.6393;-0.0045;0.0005;-0.0803
0000725316;5.2337;2.8252;0.7207;-0.0226;-0.0358;-0.0981
0000725325;5.4300;3.0909;0.7709;-0.0385;-0.0652;-0.0962
0000725334;5.6982;3.0861;0.8308;-0.0405;-0.0869;-0.1116
0000725343;5.7820;2.8826;0.8452;-0.0127;-0.1070;-0.1335
0000725352;6.3446;2.6671;0.7422;0.0125;-0.0963;-0.1400
0000725361;6.5553;2.3870;0.5722;0.0498;-0.0809;-0.1588
0000725370;6.6726;2.2146;0.4812;0.0642;-0.0476;-0.1625
0000725379;7.0126;2.5833;0.2442;0.0637;-0.0124;-0.1605
0000725388;6.9408;2.6240;0.1101;0.0663;0.0141;-0.1633
0000725532;6.8354;3.0191;-0.3543;-0.1897;0.4656;-0.0849
0000725541;6.9049;3.0023;-0.2969;-0.1808;0.4991;-0.0865
0000725550;6.6224;2.9305;-0.3543;-0.1600;0.5300;-0.0791
0000725559;6.4500;2.7653;-0.5866;-0.1335;0.5438;-0.0703
0000725568;6.2800;2.6719;-0.4453;-0.1095;0.5598;-0.0404
0000725577;6.0454;2.6791;-0.5411;-0.0813;0.5562;-0.0220
0000725586;5.9951;2.6288;-0.6321;-0.0636;0.5474;-0.0065
0000725595;5.8083;2.4062;-0.7661;-0.0478;0.5361;-0.0001
0000725604;5.8754;2.4421;-0.7925;-0.0477;0.5283;-0.0071
0000725613;5.9424;2.5283;-0.8380;-0.0466;0.5207;-0.0232
0000725622;6.1818;2.6240;-0.9050;-0.0701;0.5221;-0.0318
0000725631;6.2800;2.8922;-0.7350;-0.1026;0.5176;-0.0605
0000725640;6.3039;2.8491;-0.4908;-0.1384;0.5137;-0.0803
0000725649;6.2273;2.9616;-0.4190;-0.1773;0.5105;-0.0970
0000725658;5.9640;2.8706;-0.2634;-0.2001;0.4900;-0.1199
0000725667;5.8275;2.9832;-0.1245;-0.2250;0.4699;-0.1256
0000725676;5.5545;3.0694;-0.0862;-0.2447;0.4253;-0.1376
0000725685;5.3917;2.9185;-0.2753;-0.2645;0.3852;-0.1427
0000725694;5.3606;2.8491;-0.3807;-0.2794;0.3541;-0.1601
0000725703;5.4061;2.4636;-0.6656;-0.2767;0.3279;-0.1663
0000725712;5.4516;2.0135;-1.0487;-0.2384;0.3134;-0.1751
0000725721;5.6671;1.6664;-1.4293;-0.1904;0.3248;-0.1683
0000725730;6.0310;1.6209;-1.5993;-0.1163;0.3389;-0.1563
0000725739;6.0071;1.8483;-1.1779;-0.0616;0.3625;-0.1470
0000725748;6.1339;2.7940;-0.1556;-0.0508;0.3858;-0.1239
0000725757;5.5498;3.7110;0.7757;-0.0175;0.3757;-0.1055
0000725766;4.5562;4.8363;1.6568;0.0055;0.3399;-0.0412
0000725775;3.0957;6.0813;2.7270;0.0183;0.2505;0.0624
0000725784;1.7430;7.0318;3.4405;-0.0285;0.1223;0.1908
0000725793;0.9170;7.5633;3.5243;-0.1744;-0.0501;0.3195
0000725802;0.7781;6.9312;3.5530;-0.3877;-0.2364;0.3813
0000725811;2.2769;5.4468;3.2825;-0.5841;-0.3925;0.3850
0000725820;4.7094;3.8595;3.0765;-0.6924;-0.4767;0.3152
0000725829;7.0366;2.8180;3.0909;-0.7189;-0.4309;0.2178
0000725838;9.2273;3.1292;3.0382;-0.6817;-0.2860;0.0958
0000725847;10.9367;3.8930;2.8683;-0.6223;-0.0830;-0.0169
0000725856;11.4682;4.4053;2.6288;-0.5907;0.1671;-0.0985
0000725865;11.2408;4.4628;2.3343;-0.5730;0.4153;-0.1360
0000725874;9.7157;3.8738;2.4588;-0.5188;0.6531;-0.1372
0000725883;7.6255;3.2034;2.6073;-0.4293;0.8392;-0.1053
0000725892;5.6431;3.2489;2.5235;-0.3262;0.9527;-0.0428
0000725901;3.7757;3.2034;2.5474;-0.2205;0.9779;0.0310
0000725910;2.0303;3.2394;2.3846;-0.1540;0.9527;0.1342
0000725919;1.0271;3.2896;2.3248;-0.1203;0.8665;0.2030
0000725928;0.6129;2.7174;1.9680;-0.1240;0.7572;0.2578
0000725937;0.9337;2.1356;1.7358;-0.1339;0.6085;0.2615
0000725946;1.6616;1.8938;1.5083;-0.1444;0.4636;0.2426
0000725955;2.5714;1.5610;1.4653;-0.1342;0.3088;0.1956
0000725964;3.4309;1.7765;1.4820;-0.1144;0.1887;0.1451
0000725973;4.0797;1.8794;1.5634;-0.0910;0.0927;0.0942
0000725982;4.5777;2.0997;1.6209;-0.0606;-0.0007;0.0338
0000725991;4.7836;2.0351;1.5945;-0.0417;-0.0376;-0.0201
0000726000;4.9560;2.1979;1.4772;-0.0183;-0.0659;-0.0855
0000726009;4.7692;2.1572;1.8028;-0.0127;-0.0683;-0.1398
0000726018;4.6519;2.1883;1.9369;-0.0019;-0.0557;-0.1723
0000726027;4.4341;2.1165;1.9106;0.0028;-0.0281;-0.1897
0000726036;4.3646;2.1213;2.0087;0.0132;-0.0025;-0.1793
0000726045;4.2018;2.0734;1.9058;0.0056;0.0302;-0.1506
0000726054;4.6208;1.9800;1.7717;0.0197;0.0529;-0.1227
0000726063;4.5993;1.7023;1.7262;0.0316;0.0798;-0.0906
0000726072;4.8243;1.7933;1.5538;0.0640;0.1025;-0.0649
0000726081;4.8363;1.6400;1.3503;0.0906;0.1184;-0.0558
0000726090;5.1332;1.8747;1.0798;0.1222;0.1363;-0.0486
0000726099;5.0781;2.0590;1.0151;0.1436;0.1519;-0.0408
0000726108;4.9201;2.4301;1.0654;0.1487;0.1605;-0.0382
0000726117;4.7094;2.7174;1.1660;0.1468;0.1480;-0.0450
0000726126;4.6040;2.9904;1.3862;0.1295;0.1475;-0.0330
0000726135;4.4939;3.1101;1.4341;0.1216;0.1247;-0.0350
0000726144;4.5945;3.2920;1.3934;0.1146;0.1263;-0.0258
0000726153;4.4891;3.2274;1.2833;0.1171;0.1071;-0.0272
0000726162;4.5849;2.9760;1.1253;0.1143;0.0969;-0.0289
0000726171;4.5873;2.8371;1.1013;0.1244;0.0915;-0.0246
0000726180;4.6855;2.7677;1.0702;0.1346;0.0834;-0.0297
0000726272;4.4652;2.2146;0.5411;0.0526;0.1540;0.0344
0000726281;4.5705;2.3822;0.5986;0.0570;0.1399;0.0449
0000726290;4.3790;2.4469;0.5890;0.0665;0.1096;0.0414
0000726299;4.1204;2.3966;0.5411;0.0663;0.0739;0.0385
0000726308;4.0917;2.4181;0.5722;0.0570;0.0489;0.0462
0000726317;3.9959;2.3272;0.5914;0.0601;0.0140;0.0449
0000726326;4.1420;2.6336;0.6225;0.0674;-0.0168;0.0454
0000726335;4.0917;2.6121;0.6057;0.0815;-0.0469;0.0454
0000726344;4.3981;2.7940;0.5818;0.0902;-0.0711;0.0466
0000726353;4.2042;2.7007;0.3543;0.0926;-0.0957;0.0502
0000726362;4.1204;2.7174;0.2251;0.0975;-0.1160;0.0464
0000726371;4.4197;2.9497;0.2203;0.0958;-0.1320;0.0516
0000726380;4.2234;2.7390;0.2346;0.0954;-0.1543;0.0500
0000726389;4.3144;2.6911;0.3615;0.0909;-0.1692;0.0520
0000726398;4.3048;2.6169;0.3448;0.0958;-0.1903;0.0518
0000726407;4.5657;2.6695;0.4621;0.1055;-0.2025;0.0606
0000726416;4.5993;2.5809;0.4022;0.1199;-0.2236;0.0533
0000726425;4.5705;2.5570;0.3065;0.1320;-0.2384;0.0533
0000726434;4.5873;2.6815;0.3065;0.1406;-0.2505;0.0510
0000726443;4.7908;2.6719;0.3328;0.1512;-0.2646;0.0401
0000726452;4.8554;2.5618;0.2035;0.1555;-0.2655;0.0329
0000726461;4.8507;2.6647;0.0144;0.1580;-0.2617;0.0244
0000726470;5.0494;2.8036;0.0910;0.1400;-0.2430;0.0179
0000726479;5.0661;2.8012;0.1796;0.1227;-0.2168;0.0119
0000726488;5.1284;2.7869;0.1532;0.1069;-0.1865;0.0168
0000726497;5.2936;3.0167;0.0431;0.1057;-0.1560;0.0257
0000726506;5.4324;3.0694;-0.0455;0.0965;-0.1140;0.0581
0000726515;5.3630;2.9640;0.0024;0.1001;-0.0867;0.0862
0000726524;5.2050;2.9066;-0.1030;0.0937;-0.0489;0.1223
0000726533;5.0230;2.9640;-0.2849;0.1096;-0.0265;0.1426
0000726542;4.7549;2.9113;-0.2969;0.1208;0.0049;0.1629
0000726551;4.5681;2.9999;-0.3256;0.1342;0.0140;0.1665
0000726560;4.6256;3.2370;-0.3903;0.1483;0.0229;0.1688
0000726569;4.4867;3.3303;-0.4764;0.1559;0.0313;0.1709
0000726578;4.3718;3.4764;-0.5100;0.1620;0.0209;0.1728
0000726587;4.3239;3.6990;-0.5267;0.1412;0.0173;0.1795
0000726596;4.1851;3.5889;-0.5818;0.1286;-0.0120;0.1715
0000726605;4.2162;3.6224;-0.4597;0.1027;-0.0290;0.1649
0000726614;4.4700;3.4309;-0.5650;0.0882;-0.0477;0.1597
0000726623;4.6711;3.1532;-0.4334;0.0814;-0.0699;0.1440
0000726632;4.8770;2.9616;-0.5459;0.0819;-0.0873;0.1195
0000726641;5.0302;2.8922;-0.5052;0.0905;-0.0953;0.1047
0000726650;5.0398;2.8276;-0.4860;0.0878;-0.0873;0.1034
0000726659;4.8291;2.3367;-0.5890;0.1037;-0.0803;0.0882
0000726668;4.6687;2.3367;-0.7614;0.1138;-0.0442;0.0747
0000726677;4.4676;2.4493;-0.6105;0.1219;-0.0127;0.0570
0000726686;4.3934;3.3591;0.1604;0.0739;0.0139;0.0470
0000726695;4.7956;4.4173;1.0965;0.0115;0.0116;0.0380
0000726704;5.8083;5.7126;1.6640;-0.0577;0.0344;0.0204
0000726713;6.5027;6.7564;2.1739;-0.0990;0.0814;-0.0356
0000726722;7.0318;7.0533;2.2625;-0.1571;0.1724;-0.0862
0000726731;7.1491;6.4476;2.1428;-0.2077;0.2653;-0.1242
0000726740;7.0294;4.8411;1.6975;-0.2166;0.3700;-0.1266
0000726749;6.0142;2.9113;1.4246;-0.1398;0.4651;-0.1062
0000726758;4.8914;1.7645;1.0654;-0.0001;0.5469;-0.0653
0000726767;3.9169;1.2474;0.7566;0.1311;0.5842;-0.0175
0000726776;3.0718;1.4676;0.7973;0.1872;0.5734;0.0358
0000726785;2.8826;1.9656;1.0534;0.2177;0.4966;0.0711
0000726794;3.1220;2.7054;1.4126;0.2062;0.4088;0.0937
0000726803;3.4692;3.2801;1.7478;0.1962;0.3008;0.0838
0000726812;4.3598;4.1611;2.2122;0.1629;0.2177;0.0532
0000726821;5.0637;4.4436;2.1787;0.1158;0.1380;0.0057
0000726830;6.0286;4.2593;2.1668;0.0895;0.0741;-0.0420
0000726839;6.5122;3.7589;2.0638;0.0745;0.0385;-0.0813
0000726848;6.9049;3.1220;1.9513;0.0826;0.0129;-0.1123
0000726857;7.2281;2.8443;1.8459;0.0862;0.0123;-0.1383
0000726866;7.1874;2.5618;1.8411;0.0685;0.0348;-0.1611
0000726875;7.2401;2.5714;1.6640;0.0425;0.0613;-0.1771
0000726884;6.8474;2.4684;1.7119;-0.0019;0.0995;-0.1725
0000726893;6.5864;2.7294;1.8364;-0.0437;0.1464;-0.1603
0000726902;6.3734;2.9592;1.8124;-0.0757;0.1757;-0.1332
0000726911;6.2201;3.1220;1.7717;-0.1103;0.2184;-0.0970
0000726920;5.9687;3.0981;1.7741;-0.1099;0.2550;-0.0673
0000726929;6.2177;3.3064;1.7430;-0.0998;0.2950;-0.0433
0000726938;6.3327;3.4046;1.5083;-0.0811;0.3256;-0.0244
0000727026;5.4133;2.7509;0.9625;-0.1522;0.4105;0.0729
0000727035;5.2912;2.7653;0.8475;-0.1284;0.4082;0.0895
0000727044;5.4731;2.8132;0.7135;-0.1184;0.4126;0.1050
0000727053;5.6072;2.9497;0.5770;-0.1050;0.4020;0.1138
0000727062;5.6862;2.8683;0.7015;-0.0955;0.3830;0.1122
0000727071;5.7413;2.7198;0.7638;-0.0897;0.3663;0.1013
0000727080;6.0190;2.6504;0.7374;-0.0790;0.3589;0.0902
0000727089;6.0525;2.6169;0.6847;-0.0538;0.3473;0.0669
0000727098;5.9185;2.6719;0.6704;-0.0318;0.3377;0.0474
0000727107;5.7676;2.6815;0.6728;-0.0256;0.3371;0.0388
0000727116;5.8706;2.9640;0.6656;-0.0212;0.3287;0.0201
0000727125;5.7317;2.9832;0.6057;-0.0310;0.3311;0.0161
0000727132;5.8442;3.0526;0.4932;-0.0357;0.3344;0.0089
0000727140;5.8682;2.9975;0.3639;-0.0468;0.3443;0.0080
0000727148;6.1603;2.9568;0.3017;-0.0458;0.3583;0.0019
0000727156;6.2010;2.8587;0.2753;-0.0504;0.3872;0.0008
0000727164;6.2201;2.6097;0.3663;-0.0600;0.4238;0.0011
0000727172;6.6774;2.8922;0.4238;-0.0542;0.4555;0.0024
0000727180;6.6942;2.7557;0.4836;-0.0389;0.4984;-0.0043
0000727188;6.6846;2.8276;0.5171;-0.0312;0.5458;0.0004
0000727196;6.7876;2.8659;0.5578;-0.0245;0.5930;0.0039
