time;acc_x;acc_y;acc_z;gyro_x;gyro_y;gyro_z
0001341093;8.5976;2.1668;2.8371;0.0007;-0.0649;-0.0294
0001341101;8.6000;2.1763;2.7797;-0.0017;-0.0569;-0.0218
0001341108;8.6957;2.1763;2.8060;-0.0065;-0.0532;-0.0180
0001341116;8.6933;2.2673;2.7461;-0.0157;-0.0482;-0.0173
0001341183;8.7005;2.0566;2.8443;-0.0048;-0.0400;-0.0117
0001341191;8.6167;2.0231;2.9018;-0.0079;-0.0397;-0.0087
0001341203;8.7221;2.2577;2.8204;-0.0089;-0.0337;-0.0063
0001341211;8.8490;2.1715;2.8180;-0.0089;-0.0412;-0.0028
0001341219;8.7532;2.1500;2.8132;-0.0111;-0.0401;-0.0069
0001341230;8.6622;2.1284;2.7749;-0.0155;-0.0370;-0.0055
0001341238;8.7891;2.2242;2.8156;-0.0125;-0.0400;-0.0097
0001341250;8.7628;2.2793;2.9042;-0.0169;-0.0456;-0.0151
0001341258;8.6455;2.2027;2.9592;-0.0184;-0.0520;-0.0135
0001341269;8.5018;2.1668;2.9760;-0.0183;-0.0554;-0.0167
0001341277;8.4420;2.2075;2.8395;-0.0124;-0.0616;-0.0209
0001341289;8.6287;2.3703;2.8299;-0.0133;-0.0734;-0.0176
0001341297;8.4252;2.2793;2.6815;-0.0187;-0.0759;-0.0185
0001341305;8.7173;2.4301;2.6767;-0.0312;-0.0758;-0.0183
0001341316;8.5521;2.2266;2.7509;-0.0425;-0.0778;-0.0224
0001341324;8.8346;2.2529;2.6935;-0.0437;-0.0875;-0.0296
0001341336;8.5712;2.0638;2.6839;-0.0481;-0.0806;-0.0260
0001341344;8.8322;2.1955;2.7294;-0.0473;-0.0815;-0.0310
0001341355;8.8633;2.1859;2.7773;-0.0432;-0.0839;-0.0269
0001341363;8.8011;2.1165;2.8419;-0.0348;-0.0839;-0.0308
0001341375;8.7652;2.0734;2.7461;-0.0233;-0.0779;-0.0180
0001341383;8.8681;2.1787;2.6719;-0.0168;-0.0753;-0.0163
0001341391;8.6359;2.0973;2.7557;-0.0031;-0.0783;-0.0169
0001341458;8.7628;2.0375;2.7869;0.0112;-0.0296;0.0041
0001341466;8.4348;2.0901;2.8084;0.0140;-0.0284;0.0175
0001341478;8.6048;2.3128;2.8587;-0.0017;-0.0071;0.0514
0001341486;8.6072;2.2146;2.8036;-0.0140;0.0048;0.0702
0001341497;8.6957;2.1715;2.8802;-0.0153;0.0242;0.1081
0001341505;8.6143;2.4900;2.7294;0.0562;0.0326;0.1148
0001341513;8.7317;2.5474;2.5977;0.0405;0.0388;0.1266
0001341525;8.8921;2.7964;2.8491;0.0281;0.0290;0.1162
0001341533;8.7436;2.6121;2.8874;0.0149;0.0345;0.1033
0001341544;8.8633;2.4157;2.9090;0.0075;0.0306;0.0674
0001341552;8.9615;2.5809;2.8299;-0.0027;0.0353;0.0289
0001341564;9.1698;2.5235;2.7246;-0.0241;0.0330;-0.0185
0001341572;9.2656;2.4253;2.6600;-0.0413;0.0428;-0.0525
0001341580;9.2177;2.1979;2.6791;-0.0525;0.0586;-0.0758
0001341591;9.1363;2.2577;2.6647;-0.0715;0.0766;-0.0885
0001341599;8.9136;2.1404;2.7150;-0.0853;0.0843;-0.0926
0001341611;8.7245;2.2889;2.7126;-0.0855;0.0813;-0.0739
0001341619;8.2648;2.0446;2.8012;-0.0790;0.0657;-0.0557
0001341630;8.3677;2.1213;2.9808;-0.0580;0.0348;-0.0317
0001341638;8.3294;1.9130;2.9209;-0.0466;0.0149;-0.0153
0001341650;8.4851;1.7933;2.8659;-0.0212;-0.0087;0.0035
0001341658;8.6622;1.6472;2.8395;-0.0097;-0.0133;0.0145
0001341666;8.7604;1.7190;2.9305;0.0015;-0.0099;0.0211
0001341734;8.5425;2.1332;2.7701;0.0040;0.0218;0.0506
0001341742;8.5162;2.2434;2.8252;-0.0092;0.0153;0.0436
0001341754;8.7197;2.2529;3.0119;-0.0087;-0.0045;0.0316
0001341762;8.5736;2.1572;2.9185;-0.0171;0.0007;0.0310
0001341773;8.4515;2.1476;2.9951;-0.0205;-0.0048;0.0284
0001341781;8.4539;2.0877;2.9449;-0.0111;-0.0132;0.0226
0001341789;8.5353;1.9848;2.9329;-0.0087;-0.0155;0.0312
0001341801;8.5976;2.0853;2.9281;0.0037;-0.0189;0.0321
0001341809;8.6718;1.9297;2.8850;0.0048;-0.0144;0.0362
0001341820;8.8514;2.1620;2.9616;0.0055;-0.0151;0.0392
0001341828;8.7700;2.2913;2.8204;0.0032;-0.0212;0.0362
0001341840;8.8394;2.3224;2.9497;-0.0121;-0.0172;0.0329
0001341848;8.7197;2.3320;2.9353;-0.0245;-0.0191;0.0236
0001341856;8.7987;2.2960;2.8802;-0.0405;-0.0161;0.0191
0001341867;8.7987;2.4277;2.8467;-0.0550;-0.0139;0.0133
0001341875;8.7460;2.3607;2.8778;-0.0616;-0.0129;0.0019
0001341887;8.5593;2.1165;2.8347;-0.0633;-0.0203;-0.0147
0001341895;8.5665;2.1859;2.8467;-0.0703;-0.0215;-0.0197
0001341906;8.7819;2.1596;2.8371;-0.0568;-0.0346;-0.0337
0001341914;8.7293;2.1596;2.8898;-0.0508;-0.0344;-0.0376
0001341926;8.5449;2.0279;2.8252;-0.0409;-0.0346;-0.0362
0001341934;8.6383;2.0423;2.7150;-0.0326;-0.0293;-0.0461
0001341942;8.7460;2.1141;2.8371;-0.0276;-0.0261;-0.0454
0001342010;9.8737;2.2482;3.2705;-0.1825;0.2386;0.1039
0001342018;9.9814;2.2434;3.3351;-0.1943;0.2821;0.1232
0001342030;9.4379;2.1715;3.2777;-0.1986;0.3483;0.1422
0001342038;9.3302;2.1811;3.2585;-0.2097;0.3786;0.1455
0001342049;9.2225;2.0159;3.3974;-0.2085;0.4081;0.1507
0001342057;8.8298;1.5562;3.3830;-0.2038;0.4193;0.1579
0001342065;8.6670;1.5730;3.3423;-0.1784;0.4143;0.1584
0001342077;8.5545;1.3791;3.4620;-0.1215;0.3945;0.1532
0001342085;8.3965;1.5443;3.3543;-0.0763;0.3720;0.1432
0001342096;8.0637;1.5969;3.2250;-0.0232;0.3222;0.1065
0001342104;8.0517;1.6951;3.0837;0.0051;0.2859;0.0837
0001342116;7.8434;1.7286;3.0789;0.0418;0.2345;0.0285
0001342124;7.8290;1.8603;3.0718;0.0578;0.2085;-0.0049
0001342132;7.8937;2.0566;2.9999;0.0709;0.1709;-0.0437
0001342143;7.8458;2.1691;2.9329;0.0817;0.1327;-0.0743
0001342151;7.9368;2.2051;2.9904;0.0886;0.1062;-0.0909
0001342163;8.1092;2.2553;2.9209;0.0845;0.0835;-0.0993
0001342171;8.2720;2.3343;2.8347;0.0806;0.0682;-0.0999
0001342182;8.4946;2.3559;2.7892;0.0786;0.0632;-0.1013
0001342190;8.7173;2.4349;2.7318;0.0717;0.0813;-0.0905
0001342198;8.7987;2.3152;2.7342;0.0669;0.1030;-0.0831
0001342210;8.8490;2.2170;2.7198;0.0681;0.1371;-0.0674
0001342218;9.2129;2.3104;2.6815;0.0738;0.1623;-0.0576
0001342282;8.4707;2.1691;2.8443;0.0165;0.3345;0.0556
0001342290;8.4563;2.1691;2.9856;0.0204;0.3280;0.0560
0001342302;8.2121;1.9656;2.9281;0.0324;0.3184;0.0516
0001342310;8.0852;2.0901;2.8922;0.0452;0.3182;0.0506
0001342318;8.0924;2.0853;2.9161;0.0528;0.3020;0.0349
0001342329;8.1906;2.0470;2.8515;0.0662;0.2840;0.0305
0001342337;8.1570;2.1620;2.9090;0.0714;0.2702;0.0218
0001342349;8.1906;2.2697;2.9497;0.0663;0.2449;0.0119
0001342357;8.4467;2.5115;2.8347;0.0493;0.2306;0.0064
0001342368;8.5784;2.6528;2.9042;0.0233;0.2122;-0.0008
0001342376;8.5473;2.5546;2.8491;-0.0073;0.2125;0.0019
0001342384;8.4970;2.4612;2.8323;-0.0442;0.2117;0.0088
0001342396;8.3606;2.4157;2.8635;-0.0794;0.2116;0.0156
0001342404;8.5449;2.4948;2.8467;-0.1023;0.2170;0.0149
0001342415;8.5545;2.4397;2.7773;-0.1283;0.2242;0.0304
0001342423;8.5473;2.5498;2.8443;-0.1454;0.2265;0.0372
0001342435;8.4803;2.3990;3.0095;-0.1777;0.2529;0.0614
0001342443;8.8562;2.6097;3.1364;-0.2070;0.2743;0.0822
0001342451;8.7724;2.4421;3.0742;-0.2411;0.2964;0.1104
0001342462;8.9735;2.1213;3.1388;-0.2637;0.3320;0.1364
0001342470;9.0381;2.0063;3.1939;-0.2693;0.3577;0.1522
0001342482;9.0214;1.9082;3.3399;-0.2483;0.3845;0.1615
0001342490;8.8394;1.8842;3.2082;-0.2225;0.3986;0.1580
0001342556;8.1283;1.8196;3.3160;-0.0008;0.3679;0.0352
0001342564;8.1690;1.8196;3.1987;0.0120;0.3556;0.0316
0001342572;8.1786;1.6735;3.0957;0.0189;0.3523;0.0296
0001342583;8.2839;1.8938;3.1484;0.0238;0.3475;0.0288
0001342591;8.2432;1.9872;3.1101;0.0269;0.3464;0.0282
0001342603;8.1499;1.9704;3.0981;0.0284;0.3579;0.0360
0001342611;8.1977;2.0853;3.2274;0.0254;0.3645;0.0456
0001342622;8.0756;2.0853;3.2010;0.0221;0.3653;0.0581
0001342630;7.8937;1.9680;3.1580;0.0147;0.3673;0.0678
0001342638;8.2337;2.1332;3.2489;0.0132;0.3641;0.0770
0001342650;8.3031;2.0806;3.1244;0.0000;0.3623;0.0949
0001342658;8.4539;2.1596;3.1580;0.0033;0.3616;0.0991
0001342669;8.4611;2.0830;3.0718;-0.0003;0.3698;0.1049
0001342677;8.5066;2.1572;3.1388;-0.0076;0.3655;0.1098
0001342685;8.7676;2.4014;3.1795;-0.0124;0.3692;0.1061
0001342697;8.6215;2.3320;3.1196;-0.0326;0.3714;0.1014
0001342705;8.5066;2.4181;3.2561;-0.0588;0.3773;0.1017
0001342716;8.4443;2.4157;3.2394;-0.0907;0.3925;0.0913
0001342724;8.2313;2.2625;3.3615;-0.1077;0.4010;0.0739
0001342736;8.3989;2.3272;3.3662;-0.1130;0.4100;0.0624
0001342744;8.0661;2.1189;3.3758;-0.1211;0.4065;0.0573
0001342752;8.0661;2.1165;3.2992;-0.1143;0.3930;0.0512
0001342764;8.2768;2.2529;3.3471;-0.1150;0.3730;0.0441
0001342772;8.1547;2.1093;3.3567;-0.1021;0.3591;0.0312
0001342838;7.9440;2.0183;3.3184;-0.0750;0.3135;-0.0537
0001342846;8.2408;2.2170;3.3088;-0.0725;0.3303;-0.0596
0001342857;8.6143;2.4086;3.3255;-0.0771;0.3600;-0.0400
0001342865;8.7364;2.4134;3.1891;-0.0855;0.3957;-0.0242
0001342877;8.7867;2.1883;3.0622;-0.0897;0.4481;-0.0023
0001342885;8.7987;2.1548;3.0335;-0.0862;0.4866;0.0128
0001342893;8.5545;1.8459;3.0095;-0.0679;0.5113;0.0120
0001342904;8.5258;2.0016;2.9449;-0.0445;0.5550;0.0201
0001342912;8.2672;2.0039;3.0023;-0.0156;0.5697;0.0140
0001342924;8.0661;1.9106;2.8683;0.0121;0.6034;0.0048
0001342932;8.0709;2.0782;3.0191;0.0308;0.6219;-0.0003
0001342943;8.0038;2.1213;3.0478;0.0516;0.6320;-0.0151
0001342951;7.8338;2.0806;3.0694;0.0592;0.6427;-0.0220
0001342959;7.8626;2.0303;3.1149;0.0675;0.6496;-0.0248
0001342971;7.6662;2.1404;3.0287;0.0726;0.6570;-0.0318
0001342979;7.6016;2.0231;2.9664;0.0710;0.6608;-0.0203
0001342990;7.7812;2.1715;2.9880;0.0648;0.6572;-0.0108
0001342998;7.6112;2.0782;3.0143;0.0462;0.6675;0.0049
0001343010;7.9033;2.2386;3.0574;0.0286;0.6772;0.0297
0001343018;8.0230;2.3415;3.1316;0.0103;0.6889;0.0554
0001343026;7.9871;2.3990;3.2010;-0.0061;0.7003;0.0546
0001343038;8.0134;2.4780;3.2825;-0.0337;0.7281;0.0472
0001343046;8.0732;2.6097;3.3662;-0.0544;0.7434;0.0338
0001343112;6.7564;1.5586;3.6152;0.0183;0.7582;-0.0405
0001343120;6.8714;1.6400;3.6847;0.0659;0.7232;-0.0586
0001343131;6.6870;1.6616;4.0558;0.1267;0.6805;-0.0965
0001343139;6.6798;1.3791;4.2928;0.1792;0.6455;-0.1280
0001343147;6.6343;1.4293;4.3814;0.2297;0.6061;-0.1452
0001343159;6.5505;1.3671;4.2880;0.2994;0.5305;-0.1595
0001343167;6.5601;1.4940;4.2593;0.3234;0.4886;-0.1748
0001343178;6.4093;1.4341;4.3574;0.3576;0.4349;-0.1864
0001343186;6.5721;1.4892;4.4101;0.3655;0.4042;-0.1903
0001343198;6.3327;1.4653;4.2760;0.3577;0.3671;-0.2044
0001343206;6.4907;1.5586;4.1779;0.3391;0.3619;-0.2157
0001343214;6.6080;1.2977;3.9504;0.3379;0.3585;-0.2338
0001343225;6.6942;1.1061;3.7852;0.3507;0.3889;-0.2517
0001343233;6.6702;0.9409;3.7302;0.3535;0.4125;-0.2613
0001343245;7.1635;1.3455;3.5219;0.3537;0.4626;-0.2674
0001343253;7.4077;1.6927;3.5578;0.3496;0.4990;-0.2614
0001343264;7.4436;2.2434;3.7206;0.3671;0.5622;-0.2176
0001343272;7.2137;2.4948;3.8810;0.3784;0.5990;-0.1567
0001343280;7.2089;3.0071;3.9097;0.4054;0.6262;-0.0754
0001343292;7.0605;3.4548;4.1515;0.4078;0.6791;0.0679
0001343300;6.8690;3.2801;4.2066;0.4209;0.7125;0.1516
0001343312;6.7900;2.7557;4.2282;0.4370;0.7482;0.2988
0001343320;6.7038;2.4469;3.9504;0.4652;0.7577;0.3691
0001343386;5.8131;1.8507;3.4357;0.4700;0.6039;0.4914
0001343394;5.6120;2.1476;3.3543;0.4000;0.5778;0.4467
0001343402;5.4444;2.3798;3.3567;0.3333;0.5534;0.3965
0001343413;5.6144;2.5331;3.2633;0.2602;0.5331;0.3408
0001343421;5.4229;2.3798;3.3495;0.2395;0.5155;0.3132
0001343433;5.8419;2.4804;3.2250;0.2353;0.4748;0.2831
0001343441;6.1459;2.5043;3.0478;0.2356;0.4471;0.2950
0001343449;6.5505;2.7701;2.9521;0.2486;0.4139;0.2960
0001343460;7.0677;2.9281;2.9425;0.2647;0.3808;0.3162
0001343468;6.9791;2.7725;2.8635;0.2554;0.3754;0.3264
0001343480;7.4172;3.0454;3.1412;0.2561;0.4118;0.3246
0001343488;7.5130;3.1220;3.2370;0.2442;0.4596;0.3300
0001343499;8.0589;3.1053;3.3208;0.2074;0.5621;0.3357
0001343507;8.4659;3.1412;3.5961;0.1916;0.6508;0.3476
0001343515;8.5138;2.8898;3.6105;0.1823;0.7381;0.3813
0001343527;8.9399;2.8347;3.6895;0.1869;0.8788;0.4538
0001343535;8.8514;2.6001;3.6679;0.2041;0.9622;0.4950
0001343546;8.8322;2.9161;3.6871;0.2254;1.0531;0.5601
0001343554;8.1594;2.6408;3.4884;0.2126;1.0888;0.5955
0001343566;7.3885;2.2553;3.2394;0.1788;1.0956;0.6193
0001343574;6.9576;2.2673;3.3136;0.1760;1.0744;0.6130
0001343582;6.5290;2.2553;3.2848;0.1899;1.0264;0.5873
0001343594;5.9831;2.2170;3.1173;0.2005;0.9204;0.5373
0001343602;5.4157;2.2003;2.9688;0.2098;0.8460;0.4976
0001343668;7.4843;3.0047;2.8443;0.2306;0.3954;0.2324
0001343676;7.9248;3.1963;2.8084;0.1965;0.3945;0.2208
0001343684;8.3510;3.1987;2.7270;0.1540;0.4046;0.2161
0001343695;8.3893;3.1029;2.5977;0.0666;0.4305;0.2184
0001343703;8.3486;3.0789;2.5881;0.0322;0.4549;0.2194
0001343715;7.9990;2.8706;2.4062;-0.0156;0.4968;0.2306
0001343723;7.9703;2.7246;2.1452;-0.0384;0.5180;0.2373
0001343734;7.4603;2.5331;2.1452;-0.0578;0.5313;0.2418
0001343742;7.2712;2.5953;2.1380;-0.0573;0.5249;0.2376
0001343750;6.8235;2.3463;2.2146;-0.0488;0.5069;0.2372
0001343762;6.4260;2.4421;2.2482;-0.0385;0.4746;0.2120
0001343770;6.4260;2.6767;2.2601;-0.0376;0.4397;0.1965
0001343781;6.0932;2.3918;2.2936;-0.0590;0.3908;0.1695
0001343789;6.1746;2.7246;2.3056;-0.0694;0.3621;0.1525
0001343801;6.3949;2.9856;2.3152;-0.0923;0.3096;0.1167
0001343809;6.7157;3.2250;2.2721;-0.1186;0.2860;0.0977
0001343817;7.0413;3.2322;2.2625;-0.1597;0.2541;0.0826
0001343828;7.2736;3.2058;2.2386;-0.2096;0.2273;0.0648
0001343836;7.6160;3.2801;2.1524;-0.2194;0.2089;0.0592
0001343848;7.9751;2.7581;1.7454;-0.2573;0.1985;0.0653
0001343856;7.8817;2.7102;1.5969;-0.2281;0.1841;0.0691
0001343868;7.6471;2.5618;1.2139;-0.1900;0.1593;0.0835
0001343876;7.5705;2.8395;1.1277;-0.1867;0.1379;0.0947
0001343884;7.9009;3.1077;1.2474;-0.2085;0.1010;0.1073
0001343950;7.5824;1.8387;2.0734;-0.2982;-0.0689;0.0033
0001343958;7.7357;1.8340;2.0542;-0.2714;-0.0779;-0.0136
0001343970;7.7452;1.9920;2.0949;-0.2555;-0.0614;-0.0266
0001343978;7.7883;2.0782;2.1428;-0.2523;-0.0416;-0.0192
0001343989;8.0134;2.1524;2.2242;-0.2559;-0.0173;-0.0108
0001343997;8.1882;2.2003;2.2290;-0.2574;0.0075;0.0021
0001344009;7.7261;2.2577;2.3008;-0.2574;0.0232;0.0470
0001344017;7.9224;2.2769;2.5067;-0.2729;0.0341;0.0943
0001344025;7.8650;2.2649;2.6624;-0.2721;0.0380;0.1340
0001344036;7.9272;2.3511;2.6983;-0.2402;0.0329;0.1595
0001344044;7.6686;2.3631;2.7485;-0.2126;0.0336;0.1728
0001344056;7.8554;2.5809;3.0023;-0.1717;0.0305;0.1755
0001344064;7.6998;2.8036;3.1651;-0.1597;0.0218;0.1780
0001344075;7.5202;3.1053;3.2250;-0.1628;-0.0159;0.1907
0001344083;7.5537;3.1723;3.3208;-0.1764;-0.0461;0.2129
0001344091;7.3023;3.2585;3.3447;-0.1819;-0.0874;0.2364
0001344103;7.4124;3.1412;3.5482;-0.1988;-0.1583;0.2713
0001344111;7.3502;3.2609;3.5027;-0.2093;-0.1988;0.2884
0001344122;7.4891;3.3279;3.2226;-0.2237;-0.2598;0.3099
0001344130;7.5226;3.2130;3.1891;-0.2376;-0.3074;0.3175
0001344142;7.5681;3.1508;3.2106;-0.2721;-0.3523;0.3102
0001344150;7.6902;2.9401;3.2082;-0.3034;-0.3625;0.2978
0001344214;10.5417;1.7071;2.5283;-0.0566;0.1223;0.0055
0001344222;10.6374;1.8459;2.6456;-0.0103;0.2470;0.0145
0001344230;10.6183;2.2003;3.1101;0.0133;0.3632;0.0393
0001344242;9.7899;2.7438;4.1252;0.0057;0.5260;0.0918
0001344250;8.9280;3.0382;4.1946;-0.0065;0.5891;0.1244
0001344261;7.7213;3.2441;4.4580;-0.0218;0.6134;0.1824
0001344269;6.5960;2.8132;4.4412;-0.0253;0.6054;0.2145
0001344281;5.8921;2.3894;4.1420;-0.0185;0.5626;0.2443
0001344289;5.5641;1.8004;4.1061;0.0008;0.5104;0.2390
0001344297;5.8993;1.3312;3.8642;0.0041;0.4584;0.2270
0001344308;6.0980;0.5124;3.6152;0.0326;0.3901;0.2173
0001344316;6.5553;0.2490;3.6847;0.0570;0.3467;0.2010
0001344328;7.1180;0.1101;3.8738;0.0827;0.3235;0.2057
0001344336;7.6351;0.2107;4.1324;0.0997;0.3284;0.2173
0001344344;8.0780;0.5842;4.2784;0.1091;0.3384;0.2419
0001344355;8.2337;0.7446;4.2617;0.0845;0.3773;0.2960
0001344363;8.0780;0.9768;4.3239;0.0677;0.4145;0.3246
0001344375;7.8434;1.3001;4.5322;0.0107;0.4587;0.3782
0001344383;7.6926;1.4605;4.6280;-0.0382;0.4824;0.4129
0001344394;7.0677;1.7454;4.7142;-0.0967;0.4722;0.4547
0001344402;6.4667;1.9034;4.8004;-0.1310;0.4434;0.4660
0001344410;6.0166;1.8651;4.8794;-0.1408;0.3944;0.4441
0001344422;5.6431;1.8459;4.9321;-0.1086;0.3058;0.3472
0001344430;5.7461;1.8483;4.7812;-0.0711;0.2392;0.2571
0001344498;7.3095;2.2529;4.3167;0.2458;-0.1420;-0.4615
0001344506;7.5513;2.1931;4.1922;0.2049;-0.1139;-0.4590
0001344518;7.8817;2.3894;3.9696;0.1478;-0.0642;-0.4142
0001344526;7.7788;2.3559;3.8475;0.1284;-0.0285;-0.3717
0001344534;8.0661;2.3320;3.6224;0.1059;0.0179;-0.3142
0001344545;8.3510;2.5091;3.5291;0.0730;0.0910;-0.2258
0001344553;8.6431;2.6719;3.4093;0.0246;0.1508;-0.1588
0001344565;8.5904;2.7126;3.5410;-0.0426;0.2562;-0.0528
0001344573;8.7269;2.8228;3.6105;-0.0731;0.3231;-0.0139
0001344584;8.4108;2.6121;3.5410;-0.1017;0.3946;0.0073
0001344592;8.2456;2.6336;3.4405;-0.1155;0.4359;0.0013
0001344604;7.6902;2.1979;3.3471;-0.1336;0.4982;-0.0044
0001344612;7.4675;2.0016;3.2633;-0.1392;0.5109;-0.0109
0001344620;6.8738;1.5275;3.2633;-0.1327;0.5160;-0.0191
0001344632;6.5505;1.2306;3.2082;-0.1112;0.5005;-0.0398
0001344640;6.3662;1.0918;3.2896;-0.0905;0.4748;-0.0570
0001344652;5.9017;0.8380;3.3375;-0.0601;0.4163;-0.0727
0001344660;6.2010;0.9601;3.3567;-0.0364;0.3705;-0.0831
0001344671;6.3997;1.1253;3.2394;-0.0068;0.3052;-0.0913
0001344679;6.6607;1.1756;3.1340;0.0302;0.2685;-0.1038
0001344687;7.0078;1.5874;3.0095;0.0691;0.2386;-0.1086
0001344699;7.0964;1.8555;2.6671;0.0967;0.2288;-0.0909
0001344707;7.4819;2.2266;2.4900;0.0779;0.2304;-0.0614
0001344775;6.1531;2.5067;3.1292;-0.3901;0.1772;0.2587
0001344783;5.7700;2.2745;3.2250;-0.4045;0.1295;0.2482
0001344795;5.3175;1.8340;3.3471;-0.3627;0.0055;0.2060
0001344803;5.0254;1.6065;3.4309;-0.3124;-0.0881;0.1739
0001344811;4.6160;1.3288;3.3447;-0.2419;-0.1947;0.1230
0001344823;4.5610;1.3551;3.2609;-0.1106;-0.3730;0.0248
0001344831;4.6400;1.4461;3.1532;-0.0252;-0.4852;-0.0541
0001344843;4.8602;1.4341;2.9281;0.0951;-0.6338;-0.1660
0001344851;5.3486;1.7142;2.9497;0.1528;-0.7169;-0.2358
0001344862;6.0358;1.9656;2.7821;0.1904;-0.7714;-0.2999
0001344870;6.3662;2.1620;2.6647;0.2066;-0.8070;-0.3397
0001344882;6.9288;2.4612;2.3894;0.2032;-0.8194;-0.3812
0001344890;7.1060;2.5977;2.1811;0.1881;-0.8148;-0.3992
0001344898;7.2209;2.7557;2.1691;0.1597;-0.7889;-0.3965
0001344909;7.3741;2.8395;2.3918;0.1144;-0.7504;-0.4191
0001344917;7.4196;2.9377;2.7342;0.0710;-0.6852;-0.4225
0001344929;7.7476;3.0358;3.8188;0.0133;-0.5541;-0.4706
0001344937;8.4515;3.4189;4.6926;-0.0017;-0.4174;-0.5284
0001344948;9.9647;4.1970;5.5450;-0.0234;-0.1623;-0.6406
0001344956;10.3406;4.1707;5.6479;-0.0313;0.0345;-0.7083
0001344964;10.3190;4.1108;5.3319;-0.0508;0.2006;-0.7342
0001344976;8.5473;3.1603;4.2593;-0.1081;0.3319;-0.6671
0001344984;7.3287;2.9449;3.6368;-0.1311;0.3412;-0.5458
0001345052;5.4516;2.9449;4.7094;0.1848;-0.4058;0.0628
0001345060;5.7628;2.5953;4.8435;0.2176;-0.4664;0.0040
0001345072;6.5314;1.9441;4.6735;0.2641;-0.5164;-0.0958
0001345080;6.8115;1.4844;4.6160;0.2984;-0.5360;-0.1621
0001345091;7.3454;1.4557;4.5897;0.3220;-0.5500;-0.2442
0001345099;7.4460;1.2737;4.6208;0.3184;-0.5553;-0.2940
0001345107;7.2736;1.1013;4.8219;0.2883;-0.5497;-0.3320
0001345119;7.1874;1.1037;5.0566;0.2507;-0.5646;-0.3890
0001345127;6.9097;1.1133;4.9608;0.2142;-0.5626;-0.4169
0001345138;6.4643;0.8906;5.0039;0.1840;-0.5989;-0.4561
0001345146;6.3494;0.8140;4.8507;0.1656;-0.6297;-0.4596
0001345158;6.3327;0.6632;4.7549;0.1705;-0.7035;-0.4557
0001345166;6.6295;0.5100;4.5753;0.1917;-0.7554;-0.4395
0001345174;6.8977;0.6153;4.3335;0.2024;-0.8160;-0.4231
0001345185;7.1563;0.7518;4.2210;0.2413;-0.8877;-0.3808
0001345193;7.3263;0.7638;4.1420;0.2809;-0.9411;-0.3632
0001345205;7.8195;1.1037;4.1084;0.3395;-0.9742;-0.3316
0001345213;8.2001;1.3384;4.0677;0.3659;-0.9840;-0.3095
0001345224;8.4252;1.8962;4.0534;0.3813;-0.9637;-0.2547
0001345232;8.4755;1.9345;3.8547;0.3806;-0.9363;-0.2190
0001345244;8.3222;2.1859;3.6871;0.3356;-0.8752;-0.1363
0001345252;8.3701;2.3080;3.5123;0.2967;-0.8446;-0.0867
0001345260;8.2384;2.3248;3.5650;0.2794;-0.8139;-0.0270
0001345328;6.4835;2.5259;3.5602;0.3046;-0.8560;0.1792
0001345336;6.8953;3.0191;3.3950;0.2639;-0.8828;0.1877
0001345348;7.1012;3.0694;3.4213;0.1827;-0.8956;0.1871
0001345356;7.0988;3.0670;3.3591;0.1330;-0.9010;0.1735
0001345368;7.6471;2.9521;3.0167;0.0436;-0.8656;0.1649
0001345376;7.8003;2.5642;2.9401;-0.0059;-0.8484;0.1420
0001345384;8.0110;2.5187;2.5474;-0.0518;-0.8199;0.1392
0001345396;8.2408;2.3056;2.5522;-0.0826;-0.7825;0.1067
0001345404;8.6742;1.9776;2.3894;-0.0979;-0.7472;0.0887
0001345416;8.6167;2.3631;2.4565;-0.0982;-0.6852;0.0663
0001345424;8.6622;2.5211;2.5355;-0.1001;-0.6662;0.0353
0001345436;8.7197;2.8132;2.7390;-0.1263;-0.6090;-0.0147
0001345444;8.6574;2.9688;2.7557;-0.1430;-0.5696;-0.0422
0001345456;8.6072;2.6288;2.6360;-0.1743;-0.5292;-0.0879
0001345464;8.4204;2.4972;2.7102;-0.1903;-0.4980;-0.1091
0001345472;8.3677;2.2122;2.6049;-0.1891;-0.4752;-0.1398
0001345484;8.4467;1.9417;2.4493;-0.1771;-0.4337;-0.1692
0001345492;8.5401;1.9656;2.3535;-0.1498;-0.4157;-0.1913
0001345504;8.4563;1.7909;2.1691;-0.1019;-0.3752;-0.2048
0001345512;8.5521;1.9178;2.1380;-0.0809;-0.3437;-0.2085
0001345579;9.2488;2.4732;2.4565;-0.0699;-0.0436;0.0112
0001345587;9.3565;2.6240;2.3918;-0.0715;-0.0100;0.0414
0001345599;9.0764;2.2913;2.3128;-0.0746;0.0424;0.0652
0001345607;9.2320;2.4924;2.2098;-0.0799;0.0699;0.0612
0001345615;9.0477;2.5355;2.1883;-0.0917;0.1091;0.0685
0001345627;9.0429;2.4181;2.1811;-0.1095;0.1551;0.0532
0001345635;9.0118;2.2386;2.1859;-0.1138;0.1901;0.0560
0001345647;9.1818;2.4852;2.2266;-0.1114;0.2385;0.0398
0001345655;9.2057;2.6025;2.3439;-0.1195;0.2763;0.0442
0001345667;9.0668;2.8156;2.5163;-0.1268;0.3142;0.0572
0001345675;8.9615;2.8802;2.5570;-0.1339;0.3301;0.0601
0001345683;8.7197;2.6480;2.5786;-0.1332;0.3412;0.0671
0001345695;8.4539;2.5833;2.6169;-0.1311;0.3585;0.0747
0001345703;8.3773;2.4948;2.6336;-0.1268;0.3625;0.0741
0001345715;8.1858;2.2290;2.4995;-0.1242;0.3714;0.0616
0001345723;8.3917;2.2194;2.4948;-0.1314;0.3757;0.0501
0001345735;8.1379;2.0877;2.4780;-0.1415;0.3736;0.0229
0001345743;8.0278;1.9345;2.5714;-0.1482;0.3581;-0.0052
0001345751;7.9535;1.9824;2.6504;-0.1581;0.3448;-0.0266
0001345762;7.6016;1.9130;2.8587;-0.1643;0.3034;-0.0610
0001345770;7.5681;2.0399;3.0047;-0.1664;0.2790;-0.0783
0001345782;7.2760;1.8675;3.0550;-0.1687;0.2234;-0.1005
0001345790;7.4986;2.1476;3.0167;-0.1612;0.1904;-0.1132
0001345858;8.5521;2.5690;3.0550;-0.0806;0.1547;-0.0069
0001345866;8.5952;2.7677;3.0981;-0.0735;0.1672;0.0242
0001345874;8.4779;2.8467;3.1532;-0.0774;0.1781;0.0496
0001345886;8.3007;2.9113;3.3543;-0.0937;0.1871;0.0795
0001345894;8.2552;3.0789;3.4740;-0.1216;0.1899;0.0998
0001345906;8.2265;3.1795;3.5769;-0.1827;0.1813;0.1142
0001345914;8.0158;3.2082;3.5147;-0.2325;0.1772;0.1138
0001345926;7.9176;3.2489;3.4812;-0.3047;0.1775;0.1152
0001345934;7.8410;3.1292;3.4165;-0.3437;0.1727;0.0977
0001345942;7.8147;3.2226;3.3040;-0.3834;0.1648;0.0891
0001345954;7.7237;3.2441;3.1532;-0.4561;0.1600;0.0644
0001345962;7.6782;3.2992;2.9185;-0.5151;0.1484;0.0582
0001345974;7.1635;3.3016;3.0263;-0.5931;0.1158;0.0389
0001345982;7.1730;3.2896;3.0167;-0.6454;0.0863;0.0570
0001345994;7.0988;3.1987;3.2465;-0.6831;0.0273;0.1312
0001346002;6.8331;2.8108;3.3232;-0.6739;-0.0188;0.2088
0001346010;6.9695;2.6480;3.3208;-0.6523;-0.0565;0.2838
0001346022;7.2377;2.1069;3.1675;-0.5872;-0.1168;0.3355
0001346030;7.3981;1.7813;3.0263;-0.5480;-0.1455;0.3496
0001346042;7.9272;1.2043;2.9473;-0.4936;-0.1847;0.3377
0001346050;8.1499;0.7829;2.9760;-0.4518;-0.1852;0.3062
0001346062;8.4970;0.6440;3.2465;-0.4050;-0.1739;0.2300
0001346070;8.7340;0.6943;3.2633;-0.3945;-0.1595;0.1535
0001346139;7.8721;2.7677;4.1659;-0.1640;0.0995;-0.5161
0001346148;7.8434;3.0215;4.1707;-0.1519;0.1203;-0.5458
0001346157;7.9320;3.0933;4.2545;-0.1591;0.1268;-0.5636
0001346170;7.9990;2.8036;4.2521;-0.1897;0.1327;-0.5513
0001346179;8.0445;2.3320;4.1587;-0.2085;0.1364;-0.5284
0001346192;8.1738;1.6999;4.3598;-0.2310;0.1410;-0.4843
0001346201;8.3893;1.2330;4.3072;-0.2438;0.1545;-0.4421
0001346214;8.4348;0.5171;4.2186;-0.2262;0.1628;-0.3830
0001346223;8.0517;0.2825;4.5179;-0.2160;0.1414;-0.3495
0001346232;7.5274;0.1676;4.7453;-0.2165;0.1294;-0.3010
0001346244;6.6343;0.0215;5.0350;-0.1905;0.0807;-0.2702
0001346253;5.8419;0.1580;5.1140;-0.1616;0.0129;-0.2583
0001346266;4.8985;0.3232;4.9584;-0.1081;-0.1015;-0.2518
0001346275;4.4101;0.4741;4.8530;-0.0794;-0.1984;-0.2545
0001346288;4.6783;0.6416;4.6040;0.0079;-0.3319;-0.3086
0001346297;5.1284;0.5914;4.3838;0.1019;-0.3916;-0.3403
0001346310;6.1411;1.0199;4.1659;0.2244;-0.4409;-0.3628
0001346319;6.6008;1.2785;3.9193;0.2938;-0.4501;-0.3580
0001346328;7.0677;1.8004;3.9217;0.3246;-0.4411;-0.3297
0001346340;7.1730;2.2122;4.0606;0.3292;-0.4041;-0.2743
0001346349;7.3622;2.7797;4.1324;0.2915;-0.3469;-0.2305
0001346362;7.0677;2.9473;4.2210;0.2141;-0.2726;-0.1667
0001346371;6.9647;2.6887;4.2976;0.1619;-0.2330;-0.1198
0001346440;6.2489;1.6113;4.2689;0.1368;-0.1151;-0.0152
0001346449;6.2249;1.5610;4.1515;0.1404;-0.1282;-0.0305
0001346458;5.8490;1.5275;4.2162;0.1700;-0.1471;-0.0526
0001346471;5.7772;1.6664;4.0677;0.1931;-0.1708;-0.0733
0001346480;5.7916;1.5826;4.0366;0.2022;-0.1970;-0.0858
0001346493;5.9520;2.1069;3.9768;0.2487;-0.2338;-0.1192
0001346502;6.1172;2.1165;3.9696;0.2494;-0.2482;-0.1356
0001346515;5.9999;2.3607;3.9911;0.2498;-0.2655;-0.1616
0001346524;6.0430;2.2649;3.9002;0.2353;-0.2674;-0.1635
0001346537;6.4859;2.2218;3.8834;0.2402;-0.2659;-0.1767
0001346546;6.6726;2.1117;3.8116;0.2611;-0.2590;-0.1713
0001346555;6.8738;1.9537;3.7302;0.2649;-0.2442;-0.1486
0001346568;6.9073;2.0183;3.7350;0.2871;-0.2244;-0.1515
0001346577;6.8307;2.1572;3.7445;0.2927;-0.2045;-0.1459
0001346590;6.8953;2.1021;3.6033;0.2795;-0.1949;-0.1571
0001346599;6.7014;2.1691;3.6152;0.2557;-0.1800;-0.1561
0001346612;6.4524;2.2577;3.5386;0.2176;-0.1891;-0.1795
0001346621;6.4476;2.3415;3.4764;0.1923;-0.2084;-0.2050
0001346630;6.5027;2.3128;3.4740;0.1627;-0.2134;-0.2197
0001346643;6.4117;2.3128;3.5865;0.1496;-0.2284;-0.2445
0001346652;6.2920;2.1668;3.5338;0.1490;-0.2498;-0.2554
0001346665;6.3805;1.8938;3.5386;0.1625;-0.2611;-0.2682
0001346674;6.5266;1.8052;3.4836;0.1943;-0.2735;-0.2630
0001346743;7.1156;2.3200;3.1867;0.1045;-0.2241;-0.0894
0001346752;7.2065;2.2649;3.2417;0.1057;-0.2046;-0.0767
0001346765;7.1036;2.2529;3.2417;0.0970;-0.1821;-0.0258
0001346774;7.2042;2.2769;3.2417;0.1103;-0.1653;0.0005
0001346783;7.1778;2.3343;3.1005;0.1128;-0.1555;0.0338
0001346799;7.3095;1.9680;2.9856;0.1142;-0.1407;0.0683
0001346808;7.0844;2.2984;3.1627;0.1529;-0.1475;0.0686
0001346821;6.7636;2.1428;2.9042;0.1234;-0.1360;0.0827
0001346830;6.8426;2.1093;2.9425;0.1171;-0.1502;0.0741
0001346842;6.9456;2.1763;2.9090;0.1041;-0.1504;0.0714
0001346851;6.7540;1.8555;2.9209;0.0838;-0.1541;0.0705
0001346860;6.7876;2.2122;2.9521;0.1170;-0.1655;0.0729
0001346873;6.7109;2.2936;2.8084;0.0907;-0.1904;0.0831
0001346882;6.7708;2.1117;2.8299;0.0548;-0.1984;0.0893
0001346894;6.6631;2.3439;2.7605;0.0829;-0.2036;0.1114
0001346903;6.7205;2.2386;2.6288;0.0730;-0.2112;0.1243
0001346916;6.6607;2.0662;2.5379;0.0413;-0.2070;0.1440
0001346925;7.0054;2.2649;2.5594;0.0807;-0.2089;0.1697
0001346934;6.8043;1.9776;2.5450;0.1069;-0.2178;0.1813
0001346946;6.9959;2.0470;2.5043;0.1162;-0.2212;0.2149
0001346955;7.1228;2.0877;2.5450;0.1455;-0.2254;0.2254
0001347022;7.6854;2.7605;2.6647;0.2789;-0.0833;0.2381
0001347031;7.6351;2.7988;2.8108;0.2815;-0.0662;0.2366
0001347043;7.6016;2.9712;2.6097;0.2805;-0.0432;0.2393
0001347052;7.4531;3.1125;2.4780;0.2421;-0.0191;0.2362
0001347061;7.2832;3.1771;2.2889;0.2122;-0.0039;0.2202
0001347074;7.2688;3.1340;2.2577;0.1435;0.0245;0.1981
0001347083;7.0485;3.1364;2.2146;0.0907;0.0420;0.1849
0001347095;7.1802;3.2920;2.2122;0.0160;0.0612;0.1681
0001347104;6.9839;3.2250;2.3296;-0.0609;0.0771;0.1644
0001347117;6.9911;3.4931;2.3128;-0.1408;0.0851;0.1510
0001347126;6.5481;3.1819;2.3798;-0.2062;0.0675;0.1468
0001347135;6.4883;3.4285;2.4373;-0.2458;0.0686;0.1343
0001347147;6.5170;3.3686;2.4708;-0.3090;0.0518;0.1172
0001347156;6.8115;3.3615;2.5666;-0.3644;0.0592;0.1066
0001347169;6.9384;3.3782;2.8635;-0.4422;0.0735;0.0825
0001347178;6.9695;3.1915;3.1603;-0.4872;0.0950;0.0584
0001347190;7.6160;3.3423;3.4285;-0.5502;0.1588;0.0389
0001347199;7.8913;3.2825;3.6990;-0.5821;0.2125;0.0164
0001347208;8.1116;3.4117;3.7613;-0.6198;0.2783;0.0072
0001347221;8.7221;3.3854;3.6990;-0.6643;0.3732;-0.0244
0001347230;8.7221;3.3016;3.4907;-0.6835;0.4278;-0.0562
0001347242;8.1930;3.1388;3.1436;-0.7206;0.4838;-0.0793
0001347251;7.6591;3.1436;2.6935;-0.7667;0.5028;-0.0795
0001347318;6.0549;1.8747;3.7397;-0.5470;0.2927;-0.0718
0001347327;6.4165;2.0638;3.5937;-0.4258;0.2414;-0.0597
0001347336;6.8211;2.3415;3.7278;-0.3372;0.1877;-0.0645
0001347348;7.3191;2.5809;3.8211;-0.2609;0.1549;-0.0542
0001347357;7.6830;2.6671;3.8188;-0.2176;0.1495;-0.0449
0001347370;8.0086;2.3990;3.9265;-0.1907;0.1597;-0.0322
0001347379;7.8865;2.0662;4.0294;-0.1705;0.1879;-0.0047
0001347391;7.7644;1.6017;4.0007;-0.1279;0.2140;0.0125
0001347400;7.4077;1.2354;3.8642;-0.0761;0.2285;0.0236
0001347413;6.9049;1.0223;3.9816;-0.0156;0.2294;0.0402
0001347422;6.7109;1.1492;4.2210;0.0220;0.2094;0.0474
0001347431;6.6080;1.2019;4.1515;0.0540;0.1825;0.0652
0001347443;6.2632;1.3527;4.4891;0.0520;0.1270;0.0637
0001347452;6.0334;1.2258;4.5969;0.0685;0.0722;0.0827
0001347465;6.4883;1.4341;4.8554;0.0834;-0.0017;0.1019
0001347474;6.7062;1.1947;4.8267;0.1090;-0.0662;0.1111
0001347486;7.1946;1.1013;4.8219;0.1276;-0.1541;0.1078
0001347495;7.5034;1.1564;4.8291;0.1384;-0.2037;0.1079
0001347504;7.5729;1.0846;4.6950;0.1459;-0.2413;0.1033
0001347517;7.6112;1.2043;4.5777;0.1668;-0.2956;0.0490
0001347526;7.4388;1.0463;4.4724;0.1761;-0.3175;0.0073
0001347538;7.3813;1.4485;4.3670;0.1776;-0.3387;-0.0781
0001347547;7.3598;1.6544;4.4317;0.1659;-0.3409;-0.1304
0001347614;8.6838;2.0806;3.9528;0.1896;-0.3932;0.0116
0001347623;8.7340;1.7693;3.8762;0.1974;-0.3579;0.0695
0001347632;8.7317;1.6855;3.8235;0.2245;-0.3260;0.1222
0001347644;8.6526;1.3910;3.7996;0.2535;-0.2645;0.2044
0001347653;8.7269;1.4317;3.8714;0.2765;-0.2193;0.2478
0001347666;8.5114;1.4461;3.8044;0.3031;-0.1496;0.3102
0001347675;8.3558;1.5060;3.8403;0.3135;-0.1034;0.3312
0001347687;8.2648;1.6424;3.8834;0.3216;-0.0442;0.3548
0001347696;8.1331;1.7358;3.8762;0.3182;-0.0013;0.3748
0001347705;7.8985;1.8316;3.8882;0.3094;0.0378;0.3776
0001347718;7.9918;1.6544;3.8211;0.2685;0.0794;0.3798
0001347727;8.0900;1.6855;3.7733;0.2579;0.1190;0.3629
0001347739;7.8075;1.4246;3.7733;0.2635;0.1728;0.3515
0001347748;7.4603;1.0463;3.6919;0.2590;0.2012;0.3556
0001347761;8.2696;1.1301;3.5003;0.2601;0.2501;0.3453
0001347770;8.0972;1.0678;3.5602;0.2825;0.2823;0.3421
0001347779;8.3390;1.2522;3.4692;0.2980;0.3242;0.3336
0001347791;8.3797;1.5131;3.3806;0.2791;0.3781;0.3335
0001347800;8.6790;1.7166;3.4548;0.2607;0.4141;0.3244
0001347813;8.3917;1.8962;3.4189;0.2627;0.4553;0.3175
0001347822;8.1570;1.6999;3.3591;0.2554;0.4870;0.3106
0001347831;7.9392;2.0423;3.4022;0.2698;0.4972;0.3058
0001347843;7.9416;1.8364;3.2489;0.2358;0.5043;0.2810
0001347852;7.9009;1.9824;3.2130;0.2389;0.5117;0.2707
0001347919;8.1068;2.2410;2.9712;0.3345;0.4175;0.2004
0001347928;8.1499;2.5426;2.9018;0.3461;0.4025;0.2078
0001347940;8.1977;2.1596;3.0215;0.3476;0.3563;0.2013
0001347949;8.0158;2.0997;2.8754;0.3569;0.3400;0.2025
0001347958;8.1451;2.2266;2.7797;0.3858;0.3126;0.1932
0001347971;8.0254;2.0399;2.7007;0.4114;0.2926;0.1816
0001347980;7.5729;2.0135;2.6743;0.4370;0.2734;0.1655
0001347992;7.4412;1.9728;2.5379;0.4687;0.2345;0.1462
0001348001;7.4340;2.2338;2.4493;0.4824;0.1871;0.1248
0001348014;7.3861;2.1811;2.4493;0.4790;0.1266;0.1099
0001348023;7.3813;2.1165;2.4900;0.4671;0.0825;0.0897
0001348032;7.4148;2.0638;2.5498;0.4491;0.0461;0.0778
0001348044;7.4986;1.9417;2.3320;0.4314;-0.0065;0.0561
0001348053;7.8554;2.1572;2.2841;0.4270;-0.0345;0.0273
0001348066;8.0182;2.0518;2.2314;0.4106;-0.0512;-0.0188
0001348075;8.4036;2.0183;2.3631;0.3849;-0.0437;-0.0416
0001348087;8.7628;2.2290;2.2146;0.3611;-0.0225;-0.0785
0001348096;8.7795;2.2673;2.1428;0.3436;-0.0020;-0.1034
0001348105;8.6526;2.3798;2.1739;0.3144;0.0294;-0.1038
0001348118;8.5617;2.7461;2.1668;0.2766;0.0667;-0.1146
0001348127;8.4827;2.8874;2.0901;0.2394;0.1018;-0.1077
0001348139;8.3797;3.1699;2.2745;0.1956;0.1311;-0.1038
0001348148;8.4252;2.9377;2.3966;0.1629;0.1462;-0.0881
0001348215;8.7724;2.8706;2.4565;0.1196;0.1211;-0.0017
0001348224;8.7269;2.9616;2.4229;0.0861;0.1272;-0.0081
0001348233;8.8083;2.9018;2.3128;0.0517;0.1346;-0.0061
0001348245;8.5928;2.7007;2.5259;0.0257;0.1395;-0.0004
0001348254;8.7125;2.7318;2.3727;0.0216;0.1358;-0.0041
0001348267;8.5808;2.7509;2.3511;0.0217;0.1386;-0.0131
0001348276;8.5305;2.7366;2.4181;0.0060;0.1584;-0.0111
0001348287;8.5329;2.6671;2.3272;0.0056;0.1729;-0.0257
0001348296;8.7915;2.7892;2.3846;-0.0151;0.1909;-0.0260
0001348305;8.7077;2.9042;2.3176;-0.0433;0.2212;-0.0246
0001348319;8.7508;3.1556;2.3727;-0.0958;0.2487;-0.0237
0001348328;8.5329;2.9832;2.4277;-0.1294;0.2557;-0.0294
0001348341;8.2935;2.9521;2.3679;-0.1764;0.2811;-0.0252
0001348350;8.4851;2.9808;2.3846;-0.1977;0.2827;-0.0357
0001348362;8.2169;2.6480;2.2865;-0.2141;0.2907;-0.0457
0001348371;8.2361;2.5067;2.3176;-0.2177;0.2900;-0.0557
0001348380;8.2863;2.3272;2.2769;-0.2172;0.2886;-0.0655
0001348393;8.4420;2.4181;2.3367;-0.2125;0.2899;-0.0910
0001348402;8.5258;2.2003;2.3679;-0.2172;0.3003;-0.0987
0001348414;8.6814;2.4229;2.4157;-0.2298;0.3150;-0.1175
0001348423;8.8131;2.4900;2.4612;-0.2264;0.3311;-0.1224
0001348490;7.8865;3.6583;3.3926;-0.3531;0.3387;0.0286
0001348499;7.8506;3.5267;3.3519;-0.3684;0.3138;0.0585
0001348511;7.6758;3.1603;3.2130;-0.3854;0.2677;0.0809
0001348520;7.6854;3.1005;3.0598;-0.3989;0.2398;0.0950
0001348529;7.6591;2.9904;3.0909;-0.4080;0.2005;0.0902
0001348542;7.7931;2.7294;2.8922;-0.3994;0.1494;0.0859
0001348551;7.8985;2.5115;2.9712;-0.3914;0.1143;0.0846
0001348563;8.0828;2.7007;2.9137;-0.3672;0.0562;0.0817
0001348572;8.1834;2.6001;2.7509;-0.3572;0.0193;0.1027
0001348585;8.3175;2.6528;2.5642;-0.3347;-0.0276;0.1200
0001348594;8.6622;2.4660;2.3583;-0.3281;-0.0420;0.1298
0001348603;8.9399;2.4636;2.2889;-0.3119;-0.0500;0.1400
0001348615;9.2249;2.3104;2.1500;-0.3034;-0.0284;0.1532
0001348624;9.3134;2.2075;2.0853;-0.2926;0.0104;0.1708
0001348637;9.3182;2.2386;2.3774;-0.2811;0.0686;0.1966
0001348646;9.2703;2.1117;2.4277;-0.2775;0.1176;0.2157
0001348658;9.0309;2.3056;2.5857;-0.2799;0.1864;0.2395
0001348667;8.7053;2.3343;2.8084;-0.2805;0.2316;0.2447
0001348676;8.2672;2.2553;2.9137;-0.2844;0.2782;0.2449
0001348689;8.0182;2.4397;3.3255;-0.3006;0.3220;0.2342
0001348698;7.5417;2.4852;3.5147;-0.3144;0.3292;0.2209
0001348710;7.2065;2.4205;3.6440;-0.3212;0.3159;0.2012
0001348719;6.8642;2.3511;3.7134;-0.3184;0.2794;0.1815
0001348786;7.9440;1.8004;3.7421;-0.1941;0.0949;0.0045
0001348795;7.8673;1.8747;3.8690;-0.1917;0.1138;-0.0250
0001348804;7.8817;1.8890;3.9169;-0.1917;0.1384;-0.0610
0001348816;7.4939;1.9944;3.9959;-0.2210;0.1745;-0.0970
0001348825;7.5800;2.1069;4.0318;-0.2306;0.1943;-0.1130
0001348838;7.3694;2.0135;4.0797;-0.2658;0.2242;-0.1263
0001348847;6.9312;1.7837;4.1611;-0.2864;0.2368;-0.1279
0001348859;6.9025;1.4461;4.2066;-0.3018;0.2525;-0.1159
0001348868;6.8594;1.4533;4.2880;-0.2958;0.2609;-0.1119
0001348881;6.7780;1.3288;4.3838;-0.2886;0.2750;-0.1037
0001348890;6.6415;1.2139;4.3144;-0.2759;0.2790;-0.1102
0001348899;6.4380;1.1133;4.3407;-0.2647;0.2862;-0.1118
0001348911;6.5936;1.1396;4.3958;-0.2317;0.2689;-0.1340
0001348920;6.3159;1.0008;4.2808;-0.1908;0.2511;-0.1434
0001348933;6.3518;1.0918;4.2186;-0.1251;0.2226;-0.1438
0001348942;6.2728;1.1109;4.2425;-0.0755;0.1985;-0.1406
0001348954;6.1986;1.2426;4.2377;-0.0080;0.1523;-0.1380
0001348963;6.2369;1.5658;4.1252;0.0278;0.1176;-0.1399
0001348972;6.1411;1.8483;4.3287;0.0564;0.0652;-0.1418
0001348985;6.1172;2.0207;4.3646;0.0757;0.0035;-0.1528
0001348994;6.0023;1.3934;4.5466;0.0738;-0.0316;-0.1688
0001349006;6.4979;2.1045;4.2473;0.0969;-0.0734;-0.1847
0001349015;6.2968;2.0542;4.2138;0.0863;-0.0967;-0.1993
0001349082;7.3023;1.6185;4.1156;0.0524;-0.0526;-0.1817
0001349091;7.2568;1.4222;3.9169;0.0557;-0.0380;-0.1681
0001349103;6.8426;1.8052;3.8858;0.0898;-0.0200;-0.1532
0001349112;6.9240;1.5802;3.8379;0.0819;-0.0125;-0.1603
0001349121;6.3686;1.8603;4.2329;0.1179;-0.0105;-0.1669
0001349134;6.6319;1.7358;4.1228;0.1055;-0.0221;-0.1624
0001349143;6.0358;1.9130;4.2928;0.1298;-0.0336;-0.1684
0001349155;6.0741;1.8914;4.0725;0.1379;-0.0675;-0.1689
0001349164;6.0813;1.9585;3.9983;0.1444;-0.0975;-0.1717
0001349177;6.2968;2.0853;3.8906;0.1549;-0.1311;-0.1744
0001349186;6.3973;1.8771;3.6703;0.1641;-0.1667;-0.1837
0001349195;6.2632;1.7861;3.7326;0.1657;-0.1819;-0.1760
0001349207;6.5290;2.0399;3.4955;0.1748;-0.2066;-0.1772
0001349216;6.5745;2.0470;3.4907;0.1861;-0.2240;-0.1796
0001349229;6.6918;2.0207;3.5530;0.1803;-0.2384;-0.1873
0001349238;6.8259;2.0183;3.4860;0.1749;-0.2419;-0.1777
0001349250;6.8354;1.9609;3.5961;0.1743;-0.2537;-0.1692
0001349259;7.0797;2.1907;3.4692;0.1744;-0.2686;-0.1781
0001349272;6.9719;1.9872;3.4548;0.1711;-0.2924;-0.1655
0001349281;6.7924;2.0446;3.4453;0.1776;-0.2984;-0.1604
0001349290;6.9192;1.9704;3.2130;0.1768;-0.3170;-0.1548
0001349302;6.5410;1.7502;3.2657;0.1869;-0.3461;-0.1515
0001349311;6.5146;1.6041;3.1675;0.1931;-0.3671;-0.1406
0001349380;6.9168;1.5419;2.8826;0.3533;-0.5425;-0.0596
0001349389;7.3215;1.8124;2.7246;0.3765;-0.5478;-0.0517
0001349401;7.2281;1.9728;2.7845;0.3992;-0.5557;-0.0520
0001349410;7.3191;2.1332;2.7390;0.3809;-0.5582;-0.0273
0001349419;7.2784;2.3008;2.7174;0.3643;-0.5741;-0.0115
0001349432;7.2640;2.5091;2.8276;0.3091;-0.5841;0.0232
0001349441;7.0198;2.8156;2.7174;0.2750;-0.5977;0.0384
0001349453;7.1180;3.0502;2.7390;0.2076;-0.5993;0.0649
0001349462;6.9647;3.1436;2.8874;0.1567;-0.5967;0.0733
0001349475;7.2664;3.1556;2.8204;0.1148;-0.5789;0.0648
0001349484;7.4986;3.1077;2.7007;0.0935;-0.5665;0.0536
0001349493;7.5609;2.7198;2.5570;0.0624;-0.5482;0.0578
0001349505;7.7189;2.8706;2.5379;0.1011;-0.5219;0.0398
0001349514;7.7452;2.7581;2.4972;0.0867;-0.4960;0.0378
0001349527;7.7117;2.8204;2.5690;0.0486;-0.4739;0.0342
0001349536;7.5154;2.7940;2.4636;0.0141;-0.4599;0.0389
0001349548;7.4220;2.8084;2.4756;-0.0077;-0.4429;0.0486
0001349557;7.5322;2.7773;2.2984;-0.0244;-0.4243;0.0478
0001349566;7.4867;2.8611;2.2410;-0.0509;-0.4036;0.0480
0001349579;7.4388;2.9712;2.4421;-0.0725;-0.3552;0.0345
0001349588;7.5776;3.1005;2.4445;-0.1026;-0.3190;0.0289
0001349600;7.6614;3.2417;2.5570;-0.1628;-0.2825;0.0017
0001349609;7.2042;2.8419;2.6480;-0.1974;-0.2695;-0.0262
0001349678;8.6191;2.8611;2.8180;-0.2072;-0.1160;-0.2044
0001349687;8.5665;2.8539;3.0909;-0.2146;-0.0701;-0.2218
0001349699;7.9344;2.6312;3.1244;-0.2304;-0.0119;-0.2230
0001349708;7.6926;2.8635;2.9281;-0.2522;0.0233;-0.2029
0001349717;7.0198;2.6983;2.9425;-0.2828;0.0412;-0.1708
0001349730;6.6224;2.8132;2.8778;-0.3271;0.0540;-0.1288
0001349739;6.5673;2.9951;3.0095;-0.3676;0.0614;-0.0951
0001349751;6.6535;3.0622;3.3160;-0.4262;0.0739;-0.0841
0001349760;6.8091;3.3591;3.3399;-0.4762;0.0893;-0.0891
0001349774;7.4771;3.6966;3.5698;-0.5396;0.1311;-0.1203
0001349783;7.8171;3.7038;3.6536;-0.5738;0.1855;-0.1384
0001349796;8.4970;3.5075;3.5338;-0.6013;0.2649;-0.1633
0001349805;8.9232;3.2010;3.6751;-0.6053;0.3222;-0.1627
0001349814;8.6910;2.7390;3.2825;-0.5873;0.3828;-0.1543
0001349826;8.5641;2.6217;3.0143;-0.5493;0.4509;-0.1343
0001349835;8.0637;2.2553;3.0263;-0.4988;0.4915;-0.0909
0001349848;7.4939;2.3367;3.0909;-0.3861;0.5080;-0.0280
0001349857;6.9959;2.4062;3.2801;-0.3028;0.4916;0.0506
0001349869;6.4069;2.5019;3.2729;-0.2097;0.4477;0.1679
0001349878;6.3542;2.5953;3.3399;-0.1617;0.3990;0.2519
0001349887;6.2728;2.5642;3.2968;-0.1135;0.3584;0.3359
0001349900;6.4452;2.1931;3.4740;-0.0755;0.3224;0.4437
0001349909;6.4212;1.6783;3.6368;-0.0236;0.3039;0.5161
0001349979;7.2736;1.4078;4.3024;0.1426;0.3264;0.6089
0001349988;6.8929;1.4796;4.2928;0.1451;0.3325;0.5183
0001350001;6.4667;1.3791;4.3574;0.1664;0.2991;0.3793
0001350010;6.2560;1.3048;4.3958;0.1913;0.2669;0.2834
0001350019;5.5641;1.0606;4.4388;0.2342;0.2142;0.2040
0001350031;5.4205;1.0104;4.4963;0.2915;0.1284;0.1054
0001350040;5.0829;1.1181;4.4125;0.3379;0.0616;0.0429
0001350053;5.6264;1.1085;4.6208;0.3493;-0.0269;-0.0393
0001350062;5.9137;1.0654;4.7716;0.3465;-0.0794;-0.0883
0001350074;6.2082;1.1779;4.7477;0.3327;-0.1467;-0.1262
0001350083;6.7660;1.5131;4.8459;0.3164;-0.1984;-0.1462
0001350092;6.9097;1.5969;4.8794;0.3094;-0.2398;-0.1451
0001350105;7.3191;1.7621;4.9488;0.3096;-0.2966;-0.1170
0001350114;7.4148;1.8555;4.7764;0.3222;-0.3267;-0.0875
0001350126;7.2927;1.7813;4.4628;0.3280;-0.3625;-0.0288
0001350135;7.4340;1.2689;4.0247;0.3533;-0.3938;0.0274
0001350148;7.6878;1.0702;3.6823;0.4335;-0.4137;0.0690
0001350157;7.9679;1.1205;3.4165;0.4932;-0.4235;0.0975
0001350166;8.2313;1.2234;3.0861;0.5401;-0.4293;0.1204
0001350178;8.9519;1.5945;2.8994;0.5596;-0.4041;0.1390
0001350187;9.4236;1.8004;2.9377;0.5694;-0.3676;0.1355
0001350200;9.7157;1.7885;2.8706;0.5808;-0.2875;0.1299
0001350209;9.6606;1.7166;2.7749;0.5889;-0.2290;0.1150
0001350279;8.6742;2.5905;2.7964;0.5804;-0.0071;0.1514
0001350288;8.7628;2.6719;2.8683;0.5765;-0.0040;0.1541
0001350297;8.6095;2.6576;2.8778;0.5512;0.0132;0.1668
0001350310;8.4635;2.6480;2.8491;0.5115;0.0477;0.1857
0001350319;8.8442;2.2218;2.7031;0.5013;0.0526;0.1865
0001350331;8.9160;2.2960;2.7773;0.5085;0.0729;0.1815
0001350340;9.0309;2.4780;2.7150;0.5135;0.0875;0.1847
0001350353;8.9208;2.5546;2.5067;0.4915;0.1167;0.1772
0001350362;8.8633;2.5714;2.6408;0.4650;0.1406;0.1652
0001350371;8.6646;2.5474;2.5450;0.4318;0.1627;0.1559
0001350383;8.8753;2.7964;2.3798;0.3672;0.1949;0.1438
0001350392;8.7580;2.5953;2.4972;0.3332;0.2165;0.1268
0001350405;8.7293;2.7390;2.4157;0.2794;0.2509;0.1167
0001350414;8.4228;2.7414;2.4756;0.2365;0.2733;0.1127
0001350426;8.4683;2.5618;2.4157;0.1958;0.2822;0.1071
0001350435;8.4060;2.6121;2.3703;0.1788;0.2922;0.1007
0001350444;8.2121;2.4684;2.3679;0.1744;0.2891;0.0953
0001350457;8.2193;2.4110;2.1979;0.1589;0.2924;0.0886
0001350466;8.4300;2.6288;2.1093;0.1609;0.2955;0.0731
0001350478;8.9016;2.7940;2.0375;0.1459;0.3114;0.0687
0001350487;8.8202;2.9137;2.0901;0.1375;0.3203;0.0638
0001350496;8.6383;2.7821;2.1093;0.1143;0.3511;0.0787
0001350509;8.6287;2.6887;1.9896;0.0819;0.3768;0.0971
0001350518;8.6048;2.5546;1.9920;0.0585;0.4014;0.1148
0001350588;8.1547;2.2242;1.9273;0.0731;0.4251;0.1680
0001350597;7.8985;2.1117;1.8052;0.0883;0.4093;0.1624
0001350610;8.0254;2.0853;1.7813;0.1154;0.3733;0.1512
0001350619;8.0828;2.2458;1.9106;0.1170;0.3537;0.1510
0001350628;8.0541;2.4253;1.9609;0.1143;0.3160;0.1524
0001350640;7.8530;2.4229;1.9058;0.1066;0.2750;0.1367
0001350649;7.9607;2.4325;1.8723;0.1009;0.2302;0.1198
0001350662;7.8889;2.4804;1.7980;0.0930;0.1687;0.1063
0001350671;7.6974;2.3391;1.6927;0.0807;0.1288;0.1029
0001350683;7.9727;2.3679;1.6352;0.0861;0.0648;0.0781
0001350692;7.9464;2.3583;1.5945;0.0925;0.0196;0.0514
0001350701;8.0230;2.4229;1.5083;0.0985;-0.0337;0.0256
0001350714;8.1954;2.5019;1.6209;0.0911;-0.0890;-0.0121
0001350723;8.1139;2.6528;1.5395;0.0754;-0.1143;-0.0317
0001350735;8.4204;2.8874;1.6017;0.0525;-0.1375;-0.0626
0001350744;8.4276;2.7988;1.6352;0.0368;-0.1545;-0.0939
0001350757;8.8346;2.9018;1.4844;-0.0048;-0.1540;-0.1171
0001350766;8.8298;2.8970;1.7023;-0.0238;-0.1463;-0.1159
0001350775;8.9998;2.8706;1.5754;-0.0368;-0.1398;-0.1274
0001350787;8.7700;2.7198;1.6352;-0.0665;-0.1166;-0.1263
0001350796;8.4180;2.8012;1.6352;-0.0887;-0.0859;-0.1266
0001350809;8.8945;2.7318;1.5514;-0.1047;-0.0722;-0.1146
0001350818;8.9136;2.6863;1.5107;-0.1158;-0.0610;-0.1112
0001350887;8.4467;2.8587;1.6664;-0.2390;0.0260;-0.0983
0001350896;8.1977;2.8539;1.7597;-0.2714;0.0195;-0.1144
0001350909;7.9631;2.7725;1.8172;-0.3184;0.0001;-0.1411
0001350918;7.9440;2.7031;1.7885;-0.3284;-0.0262;-0.1639
0001350927;7.6902;2.4756;1.9872;-0.3396;-0.0457;-0.1748
0001350939;7.8266;2.5546;1.7478;-0.3395;-0.0889;-0.2037
0001350948;7.7835;2.4684;1.8747;-0.3425;-0.1254;-0.2216
0001350961;7.8721;2.4804;1.8196;-0.3357;-0.1681;-0.2398
0001350970;7.8961;2.5355;1.8962;-0.3333;-0.1955;-0.2574
0001350982;8.2744;2.8443;1.8124;-0.3408;-0.2178;-0.2750
0001350991;8.3821;2.7318;1.7430;-0.3485;-0.2330;-0.3004
0001351004;8.7604;2.7438;1.6975;-0.3709;-0.2098;-0.3210
0001351013;9.0261;2.8060;1.8675;-0.3745;-0.1777;-0.3305
0001351022;9.4236;2.8515;1.8172;-0.3889;-0.1463;-0.3277
0001351034;9.5241;2.8994;1.9848;-0.4101;-0.0769;-0.3214
0001351043;9.3877;2.7821;2.1811;-0.4078;-0.0374;-0.3056
0001351056;9.2081;2.8132;2.3703;-0.4073;0.0330;-0.2635
0001351065;9.2656;3.1771;2.5211;-0.4112;0.0741;-0.2254
0001351077;8.9064;3.3471;2.8252;-0.4016;0.1086;-0.1430
0001351086;8.5473;3.4022;3.0789;-0.3960;0.1244;-0.0849
0001351099;7.9847;3.3471;3.1819;-0.3940;0.1202;0.0019
0001351108;8.0637;3.3351;2.9305;-0.3929;0.1053;0.0466
0001351117;8.0541;3.0263;2.8108;-0.4092;0.0909;0.0678
0001351187;9.1315;3.0765;3.0765;-0.5059;0.1058;0.1923
0001351196;8.8514;2.9616;3.0526;-0.5087;0.0811;0.2121
0001351209;8.5329;2.7102;2.7725;-0.4991;0.0398;0.2246
0001351218;8.2744;2.4804;2.4469;-0.4775;-0.0045;0.2174
0001351230;8.3151;2.1691;1.9154;-0.4429;-0.0582;0.2242
0001351239;8.3773;2.2027;1.5969;-0.4090;-0.0975;0.2042
0001351248;8.7029;2.1356;1.3144;-0.4058;-0.1034;0.2002
0001351261;8.8969;2.2170;1.2522;-0.4187;-0.0926;0.1739
0001351270;9.3948;2.2122;1.4246;-0.4366;-0.0686;0.1575
0001351282;9.5241;2.3870;1.6592;-0.4607;-0.0217;0.1591
0001351291;9.5529;2.5833;1.7071;-0.4667;0.0396;0.1548
0001351305;9.2440;2.6911;1.9704;-0.4678;0.1625;0.1522
0001351314;9.0261;2.6264;2.2194;-0.4611;0.2346;0.1587
0001351323;8.5976;2.3296;2.5786;-0.4695;0.3120;0.1703
0001351336;8.1977;2.1931;3.1005;-0.4738;0.3922;0.1456
0001351345;7.9392;2.2649;3.3710;-0.4375;0.4390;0.1292
0001351357;7.6399;2.4157;3.8211;-0.3738;0.4715;0.1025
0001351366;7.4005;2.5115;3.9983;-0.3373;0.4734;0.0743
0001351379;7.4268;2.5379;4.1922;-0.2922;0.4755;0.0250
0001351388;7.4627;2.2601;4.1468;-0.2569;0.4643;-0.0218
0001351397;7.6734;1.9968;4.3407;-0.2149;0.4503;-0.0654
0001351409;7.8290;1.4940;4.2904;-0.1767;0.4574;-0.0942
0001351418;7.8386;1.2091;4.4317;-0.1548;0.4742;-0.1009
0001351487;6.9073;0.4693;4.5274;0.0564;0.5805;-0.0412
0001351496;6.9384;0.7326;4.6304;0.0746;0.5840;-0.0108
0001351508;6.7900;0.8380;4.5777;0.0894;0.5868;0.0426
0001351517;7.0557;1.2785;4.6735;0.1214;0.5718;0.0774
0001351526;6.8546;1.3120;4.7285;0.1295;0.5633;0.1091
0001351539;6.7971;1.2570;4.5514;0.1371;0.5320;0.1338
0001351548;6.9049;1.4676;4.6543;0.1748;0.5105;0.1299
0001351560;6.5505;1.3599;4.5993;0.2236;0.4788;0.0886
0001351569;6.4883;1.3695;4.6112;0.2579;0.4411;0.0496
0001351582;6.1842;1.1851;4.5418;0.2842;0.3884;-0.0071
0001351591;6.0693;1.0295;4.4628;0.2959;0.3459;-0.0421
0001351600;6.0142;1.1492;4.3072;0.3174;0.2828;-0.0793
0001351612;5.8035;1.3144;4.1468;0.3220;0.2045;-0.1274
0001351621;5.6072;1.4964;4.2641;0.3223;0.1506;-0.1639
0001351634;5.7054;1.8340;4.4125;0.3040;0.0755;-0.2048
0001351643;6.3590;1.9824;4.2952;0.2674;0.0264;-0.2248
0001351655;6.0047;2.2865;4.4963;0.2385;-0.0362;-0.2358
0001351664;6.4452;2.3846;4.2425;0.2032;-0.0935;-0.2385
0001351673;6.2441;2.2553;4.2976;0.1932;-0.1390;-0.2427
0001351686;6.4596;2.0901;4.0893;0.1811;-0.2000;-0.2523
0001351695;6.3614;1.9992;4.0366;0.1911;-0.2357;-0.2673
0001351707;6.6343;2.0183;3.9648;0.1893;-0.2610;-0.2642
0001351716;6.1794;2.0566;4.2066;0.2012;-0.2923;-0.2678
0001351785;5.9209;1.7358;3.8906;0.2801;-0.5806;-0.3214
0001351794;6.1603;1.9201;3.8954;0.2855;-0.6198;-0.3399
0001351806;6.2417;2.0806;3.7804;0.2789;-0.6635;-0.3468
0001351815;6.3111;2.0590;3.8259;0.2734;-0.6976;-0.3523
0001351824;6.8019;2.0997;3.6607;0.2691;-0.7432;-0.3509
0001351837;6.5505;2.4517;3.6416;0.2627;-0.7778;-0.3624
0001351846;6.5027;2.3583;3.5506;0.2395;-0.7963;-0.3463
0001351858;6.4069;2.3894;3.5027;0.2252;-0.8318;-0.3387
0001351867;6.8211;2.4086;3.3974;0.2148;-0.8599;-0.3196
0001351880;6.3327;2.4517;3.4069;0.2074;-0.8841;-0.3431
0001351889;6.6415;2.4756;3.2489;0.1743;-0.8986;-0.3488
0001351898;7.0868;2.1668;3.0311;0.1159;-0.9101;-0.3581
0001351910;7.4292;2.1189;2.7461;0.1120;-0.9105;-0.3858
0001351919;7.1467;1.8435;2.6695;0.0957;-0.8809;-0.4069
0001351932;7.1802;1.8914;2.4588;0.0786;-0.8404;-0.4092
0001351941;7.5082;2.0207;2.4876;0.0646;-0.8015;-0.4025
0001351953;7.4531;2.0877;2.6839;0.0370;-0.7564;-0.3789
0001351962;7.5393;2.3320;2.7461;0.0212;-0.7329;-0.3536
0001351975;7.5346;2.6073;2.8683;-0.0029;-0.7119;-0.2854
0001351984;7.1395;2.6695;2.8467;0.0192;-0.7101;-0.2586
0001351993;7.1922;2.8467;2.7174;0.0099;-0.7047;-0.2080
0001352005;7.1036;2.6240;2.6384;0.0028;-0.7167;-0.1653
0001352014;6.9791;2.5474;2.7533;0.0152;-0.7091;-0.1474
0001352081;7.1108;2.3822;2.6312;0.0921;-0.5844;-0.0833
0001352090;7.1850;2.4636;2.5738;0.0867;-0.5741;-0.0562
0001352102;7.4603;2.5091;2.4684;0.0759;-0.5522;-0.0306
0001352111;7.3358;2.6193;2.5522;0.1073;-0.5375;-0.0171
0001352120;7.5322;2.7845;2.4469;0.1216;-0.4998;0.0060
0001352133;7.6231;2.8467;2.5522;0.1198;-0.4631;0.0261
0001352142;7.8290;2.8922;2.5977;0.1322;-0.4327;0.0430
0001352154;7.5776;2.8180;2.5642;0.1475;-0.4044;0.0586
0001352163;7.3574;2.8323;2.5833;0.1319;-0.3813;0.0662
0001352176;7.3167;2.7940;2.6264;0.1026;-0.3631;0.0737
0001352185;7.0940;2.8587;2.5426;0.1171;-0.3405;0.0807
0001352197;6.9456;3.0574;2.7366;0.0810;-0.3461;0.0942
0001352206;6.8091;2.8874;2.7557;0.0574;-0.3677;0.0913
0001352215;6.9695;2.8850;2.6432;0.0288;-0.3749;0.0885
0001352228;6.8283;2.8635;2.4062;-0.0045;-0.3973;0.0661
0001352237;7.1443;2.9904;2.3367;-0.0342;-0.4124;0.0429
0001352249;7.0246;2.7318;2.1284;-0.0657;-0.4385;0.0167
0001352258;7.0366;2.6240;2.0638;-0.0730;-0.4618;-0.0135
0001352271;7.4172;2.4852;1.9848;-0.1158;-0.4852;-0.0191
0001352280;7.1108;2.7102;1.8531;-0.0859;-0.4807;-0.0316
0001352289;7.4867;2.8826;1.7382;-0.0787;-0.4818;-0.0536
0001352301;7.2185;2.8132;1.9178;-0.1098;-0.4808;-0.0574
0001352310;7.3478;3.0287;1.9225;-0.1351;-0.4679;-0.0533
0001352377;7.9727;2.8132;2.7916;-0.2117;-0.3459;-0.0745
0001352386;8.0445;2.7916;2.8587;-0.1909;-0.2980;-0.0843
0001352398;8.5856;2.8683;3.0358;-0.1527;-0.2132;-0.1034
0001352407;8.5521;2.6815;3.2394;-0.1194;-0.1430;-0.1187
0001352420;8.6981;2.9521;2.9209;-0.0755;-0.0580;-0.1358
0001352429;8.5952;3.1101;2.7605;-0.0767;-0.0108;-0.1304
0001352438;8.4300;3.0382;2.5953;-0.0994;0.0328;-0.1166
0001352450;7.9152;3.0478;2.3583;-0.1478;0.0871;-0.0923
0001352459;7.6926;3.0071;2.3320;-0.1843;0.1335;-0.0581
0001352472;7.2784;2.9161;2.1811;-0.2249;0.1615;-0.0216
0001352481;6.6798;2.7198;2.1261;-0.2525;0.1620;0.0107
0001352493;6.4548;2.7198;2.0853;-0.2710;0.1266;0.0389
0001352502;6.0693;2.4277;2.1237;-0.2659;0.0707;0.0549
0001352511;6.0501;2.3320;2.1739;-0.2637;0.0203;0.0679
0001352524;6.2130;2.3391;2.2003;-0.2345;-0.0875;0.0465
0001352533;6.4069;2.1668;2.2745;-0.2013;-0.1555;0.0100
0001352545;6.5050;1.9513;2.5977;-0.1693;-0.2368;-0.0364
0001352554;6.8809;2.1596;2.8683;-0.1532;-0.2677;-0.0795
0001352567;7.5561;2.3870;3.1412;-0.1387;-0.2874;-0.1537
0001352576;7.8243;2.5570;3.3639;-0.1380;-0.2773;-0.2033
0001352588;8.3270;2.8874;3.5003;-0.1359;-0.2547;-0.2763
0001352597;8.2624;2.8563;3.6583;-0.1460;-0.2559;-0.3122
0001352606;7.6614;2.6743;3.5602;-0.1452;-0.2858;-0.3335
0001352673;5.9328;1.7957;3.7876;-0.1901;-0.7446;-0.3481
0001352682;6.5098;1.9393;3.8116;-0.1839;-0.8239;-0.3687
0001352694;6.6894;1.9178;3.7373;-0.2021;-0.8918;-0.3954
0001352703;6.9360;2.0087;3.7062;-0.2028;-0.9407;-0.4205
0001352716;7.2401;2.0087;3.8140;-0.2076;-0.9914;-0.4509
0001352725;7.2568;2.0087;3.8954;-0.2109;-1.0236;-0.4758
0001352737;7.2544;1.9393;4.0318;-0.2168;-1.0684;-0.5002
0001352746;6.9791;1.8268;4.1515;-0.2274;-1.1001;-0.5089
0001352755;7.1060;1.9728;4.0486;-0.2337;-1.1423;-0.5229
0001352769;6.9815;1.9896;4.0199;-0.2479;-1.2165;-0.5425
0001352778;6.8785;1.7478;4.0390;-0.2613;-1.2573;-0.5472
0001352791;7.0150;1.6328;3.6751;-0.2570;-1.3057;-0.5669
0001352800;7.2927;1.7621;3.6033;-0.2517;-1.3368;-0.5813
0001352812;7.4101;1.5179;3.6679;-0.2250;-1.3566;-0.5905
0001352821;7.8626;1.7023;3.6200;-0.2084;-1.3663;-0.5768
0001352834;7.9128;1.6807;3.5769;-0.1719;-1.3829;-0.5461
0001352843;8.0038;1.6257;3.4644;-0.1398;-1.3805;-0.5143
0001352852;7.9009;1.7119;3.3854;-0.1136;-1.3660;-0.4970
0001352864;8.1403;1.8387;3.2537;-0.0838;-1.3324;-0.4703
0001352873;8.3414;1.9321;3.1843;-0.0528;-1.3067;-0.4692
0001352940;8.1786;2.1261;3.0789;0.1224;-1.0116;-0.4443
0001352949;8.2839;2.2314;3.1077;0.1456;-0.9990;-0.4241
0001352961;7.9823;2.3415;3.1268;0.1507;-0.9699;-0.3869
0001352970;8.2337;2.6240;3.0239;0.1430;-0.9574;-0.3798
0001352983;8.1116;2.6576;3.0119;0.1045;-0.9241;-0.3485
0001352992;8.1618;2.7007;3.0933;0.0815;-0.8972;-0.3289
0001353001;8.3582;2.4660;3.0526;0.0522;-0.8907;-0.3054
0001353013;8.2169;2.3870;2.8874;0.0254;-0.8741;-0.2878
0001353022;8.2456;2.4014;2.8371;0.0152;-0.8700;-0.2757
0001353035;8.3749;2.3463;2.7557;0.0008;-0.8668;-0.2623
0001353044;8.0397;2.2218;2.8754;0.0088;-0.8683;-0.2691
0001353056;8.0254;2.3990;2.9616;0.0139;-0.8695;-0.2638
0001353065;7.8506;2.5809;2.9185;0.0237;-0.8873;-0.2635
0001353078;7.4436;2.7701;3.0191;-0.0008;-0.9101;-0.2742
0001353087;7.1682;2.6600;3.1436;-0.0183;-0.9358;-0.2750
0001353096;7.0294;2.4517;3.1340;-0.0362;-0.9573;-0.2895
0001353108;7.1084;2.4660;2.8946;-0.0321;-1.0143;-0.3194
0001353117;7.3071;2.1093;2.9042;-0.0238;-1.0452;-0.3349
0001353130;7.4939;2.1596;2.7653;0.0218;-1.0752;-0.3679
0001353139;7.6279;2.2075;2.8706;0.0397;-1.1049;-0.3818
0001353151;7.9009;2.3320;2.8826;0.0213;-1.0928;-0.3946
0001353160;8.1810;2.6145;2.9377;0.0099;-1.0946;-0.4082
0001353169;8.1930;2.7701;2.9999;-0.0237;-1.0702;-0.4034
0001353236;8.4970;2.6528;2.7533;-0.0642;-0.9141;-0.2871
0001353245;8.5305;2.8060;2.7892;-0.1019;-0.8763;-0.2619
0001353257;8.6646;2.9137;2.7605;-0.1559;-0.8216;-0.2393
0001353266;8.1762;2.6624;3.0478;-0.2018;-0.7726;-0.2418
0001353279;8.5832;2.5043;3.0406;-0.2346;-0.7312;-0.2048
0001353288;8.4036;1.9968;2.8587;-0.2401;-0.7003;-0.1891
0001353300;8.3941;1.9920;2.6959;-0.2136;-0.6463;-0.1696
0001353309;7.9679;1.7286;2.5259;-0.1672;-0.6203;-0.1484
0001353318;7.8913;1.6496;2.3846;-0.1184;-0.5925;-0.1320
0001353331;7.7237;1.7310;2.0710;-0.0560;-0.5359;-0.1339
0001353340;7.9272;1.9968;1.9489;-0.0160;-0.5155;-0.1351
0001353352;8.1475;2.0662;2.0446;0.0254;-0.4883;-0.1447
0001353361;8.2911;2.2266;1.8723;0.0341;-0.4525;-0.1496
0001353374;8.5928;2.7031;1.8627;0.0461;-0.3886;-0.1597
0001353383;8.4803;2.4397;1.8603;0.0482;-0.3333;-0.1703
0001353395;8.3797;2.3535;1.7454;0.0682;-0.2478;-0.1716
0001353404;8.8370;2.4421;1.5299;0.1029;-0.1969;-0.1728
0001353413;8.8059;2.3607;1.5467;0.1298;-0.1276;-0.1502
0001353426;8.9064;2.4373;1.6185;0.1532;-0.0201;-0.1143
0001353435;9.2057;2.6408;1.4964;0.1675;0.0461;-0.1027
0001353447;9.1219;2.5738;1.5850;0.1448;0.1507;-0.0585
0001353456;9.3087;2.5929;1.7262;0.1220;0.2225;-0.0216
0001353523;6.7924;2.9377;2.8347;0.1274;0.2956;0.1689
0001353532;6.7038;3.1053;2.9425;0.1376;0.2336;0.1864
0001353541;6.2177;3.2777;2.9209;0.1553;0.1639;0.2188
0001353553;6.0310;3.0191;2.6863;0.1812;0.0589;0.2273
0001353562;6.1770;2.6288;2.3080;0.1960;0.0067;0.2094
0001353575;6.6104;2.0279;1.7765;0.2274;-0.0445;0.1338
0001353584;7.1635;1.8148;1.5897;0.2511;-0.0506;0.0665
0001353596;7.6327;1.9369;1.5969;0.2746;-0.0373;0.0020
0001353605;7.9679;2.2769;1.6735;0.2715;-0.0167;-0.0242
0001353614;7.8937;2.5474;1.8747;0.2647;0.0000;-0.0200
0001353627;8.0349;3.4931;2.0087;0.2411;0.0064;0.0218
0001353636;7.7357;3.8403;2.1404;0.2070;-0.0188;0.0584
0001353648;7.1778;3.6488;2.3152;0.1430;-0.0618;0.0894
0001353657;6.7828;3.2753;2.3367;0.1034;-0.0975;0.1112
0001353670;6.5410;2.8180;2.2434;0.0710;-0.1613;0.0983
0001353679;6.3614;2.3942;2.2242;0.0616;-0.2004;0.0759
0001353688;6.4572;2.3152;2.1189;0.0620;-0.2286;0.0485
0001353700;6.6559;1.9872;2.1284;0.0582;-0.2610;-0.0028
0001353709;6.8139;1.9680;2.0542;0.0569;-0.2663;-0.0396
0001353722;6.9743;2.0901;2.1261;0.0799;-0.2739;-0.0866
0001353731;7.2353;2.2841;2.1572;0.1070;-0.2835;-0.1061
0001353743;7.4124;2.5426;2.1356;0.1180;-0.2782;-0.1127
0001353752;7.3909;2.6336;2.1620;0.1200;-0.2702;-0.1144
0001353819;7.9966;2.2194;2.9137;-0.0249;0.0226;0.0378
0001353828;7.9416;1.9130;3.1220;-0.0222;0.0610;0.0729
0001353837;7.7644;1.5443;3.0837;-0.0310;0.1131;0.1243
0001353849;7.8171;1.6496;3.2465;-0.0280;0.1498;0.1745
0001353858;7.5848;1.8531;3.1987;-0.0417;0.1659;0.2084
0001353871;7.2760;2.1811;3.2346;-0.0628;0.1723;0.2345
0001353880;6.9384;2.3415;3.2729;-0.0652;0.1636;0.2178
0001353892;6.6367;2.3128;3.3830;-0.0670;0.1507;0.1641
0001353901;6.5266;2.3176;3.2753;-0.0522;0.1359;0.1026
0001353910;6.6798;2.4421;3.2058;-0.0345;0.1271;0.0434
0001353923;6.8354;2.6791;3.0071;0.0049;0.1166;-0.0636
0001353932;7.2042;2.8515;2.8850;0.0286;0.1371;-0.1206
0001353944;7.2257;3.0430;2.7078;0.0645;0.1637;-0.1716
0001353953;7.3287;3.0981;2.4325;0.0633;0.1960;-0.1671
0001353966;7.5609;3.3184;2.3870;0.0504;0.2405;-0.1355
0001353975;7.5441;3.4309;2.2841;0.0414;0.2695;-0.1023
0001353984;7.5992;3.4333;2.3439;0.0109;0.3000;-0.0550
0001353996;7.5537;3.4884;2.2721;-0.0237;0.3304;-0.0155
0001354005;7.4436;3.5937;2.3200;-0.0480;0.3481;-0.0019
0001354018;7.4484;3.7541;2.1189;-0.1071;0.3718;0.0081
0001354027;7.2999;3.6727;2.0925;-0.1486;0.3804;0.0047
0001354041;7.1922;3.4907;1.9992;-0.1919;0.3937;-0.0160
0001354050;6.9791;3.2226;1.9465;-0.1965;0.3926;-0.0434
0001354059;7.0150;3.1029;1.9297;-0.2020;0.3988;-0.0581
0001354126;7.1754;2.4828;1.8555;-0.1925;0.3757;-0.0103
0001354135;7.3071;2.4517;1.8794;-0.1667;0.3639;0.0052
0001354147;7.0509;2.4134;1.6999;-0.1480;0.3637;0.0277
0001354156;6.8929;2.3415;1.7502;-0.1311;0.3612;0.0404
0001354169;6.9168;2.5881;1.8771;-0.1264;0.3488;0.0462
0001354178;6.9384;2.8922;2.0087;-0.1139;0.3281;0.0428
0001354187;6.7876;2.8563;2.1165;-0.1564;0.3212;0.0536
0001354199;6.6200;2.8491;2.0949;-0.1932;0.2954;0.0606
0001354208;6.5817;2.8563;2.0614;-0.2214;0.2774;0.0694
0001354221;6.4763;2.5857;2.0686;-0.2364;0.2386;0.0821
0001354230;6.3997;2.6480;2.1739;-0.2369;0.1984;0.0822
0001354242;6.2728;2.5163;2.1859;-0.2398;0.1536;0.0918
0001354251;5.9951;2.4110;2.1979;-0.2422;0.1178;0.0906
0001354260;5.9831;2.4852;2.1356;-0.2282;0.0734;0.0759
0001354274;6.0382;2.7031;2.1548;-0.2350;0.0171;0.0714
0001354283;5.8514;2.6671;2.1117;-0.2380;-0.0257;0.0550
0001354296;5.8179;2.6121;2.0997;-0.2449;-0.0818;0.0498
0001354305;5.7102;2.6384;2.0494;-0.2489;-0.1211;0.0418
0001354317;5.6790;2.7174;2.0518;-0.2695;-0.1603;0.0470
0001354326;5.6790;2.6983;2.0255;-0.2798;-0.1928;0.0536
0001354335;5.8706;2.7869;1.9441;-0.2978;-0.2177;0.0554
0001354404;6.3303;2.2745;1.9944;-0.2076;-0.3760;-0.0043
0001354413;6.4141;2.3607;1.9537;-0.1990;-0.3709;-0.0081
0001354425;6.4835;2.4397;1.9321;-0.1953;-0.3513;-0.0105
0001354434;6.5146;2.5211;1.9656;-0.1952;-0.3206;-0.0057
0001354447;6.5338;2.5211;2.0782;-0.1860;-0.2874;0.0004
0001354456;6.4955;2.5666;2.0231;-0.1799;-0.2709;0.0024
0001354468;6.2920;2.6695;2.0806;-0.1741;-0.2352;0.0285
0001354477;6.3542;2.6240;2.1835;-0.1796;-0.2129;0.0353
0001354486;6.3063;2.5402;2.6073;-0.1905;-0.1741;0.0469
0001354499;7.1323;2.5690;3.3399;-0.1832;-0.1252;0.0553
0001354508;7.3837;2.5259;3.5027;-0.1601;-0.0698;0.0485
0001354520;8.3486;2.8826;3.2154;-0.1062;0.0061;0.0000
0001354529;8.7101;2.8754;3.0526;-0.0659;0.0783;-0.0665
0001354542;8.7843;2.7797;2.9951;-0.0634;0.2150;-0.1720
0001354551;8.5736;2.4756;2.8874;-0.1029;0.3126;-0.2076
0001354563;7.9009;2.1787;2.3559;-0.1823;0.3988;-0.2060
0001354572;7.6734;2.3846;2.2841;-0.2466;0.4465;-0.1788
0001354581;7.0653;2.1404;2.1117;-0.2882;0.4886;-0.1218
0001354594;6.7109;2.1620;2.2098;-0.3297;0.5320;-0.0701
0001354603;6.4787;2.0758;2.2865;-0.3183;0.5449;-0.0380
0001354615;6.3638;2.1644;2.5379;-0.2603;0.5143;-0.0107
0001354624;6.2489;2.3750;2.7629;-0.2184;0.4870;-0.0072
0001354693;7.3741;1.3312;3.6152;0.0941;0.2425;-0.3046
0001354702;7.6495;1.6879;3.5506;0.0947;0.2212;-0.3240
0001354711;7.6184;2.1141;3.4931;0.0822;0.1889;-0.3329
0001354723;7.3334;2.4972;3.6512;0.0434;0.1765;-0.3036
0001354732;6.7947;2.7174;3.7685;0.0289;0.1776;-0.2623
0001354745;6.4404;2.9951;3.8068;0.0163;0.1547;-0.1993
0001354754;5.9927;3.1508;3.9863;0.0144;0.1191;-0.1222
0001354766;5.7461;3.2513;3.9528;0.0318;0.0506;-0.0063
0001354775;5.4277;3.0646;3.8499;0.0362;-0.0105;0.0851
0001354784;5.7964;2.8754;3.7541;0.0628;-0.0759;0.1624
0001354797;6.4308;2.5426;3.3303;0.1033;-0.1379;0.2426
0001354806;6.9097;2.2529;3.1388;0.1070;-0.1475;0.2539
0001354818;7.4915;2.0303;3.1819;0.1499;-0.1502;0.2723
0001354827;8.1786;2.1404;3.1173;0.1764;-0.1298;0.2887
0001354840;8.5928;2.3463;3.3064;0.2153;-0.1015;0.3136
0001354849;8.4443;2.3607;3.4548;0.2293;-0.0785;0.3365
0001354858;8.2911;2.3846;3.3974;0.2502;-0.0678;0.3496
0001354870;7.9583;2.6767;3.5961;0.2481;-0.0618;0.3639
0001354879;7.8985;2.8874;3.8571;0.2317;-0.0633;0.3683
0001354892;7.8554;3.0167;3.9433;0.2030;-0.0809;0.3405
0001354901;7.7357;3.0813;4.0534;0.1901;-0.1062;0.3080
0001354913;7.8243;3.0095;4.2425;0.1549;-0.1274;0.2805
0001354922;7.8937;3.0263;4.2473;0.1343;-0.1335;0.2471
0001354931;7.9440;2.7892;4.2162;0.1116;-0.1394;0.2212
0001355000;9.4739;2.1165;3.3064;-0.0266;0.0233;0.3092
0001355009;9.5122;2.1213;3.2298;-0.0322;0.0695;0.3405
0001355021;9.3709;1.8244;3.0957;-0.0289;0.1364;0.3588
0001355030;9.1578;1.6281;3.0981;-0.0268;0.1933;0.3841
0001355043;8.9998;1.5371;3.0119;-0.0009;0.2380;0.3986
0001355052;8.7580;1.6185;3.1412;0.0053;0.2694;0.4261
0001355061;8.5904;1.7478;3.1460;0.0191;0.2851;0.4313
0001355073;8.1187;1.6879;3.2154;0.0209;0.3032;0.4313
0001355082;8.2744;1.9345;3.1029;0.0336;0.3111;0.4227
0001355095;7.8243;1.5562;3.1771;0.0536;0.3048;0.3984
0001355104;7.6854;1.4676;3.1005;0.0562;0.2972;0.3857
0001355116;7.7572;1.4772;3.1675;0.0773;0.2661;0.3487
0001355125;7.7237;1.3288;3.2848;0.0861;0.2462;0.3252
0001355134;7.4891;1.4054;3.2633;0.0987;0.2129;0.2994
0001355147;7.4962;1.4437;3.2010;0.1212;0.1687;0.2713
0001355156;7.5346;1.5754;3.1508;0.1180;0.1304;0.2539
0001355168;7.5226;1.5179;3.2920;0.1399;0.0742;0.2182
0001355177;7.6303;1.5203;3.1843;0.1545;0.0261;0.2025
0001355190;7.6399;1.8747;2.9688;0.1649;-0.0096;0.1943
0001355199;7.7788;2.0399;2.8108;0.1628;-0.0187;0.1831
0001355208;7.9511;2.2697;2.7677;0.1379;0.0055;0.1781
0001355220;8.2696;2.5881;2.5833;0.1047;0.0365;0.1641
0001355229;8.3797;2.4804;2.5402;0.0843;0.0669;0.1418
0001355298;9.0166;2.2003;2.3894;-0.0341;0.4966;0.2380
0001355307;9.0070;2.1883;2.3320;-0.0100;0.5549;0.2438
0001355319;9.0501;2.3439;2.4541;0.0183;0.6127;0.2701
0001355328;8.7364;2.3727;2.5355;0.0520;0.6423;0.2906
0001355337;8.6335;2.4038;2.5235;0.0909;0.6632;0.3095
0001355350;8.4611;2.4469;2.4876;0.1250;0.6728;0.3373
0001355359;8.3749;2.5115;2.6552;0.1356;0.6753;0.3523
0001355371;8.1283;2.5762;2.5905;0.1504;0.6614;0.3505
0001355380;7.9607;2.2721;2.6264;0.1420;0.6394;0.3435
0001355389;7.7500;2.2386;2.6073;0.1410;0.6205;0.3239
0001355402;7.9679;2.2601;2.5929;0.1350;0.5846;0.2924
0001355411;7.8219;1.9154;2.5498;0.1278;0.5600;0.2691
0001355423;7.8171;1.8723;2.5666;0.1292;0.5192;0.2395
0001355432;7.9080;1.7238;2.5163;0.1348;0.4944;0.2282
0001355445;7.8578;1.9728;2.4684;0.1467;0.4652;0.2065
0001355454;7.8817;2.0375;2.5379;0.1527;0.4429;0.1923
0001355463;8.0110;2.0542;2.6097;0.1468;0.4281;0.1848
0001355475;8.4036;2.3846;2.4995;0.1259;0.4303;0.1736
0001355484;8.2887;2.3080;2.4253;0.1171;0.4321;0.1661
0001355497;8.7269;2.1189;2.3607;0.1023;0.4551;0.1575
0001355506;8.6072;2.0016;2.3152;0.1021;0.4816;0.1499
0001355518;8.9160;2.0566;2.1787;0.1073;0.5081;0.1474
0001355527;8.8298;2.0949;2.0853;0.1188;0.5228;0.1387
0001355536;8.7819;2.0901;2.0423;0.1143;0.5347;0.1302
0001355605;9.0860;2.9808;2.1811;-0.0849;0.5265;0.0522
0001355614;9.2895;2.8611;2.2553;-0.1013;0.5429;0.0414
0001355626;9.3637;2.8276;2.5426;-0.1094;0.5376;0.0302
0001355635;9.2823;2.6097;2.6624;-0.1119;0.5413;0.0332
0001355648;9.0094;2.3894;2.7509;-0.0954;0.5416;0.0526
0001355657;8.9711;2.4541;2.5714;-0.0589;0.5300;0.0758
0001355666;8.6622;2.3224;2.5235;-0.0328;0.5343;0.1085
0001355678;8.5377;2.2601;2.2338;-0.0056;0.5253;0.1379
0001355687;8.8059;2.4134;2.1524;-0.0087;0.5240;0.1597
0001355700;8.9783;2.4301;2.1907;-0.0481;0.5243;0.1936
0001355709;9.0860;2.5618;2.3583;-0.0870;0.5420;0.2206
0001355721;9.4691;2.8491;3.0023;-0.1693;0.5609;0.2493
0001355730;9.5912;3.0335;3.5458;-0.2257;0.5537;0.2765
0001355739;9.2608;3.2753;3.6392;-0.2765;0.5476;0.3126
0001355752;8.9352;3.6009;3.5530;-0.3014;0.5151;0.3780
0001355761;8.6479;3.6990;3.5267;-0.2823;0.4988;0.4173
0001355772;8.6742;3.9816;3.4285;-0.2781;0.4886;0.4463
0001355781;8.7532;4.1563;3.0215;-0.2870;0.4900;0.4421
0001355795;8.9064;4.2665;2.4972;-0.3043;0.4979;0.4151
0001355804;8.8992;3.9265;2.4277;-0.3375;0.5088;0.3902
0001355813;9.1602;3.5291;2.3080;-0.3882;0.5469;0.3668
0001355882;8.3246;2.1356;4.1420;-0.4323;0.9080;0.3920
0001355891;7.6567;1.7573;4.4412;-0.4330;0.8994;0.3549
0001355903;6.8738;1.5347;4.5801;-0.4243;0.8591;0.3014
0001355912;6.4380;1.2953;4.6878;-0.4105;0.8068;0.2739
0001355925;6.1603;1.0822;4.8961;-0.3762;0.7104;0.2166
0001355934;5.7485;0.4669;5.0254;-0.3536;0.6410;0.1795
0001355943;5.7126;0.3974;5.1691;-0.3243;0.5770;0.1496
0001355955;5.7652;0.2418;5.0254;-0.2673;0.5021;0.1256
0001355964;5.8347;0.0096;4.8842;-0.2268;0.4347;0.1075
0001355977;6.1196;-0.0886;5.0182;-0.1985;0.3701;0.1035
0001355986;6.1794;-0.1508;5.0589;-0.1863;0.3319;0.0922
0001355998;6.4787;0.1939;5.1715;-0.1659;0.2874;0.0798
0001356007;6.3949;0.3543;5.3127;-0.1533;0.2462;0.0655
0001356016;6.3063;0.4501;5.3032;-0.1498;0.2113;0.0564
0001356029;6.3063;0.6512;5.3726;-0.1343;0.1541;0.0237
0001356038;6.2848;0.6680;5.2625;-0.1179;0.1035;-0.0065
0001356050;6.5481;0.8308;5.1020;-0.1006;0.0550;-0.0392
0001356059;6.5386;0.6153;5.0996;-0.0745;0.0112;-0.0659
0001356072;6.6918;0.6153;5.0111;-0.0241;-0.0368;-0.1090
0001356081;6.9360;0.6440;4.9153;0.0185;-0.0706;-0.1455
0001356090;7.0868;0.9002;4.8052;0.0510;-0.0841;-0.1613
0001356102;7.1515;1.0606;4.8147;0.0769;-0.1027;-0.1728
0001356111;7.6806;1.5490;4.9392;0.0967;-0.1111;-0.1684
0001356180;7.5178;1.6951;4.8698;0.1045;-0.1272;-0.1848
0001356189;7.4867;1.4006;4.8195;0.1140;-0.1262;-0.2180
0001356201;7.3143;1.2354;4.7669;0.1042;-0.1144;-0.2467
0001356210;7.6471;1.4676;4.7573;0.1014;-0.1227;-0.2713
0001356223;7.4579;1.2977;4.4628;0.0786;-0.1227;-0.2846
0001356232;7.5178;1.3982;4.4293;0.0745;-0.1200;-0.2955
0001356241;7.2688;1.3503;4.5011;0.0654;-0.1022;-0.2896
0001356253;7.1587;1.2186;4.3958;0.0691;-0.1100;-0.2733
0001356262;7.3430;1.2809;4.4029;0.0803;-0.1184;-0.2625
0001356275;7.3717;1.3048;4.3048;0.1015;-0.1412;-0.2411
0001356284;7.1994;1.3623;4.2425;0.1176;-0.1652;-0.2324
0001356296;7.4148;1.4676;4.2258;0.1136;-0.1841;-0.2269
0001356305;7.2544;1.4509;4.2593;0.1166;-0.1972;-0.2214
0001356314;7.1347;1.6305;4.3814;0.1107;-0.2076;-0.2249
0001356327;7.0246;1.5443;4.2904;0.0946;-0.2244;-0.2278
0001356336;6.8235;1.6568;4.4508;0.0781;-0.2237;-0.2246
0001356348;6.8738;1.6137;4.4484;0.0730;-0.2514;-0.2266
0001356357;6.9073;1.7214;4.2784;0.0690;-0.2821;-0.2340
0001356370;6.8738;1.4629;4.1539;0.0871;-0.3092;-0.2312
0001356379;6.9264;1.5802;3.9409;0.1074;-0.3323;-0.2354
0001356391;6.9145;1.5586;3.8475;0.1227;-0.3564;-0.2350
0001356400;7.1898;1.6879;3.9840;0.1298;-0.3709;-0.2426
0001356409;7.4029;1.9537;3.8475;0.1250;-0.3986;-0.2447
0001356478;7.2209;2.3822;3.8618;0.0494;-0.5151;-0.2261
0001356487;6.9815;2.3846;3.7326;0.0306;-0.5181;-0.2221
0001356499;7.3717;2.4253;3.5841;0.0131;-0.5251;-0.2109
0001356508;7.6495;2.1644;3.6200;0.0101;-0.5313;-0.2190
0001356521;7.6926;2.0279;3.4788;0.0016;-0.5153;-0.2325
0001356530;7.8266;2.0758;3.3734;-0.0005;-0.5064;-0.2389
0001356539;7.8961;1.9154;3.2896;0.0004;-0.5137;-0.2397
0001356551;7.7045;2.0806;3.2010;0.0017;-0.5079;-0.2503
0001356560;7.5369;2.0973;3.1771;-0.0137;-0.5036;-0.2569
0001356573;7.7117;2.1907;3.1795;-0.0344;-0.5271;-0.2495
0001356582;7.1084;2.3439;3.3471;-0.0398;-0.5309;-0.2491
0001356594;6.8666;2.3032;3.2944;-0.0593;-0.5446;-0.2294
0001356603;6.8450;2.3008;3.2633;-0.0625;-0.5558;-0.2181
0001356616;6.8307;2.2673;3.1484;-0.0549;-0.5689;-0.2092
0001356625;6.6295;2.1859;3.2801;-0.0304;-0.5805;-0.2002
0001356634;7.0653;2.0135;3.1891;-0.0077;-0.5931;-0.2065
0001356646;7.2329;2.0518;3.0430;0.0063;-0.6053;-0.2161
0001356655;6.9599;1.9992;2.9544;0.0127;-0.6001;-0.2101
0001356668;7.2233;2.2170;2.7438;0.0143;-0.5930;-0.2202
0001356677;7.2880;2.4828;2.7533;0.0024;-0.5846;-0.2246
0001356689;7.1299;2.7485;2.7773;-0.0203;-0.5564;-0.2256
0001356698;7.1730;2.9616;2.8443;-0.0368;-0.5289;-0.2189
0001356767;5.5713;2.9736;3.5219;-0.2898;-0.6808;-0.3732
0001356776;5.7317;3.0694;3.9409;-0.2946;-0.7224;-0.4110
0001356785;6.1914;2.9975;4.4149;-0.3179;-0.7513;-0.4530
0001356797;7.0701;3.0646;4.9033;-0.3139;-0.7536;-0.5043
0001356806;7.7979;3.2633;4.6280;-0.2934;-0.7438;-0.5546
0001356819;8.4348;3.1987;4.7285;-0.2713;-0.7294;-0.6197
0001356828;7.9176;2.5690;4.4987;-0.2449;-0.7420;-0.6384
0001356840;7.4053;2.2146;4.0725;-0.2088;-0.7866;-0.6419
0001356849;6.9240;2.1500;3.7757;-0.2081;-0.8099;-0.6215
0001356862;6.1746;1.8675;3.6248;-0.1708;-0.8499;-0.6179
0001356871;6.0094;1.8459;3.5219;-0.1306;-0.8918;-0.6250
0001356880;5.7820;1.7645;3.4405;-0.1045;-0.9204;-0.6131
0001356892;5.6647;1.9920;3.1603;-0.0698;-0.9843;-0.6131
0001356901;5.5378;2.0566;3.0406;-0.0734;-1.0384;-0.6145
0001356914;5.7078;2.0470;3.1077;-0.0847;-1.1073;-0.6303
0001356923;5.7628;1.7095;3.1077;-0.0901;-1.1225;-0.6459
0001356935;6.6846;1.5634;3.1125;-0.0791;-1.1225;-0.6800
0001356944;7.4340;1.5921;3.2034;-0.0525;-1.1069;-0.6989
0001356957;8.2289;1.3838;3.3447;-0.0020;-1.0627;-0.7159
0001356966;8.6838;1.6041;3.3734;0.0393;-1.0264;-0.7080
0001356975;9.0022;1.8052;3.5075;0.0646;-0.9800;-0.6975
0001356987;9.1243;1.8148;3.6176;0.1081;-0.9260;-0.6734
0001356996;8.6981;1.6448;3.7350;0.1419;-0.8893;-0.6687
0001357063;8.1570;1.2977;4.3144;0.1547;-0.7453;-0.4886
0001357072;8.3462;1.1947;4.1539;0.1435;-0.7210;-0.4530
0001357084;9.1746;1.3360;4.1348;0.1518;-0.6780;-0.4183
0001357093;9.2464;1.4054;4.0606;0.1410;-0.6273;-0.3808
0001357106;9.6582;1.3886;3.9456;0.1222;-0.5549;-0.3119
0001357115;9.8761;1.7430;3.7996;0.1320;-0.5132;-0.2522
0001357124;9.7827;1.9944;3.8283;0.1616;-0.4592;-0.1604
0001357136;9.5457;2.0279;3.8762;0.1659;-0.3936;-0.0454
0001357145;9.4619;2.1332;3.7589;0.1623;-0.3495;0.0421
0001357158;9.2392;2.0016;3.6871;0.1813;-0.2802;0.1451
0001357167;9.1243;1.8866;3.6176;0.1998;-0.2313;0.1958
0001357179;8.9352;1.6664;3.6775;0.2002;-0.1487;0.2498
0001357188;9.0070;1.3336;3.4979;0.2188;-0.0963;0.2866
0001357197;8.4132;1.2761;3.6919;0.2198;-0.0486;0.2920
0001357210;7.7069;1.1660;3.3255;0.2585;0.0209;0.3353
0001357219;7.8578;1.4629;3.2896;0.3040;0.0542;0.3675
0001357231;8.1834;1.8938;3.1747;0.3415;0.0859;0.3817
0001357240;8.2432;1.9800;3.1843;0.3485;0.1015;0.3792
0001357254;9.2201;2.8611;3.1627;0.2988;0.1355;0.3680
0001357263;9.5624;2.9066;3.3232;0.2602;0.1652;0.3387
0001357272;9.9479;2.9066;3.1508;0.2169;0.2105;0.3047
0001357285;8.9902;2.7773;3.3016;0.1420;0.2794;0.2710
0001357294;8.6503;2.5714;3.3112;0.1009;0.3142;0.2625
0001357362;7.8362;2.0494;3.3662;0.1593;0.2888;0.2677
0001357371;7.7788;2.0063;3.1891;0.1597;0.2895;0.2625
0001357380;8.2648;2.3535;3.0622;0.1724;0.2960;0.2470
0001357393;8.1834;2.1811;3.0023;0.1771;0.3122;0.2509
0001357402;8.3175;2.1668;3.0335;0.1667;0.3312;0.2607
0001357414;8.4755;2.2362;2.9090;0.1498;0.3600;0.2834
0001357423;8.5401;2.3104;3.1149;0.1362;0.3802;0.2955
0001357436;8.5832;2.1428;3.0765;0.1195;0.4242;0.3148
0001357445;8.4994;2.0686;2.9832;0.1100;0.4590;0.3371
0001357454;8.2983;2.0399;2.9473;0.1102;0.4871;0.3513
0001357466;8.4420;2.1883;2.7725;0.1151;0.5171;0.3740
0001357475;8.5976;2.3272;2.8539;0.1191;0.5433;0.3961
0001357488;8.3869;2.4732;2.6935;0.1199;0.5709;0.4117
0001357497;8.4348;2.6432;2.6049;0.1087;0.5893;0.4227
0001357509;8.4563;2.7294;2.5546;0.0870;0.6110;0.4259
0001357518;8.3007;2.7988;2.4349;0.0727;0.6201;0.4211
0001357527;8.3725;2.6959;2.4038;0.0446;0.6331;0.4124
0001357540;8.2121;2.7940;2.4541;0.0236;0.6438;0.4014
0001357549;8.0948;2.5618;2.3487;0.0048;0.6554;0.3974
0001357561;8.0804;2.3080;2.1811;0.0093;0.6588;0.3782
0001357570;8.1068;2.1308;2.1596;0.0211;0.6576;0.3716
0001357583;7.9655;2.0518;2.1811;0.0506;0.6600;0.3487
0001357592;8.1235;2.2889;2.0997;0.0730;0.6584;0.3203
0001357601;7.9344;2.1883;2.1428;0.0935;0.6550;0.3038
0001357669;8.3725;2.5929;2.0423;0.1198;0.7084;0.2010
0001357678;8.4467;2.5762;2.1524;0.1073;0.7301;0.2048
0001357691;8.5545;2.5163;2.1189;0.1067;0.7485;0.2076
0001357700;8.4539;2.4397;2.1308;0.0871;0.7698;0.2245
0001357709;8.5353;2.5283;2.1739;0.0807;0.7903;0.2306
0001357721;7.9918;2.3727;2.3750;0.0644;0.8025;0.2518
0001357730;7.8985;2.1955;2.4469;0.0468;0.8087;0.2615
0001357743;7.8673;2.4565;2.6552;0.0281;0.8019;0.2646
0001357752;7.7979;2.4924;2.6767;0.0123;0.7902;0.2721
0001357764;7.5824;2.5642;2.7557;-0.0036;0.7641;0.2734
0001357773;7.5106;2.4732;2.7725;-0.0211;0.7449;0.2802
0001357782;7.6279;2.4373;2.7749;-0.0183;0.7176;0.2591
0001357795;7.8841;2.2577;2.7031;-0.0145;0.6869;0.2450
0001357804;8.1570;2.1907;2.7653;-0.0100;0.6848;0.2284
0001357816;8.3414;2.1955;2.7222;0.0057;0.6775;0.2109
0001357825;8.8729;2.5307;2.6193;0.0187;0.6835;0.1936
0001357838;9.0980;2.7964;2.5498;0.0156;0.7045;0.1743
0001357847;9.0764;2.9090;2.5594;-0.0055;0.7373;0.1748
0001357856;8.8753;2.8850;2.3990;-0.0240;0.7658;0.1780
0001357868;8.9687;2.9975;2.2817;-0.0566;0.8231;0.1825
0001357877;8.9854;2.9113;2.2218;-0.0695;0.8767;0.1969
0001357890;9.1578;2.9377;2.2314;-0.0986;0.9598;0.2178
0001357899;9.3565;2.9784;2.2027;-0.1310;1.0269;0.2431
0001357967;8.4539;2.9161;3.1220;-0.3199;1.1247;0.3396
0001357976;8.2193;3.0526;3.5937;-0.3761;1.1020;0.3545
0001357985;7.7572;3.4141;3.9097;-0.4181;1.0489;0.3677
0001357998;7.2401;3.5458;3.9002;-0.4088;0.9502;0.4177
0001358007;6.8498;3.7661;3.7852;-0.3675;0.8482;0.4509
0001358019;6.8474;3.2441;3.6320;-0.3325;0.7016;0.4546
0001358028;7.3933;2.7270;3.3519;-0.3120;0.6231;0.4339
0001358041;7.8841;1.8938;2.9736;-0.2320;0.5356;0.4105
0001358050;8.2361;1.6951;2.7294;-0.1676;0.5076;0.4014
0001358059;8.3845;1.3743;2.5067;-0.0926;0.5120;0.3906
0001358071;8.7317;1.5036;2.1691;-0.0212;0.5730;0.3774
0001358080;8.9998;1.8675;2.4876;-0.0047;0.6482;0.3744
0001358093;8.9807;2.4780;3.2729;-0.0819;0.7713;0.3820
0001358102;8.9447;3.0143;3.5721;-0.1533;0.8315;0.4065
0001358114;8.1882;3.2585;3.9720;-0.2157;0.8948;0.4750
0001358123;7.7021;3.2896;4.1061;-0.2469;0.9292;0.5351
0001358132;7.4292;3.1292;4.3958;-0.2486;0.9324;0.5740
0001358145;6.7301;2.6552;4.8243;-0.2221;0.9017;0.6246
0001358154;6.8043;2.3774;5.0302;-0.2010;0.8503;0.6339
0001358166;6.2130;1.7382;5.0302;-0.1704;0.7915;0.6310
0001358175;6.1076;1.1732;5.0182;-0.1487;0.7430;0.6014
0001358188;5.7988;0.5483;4.9991;-0.1092;0.6588;0.5299
0001358197;5.7844;0.0622;5.0925;-0.0854;0.6061;0.4724
0001358206;5.5354;-0.1460;5.0733;-0.0364;0.5416;0.3950
0001358274;6.3614;1.7669;4.7716;0.0678;0.2943;-0.0514
0001358283;6.6679;1.6831;4.6471;0.0843;0.2797;-0.0644
0001358296;6.8235;1.4557;4.4891;0.1256;0.2689;-0.0747
0001358305;7.0413;1.4940;4.4628;0.1508;0.2750;-0.0628
0001358317;7.1970;1.4605;4.5442;0.1713;0.2827;-0.0364
0001358326;7.1994;1.4437;4.6256;0.1803;0.2932;-0.0167
0001358335;7.3071;1.7142;4.6998;0.1721;0.3130;0.0065
0001358348;7.2808;1.7095;4.7405;0.1480;0.3372;0.0304
0001358357;7.2640;1.4820;4.5250;0.1256;0.3505;0.0281
0001358369;7.3239;1.3886;4.4053;0.1096;0.3705;0.0220
0001358378;7.5393;1.3647;4.3886;0.0989;0.3929;0.0292
0001358391;7.5010;1.1396;4.2234;0.1042;0.4133;0.0428
0001358400;7.4077;1.1277;4.2353;0.1114;0.4215;0.0637
0001358409;7.2736;1.2186;4.3024;0.1206;0.4299;0.0919
0001358421;7.2401;1.2713;4.3862;0.1299;0.4334;0.1152
0001358430;7.0653;1.2282;4.2306;0.1406;0.4201;0.1216
0001358443;6.8833;1.2354;4.2353;0.1647;0.3912;0.1116
0001358452;6.7062;1.2306;4.2329;0.1824;0.3637;0.0869
0001358464;6.6008;1.3168;4.2114;0.1993;0.3256;0.0554
0001358473;6.5817;1.1803;4.1899;0.2161;0.2895;0.0195
0001358482;6.4907;1.3815;4.2425;0.2317;0.2571;-0.0079
0001358495;6.4572;1.5850;4.2928;0.2481;0.1919;-0.0509
0001358504;6.5936;1.6759;4.2306;0.2482;0.1531;-0.0786
0001358572;7.1323;1.9992;3.9959;0.1865;0.0958;-0.0849
0001358581;6.7708;1.8196;4.0342;0.1855;0.1070;-0.0762
0001358594;6.6319;1.7430;4.0103;0.1837;0.1049;-0.0586
0001358603;6.8426;1.7885;4.0749;0.2074;0.0905;-0.0545
0001358612;6.9911;1.8771;4.0390;0.2249;0.0918;-0.0428
0001358624;7.3741;2.0255;3.9409;0.2427;0.0691;-0.0207
0001358633;7.2592;2.4181;4.1300;0.2531;0.0628;-0.0009
0001358646;7.1156;2.4086;3.9480;0.2381;0.0622;0.0115
0001358655;6.9863;2.5881;3.8044;0.2197;0.0556;0.0128
0001358667;6.9432;2.1979;3.8116;0.1892;0.0294;0.0264
0001358676;7.1371;2.1069;3.6703;0.1872;0.0065;0.0172
0001358685;7.4555;2.2673;3.5817;0.1733;-0.0193;0.0342
0001358698;6.9001;2.1739;3.7278;0.1711;-0.0356;0.0116
0001358707;6.6846;2.2098;3.6248;0.1569;-0.0501;-0.0071
0001358719;6.3973;2.2960;3.6224;0.1378;-0.0865;-0.0316
0001358728;6.3614;2.1739;3.5793;0.1207;-0.1152;-0.0300
0001358741;6.3231;2.0423;3.4884;0.1147;-0.1769;-0.0233
0001358750;6.9719;2.1524;3.4333;0.1143;-0.2144;-0.0051
0001358759;6.6415;2.2003;3.4333;0.1343;-0.2547;-0.0009
0001358771;6.5050;2.4229;3.4548;0.1272;-0.2850;0.0023
0001358780;6.2920;2.4205;3.2513;0.1061;-0.3035;0.0060
0001358794;6.8235;2.2697;3.2489;0.0532;-0.3459;0.0073
0001358803;6.8043;1.9776;3.0670;0.0464;-0.3529;0.0148
0001358872;7.3694;2.0063;2.8778;0.0649;-0.4045;0.0885
0001358881;7.3885;1.9992;2.8563;0.0691;-0.4124;0.0994
0001358890;7.4196;2.2721;2.8922;0.0791;-0.4114;0.1123
0001358902;7.5369;2.5331;2.8611;0.0781;-0.3969;0.1234
0001358911;7.8003;2.5833;2.8180;0.0550;-0.3904;0.1375
0001358924;7.7189;2.9473;2.7366;0.0398;-0.3528;0.1388
0001358933;7.8243;2.8826;2.8922;-0.0056;-0.3285;0.1378
0001358945;7.7452;2.9760;2.9329;-0.0406;-0.2952;0.1194
0001358954;7.7764;2.9688;2.9928;-0.0729;-0.2702;0.0970
0001358963;7.6112;2.8539;2.9305;-0.1037;-0.2625;0.0714
0001358976;7.5346;2.6288;2.8778;-0.1146;-0.2570;0.0401
0001358985;7.6614;2.5666;2.7222;-0.1176;-0.2686;0.0099
0001358997;7.9080;2.4469;2.5762;-0.1100;-0.2847;-0.0120
0001359006;7.9272;2.6791;2.4373;-0.0722;-0.2886;-0.0496
0001359019;7.8602;2.8635;2.4948;-0.0613;-0.3047;-0.1087
0001359028;7.8817;3.0789;2.5714;-0.0723;-0.3198;-0.1545
0001359040;7.5010;3.0095;2.6480;-0.0771;-0.3359;-0.1993
0001359049;7.2927;2.9616;2.7342;-0.0781;-0.3535;-0.2144
0001359058;7.4531;2.8994;2.5786;-0.0621;-0.3677;-0.2270
0001359071;7.8937;3.1532;2.7342;-0.0484;-0.3840;-0.2258
0001359080;7.8027;2.9664;2.7749;-0.0432;-0.3789;-0.2281
0001359092;8.2959;3.1508;3.1220;-0.0406;-0.3563;-0.2409
0001359101;8.4803;3.2322;3.2920;-0.0524;-0.3136;-0.2522
0001359170;8.1355;2.7366;2.7605;-0.1451;0.1094;-0.1579
0001359179;7.6543;2.5833;2.6408;-0.1494;0.1366;-0.1386
0001359191;6.9360;2.2242;2.5762;-0.1394;0.1651;-0.1063
0001359200;6.6415;2.2242;2.5450;-0.1436;0.1693;-0.0833
0001359209;6.3470;1.9944;2.4972;-0.1436;0.1519;-0.0622
0001359222;6.1842;1.7765;2.4588;-0.1211;0.0957;-0.0565
0001359231;6.1794;1.5993;2.3631;-0.1138;0.0393;-0.0554
0001359243;6.1818;1.3072;2.8395;-0.0810;-0.0384;-0.0705
0001359252;6.5050;1.3934;3.2322;-0.0485;-0.0783;-0.1059
0001359265;6.9145;1.5060;3.7637;0.0071;-0.0977;-0.1803
0001359274;7.1515;1.6185;4.3287;0.0394;-0.0885;-0.2308
0001359283;7.4124;1.7837;4.8219;0.0705;-0.0814;-0.2835
0001359295;7.4292;1.9680;5.0063;0.0959;-0.0841;-0.3367
0001359304;7.2137;1.9609;4.9895;0.0901;-0.1164;-0.3681
0001359317;6.8115;1.7166;4.9895;0.0653;-0.1932;-0.3781
0001359326;6.6894;1.7119;4.9105;0.0381;-0.2535;-0.3741
0001359338;6.2968;1.1468;4.8818;0.0266;-0.3511;-0.3649
0001359347;6.5218;1.2665;4.8794;0.0203;-0.4195;-0.3676
0001359360;6.9647;1.5682;4.7190;0.0281;-0.4979;-0.3619
0001359369;7.0318;1.5347;4.6831;0.0389;-0.5397;-0.3667
0001359378;7.3239;1.8531;4.6040;0.0606;-0.5641;-0.3652
0001359390;7.7500;1.8651;4.5849;0.0691;-0.5676;-0.3537
0001359399;8.1570;2.0638;4.3311;0.0803;-0.5365;-0.3138
0001359468;9.2464;2.0901;3.8954;0.2573;-0.0570;0.1549
0001359477;9.0860;2.0446;3.7110;0.2821;0.0019;0.1941
0001359489;8.9016;2.0662;3.4836;0.2809;0.0644;0.2397
0001359498;8.8897;2.0830;3.4740;0.2870;0.1082;0.2609
0001359507;8.3246;2.0399;3.5721;0.3008;0.1535;0.2694
0001359520;8.3749;2.0806;3.5267;0.2697;0.1948;0.3051
0001359529;8.4851;2.2003;3.6152;0.2613;0.2265;0.3216
0001359541;8.5353;2.3272;3.5338;0.2638;0.2711;0.3525
0001359550;8.4108;2.3607;3.5195;0.2598;0.2906;0.3781
0001359563;7.8458;2.2051;3.7876;0.2350;0.3435;0.4322
0001359572;8.6024;2.2410;3.5075;0.2069;0.3617;0.4503
0001359581;8.5353;2.0997;3.5338;0.1958;0.3960;0.4698
0001359593;8.9016;2.0758;3.6129;0.1968;0.4479;0.4696
0001359602;8.5569;2.1476;3.5171;0.2026;0.4940;0.4676
0001359615;8.9615;2.1093;3.2394;0.1755;0.5331;0.4808
0001359624;8.8394;2.0494;3.1651;0.1720;0.5560;0.4759
0001359633;8.6981;1.9249;3.2034;0.1620;0.5850;0.4624
0001359645;8.6981;2.4110;3.3255;0.1308;0.6360;0.4493
0001359654;8.7173;2.5833;3.3136;0.0943;0.6728;0.4353
0001359667;8.2959;2.5043;3.6152;0.0306;0.7302;0.4291
0001359676;9.0142;2.4852;3.4093;0.0107;0.7534;0.4186
0001359688;8.9926;2.1308;3.3447;-0.0103;0.7921;0.4194
0001359697;8.8298;2.0327;3.3854;-0.0137;0.8236;0.4235
0001359706;8.9663;2.0614;3.3064;-0.0289;0.8540;0.4195
0001359775;8.6503;1.0439;2.9161;-0.1092;1.2788;0.2535
0001359784;8.2791;1.2210;2.9305;-0.1043;1.3146;0.2475
0001359796;8.2241;1.5490;2.9425;-0.0897;1.3250;0.2449
0001359805;8.1283;1.7765;2.9521;-0.0807;1.3375;0.2463
0001359818;8.0254;2.1524;2.9257;-0.0862;1.3426;0.2330
0001359827;7.9080;2.3463;3.0119;-0.0987;1.3391;0.2426
0001359834;7.9057;2.4948;3.0550;-0.1053;1.3311;0.2530
0001359845;7.6543;2.4517;2.8898;-0.0825;1.3182;0.2647
0001359853;7.6064;2.5426;2.7677;-0.0458;1.2955;0.2782
0001359865;7.5010;2.2434;2.4732;0.0225;1.2729;0.3104
0001359873;7.3813;2.1739;2.2098;0.0735;1.2601;0.3273
0001359884;7.6854;2.4181;2.0375;0.1484;1.2470;0.3527
0001359892;7.5561;2.3415;1.8962;0.1939;1.2397;0.3842
0001359900;7.6543;2.4038;1.9369;0.2304;1.2251;0.4089
0001359912;7.5465;2.4253;1.9968;0.2366;1.2526;0.4507
0001359920;8.1068;2.2889;2.3511;0.2314;1.2606;0.4723
