time;acc_x;acc_y;acc_z;gyro_x;gyro_y;gyro_z
0001445394;7.2640;2.6935;2.2003;-0.0133;-0.0486;-0.0156
0001445402;7.3119;2.6959;2.1691;-0.0145;-0.0514;-0.0131
0001445409;7.2257;2.7031;2.2075;-0.0135;-0.0533;-0.0128
0001445417;7.2401;2.7605;2.1835;-0.0099;-0.0618;-0.0188
0001445426;7.1180;2.5618;2.2075;-0.0091;-0.0624;-0.0165
0001445434;7.1682;2.6671;2.2338;-0.0173;-0.0580;-0.0160
0001445446;7.1970;2.5857;2.2027;-0.0188;-0.0588;-0.0160
0001445454;7.3526;2.7485;2.2027;-0.0241;-0.0612;-0.0188
0001445462;7.0390;2.5498;2.2793;-0.0229;-0.0663;-0.0164
0001445473;7.1012;2.4373;2.2482;-0.0212;-0.0650;-0.0157
0001445481;7.1275;2.4565;2.3248;-0.0211;-0.0648;-0.0168
0001445493;7.0701;2.4828;2.2242;-0.0131;-0.0726;-0.0216
0001445501;7.2760;2.6791;2.1931;-0.0123;-0.0757;-0.0229
0001445512;7.0533;2.4876;2.2960;-0.0169;-0.0710;-0.0189
0001445520;7.1970;2.5498;2.1620;-0.0156;-0.0721;-0.0213
0001445532;7.1994;2.7150;2.1715;-0.0183;-0.0734;-0.0232
0001445540;7.2137;2.5833;2.1979;-0.0209;-0.0698;-0.0136
0001445548;7.1658;2.6384;2.2529;-0.0196;-0.0717;-0.0191
0001445615;7.1563;2.6312;2.1476;-0.0262;-0.0725;-0.0129
0001445623;7.1946;2.5570;2.2553;-0.0280;-0.0677;-0.0085
0001445635;7.1299;2.6264;2.2098;-0.0252;-0.0717;-0.0117
0001445643;7.1730;2.6001;2.1907;-0.0269;-0.0698;-0.0103
0001445654;7.0174;2.6121;2.1763;-0.0230;-0.0765;-0.0155
0001445662;6.9983;2.5139;2.2314;-0.0302;-0.0713;-0.0148
0001445674;7.2472;2.5331;2.1308;-0.0268;-0.0721;-0.0119
0001445682;7.2568;2.7414;2.2458;-0.0281;-0.0714;-0.0165
0001445690;7.1778;2.5929;2.2841;-0.0241;-0.0719;-0.0137
0001445701;7.2592;2.6480;2.2314;-0.0218;-0.0770;-0.0215
0001445709;7.0892;2.4493;2.2098;-0.0212;-0.0753;-0.0185
0001445721;7.2161;2.6049;2.2386;-0.0265;-0.0711;-0.0176
0001445729;7.1850;2.5881;2.1284;-0.0191;-0.0731;-0.0189
0001445740;7.1299;2.5426;2.3439;-0.0262;-0.0652;-0.0172
0001445748;7.4148;2.6911;2.2410;-0.0244;-0.0598;-0.0121
0001445760;6.9695;2.3535;2.2386;-0.0228;-0.0560;-0.0172
0001445768;7.2472;2.4229;2.2266;-0.0133;-0.0592;-0.0176
0001445776;7.2209;2.5043;2.2793;-0.0163;-0.0530;-0.0073
0001445787;7.1156;2.4134;2.2290;-0.0100;-0.0481;-0.0041
0001445795;7.2113;2.4780;2.2218;-0.0124;-0.0425;-0.0012
0001445807;7.3334;2.6839;2.2936;-0.0115;-0.0400;-0.0040
0001445815;7.1228;2.5570;2.2865;-0.0193;-0.0362;-0.0095
0001445882;7.0820;2.6408;2.1524;-0.0437;-0.0353;-0.0429
0001445890;7.0629;2.7869;2.1931;-0.0429;-0.0300;-0.0482
0001445902;7.1084;2.7605;2.2649;-0.0598;-0.0163;-0.0510
0001445910;7.2305;2.8276;2.2242;-0.0701;-0.0167;-0.0549
0001445918;7.1922;2.7078;2.2625;-0.0717;-0.0143;-0.0538
0001445929;6.9192;2.4995;2.2913;-0.0855;-0.0080;-0.0373
0001445937;7.0749;2.4804;2.2003;-0.0767;-0.0111;-0.0382
0001445949;7.1204;2.5594;2.2793;-0.0693;-0.0093;-0.0281
0001445957;6.9576;2.5450;2.2051;-0.0601;-0.0111;-0.0340
0001445968;7.1204;2.7126;2.3032;-0.0590;-0.0101;-0.0245
0001445976;7.3023;2.7988;2.2218;-0.0649;-0.0080;-0.0269
0001445988;7.1874;2.6983;2.3152;-0.0690;-0.0093;-0.0261
0001445996;7.2042;2.6935;2.2577;-0.0703;-0.0145;-0.0324
0001446004;7.0725;2.7078;2.2242;-0.0690;-0.0196;-0.0297
0001446015;7.0198;2.5426;2.2027;-0.0679;-0.0139;-0.0257
0001446023;7.2377;2.6983;2.1213;-0.0679;-0.0119;-0.0139
0001446035;7.0868;2.6169;2.1572;-0.0661;-0.0056;0.0031
0001446043;6.9719;2.4445;2.1237;-0.0584;-0.0108;0.0025
0001446054;6.9240;2.5426;2.1883;-0.0573;-0.0027;0.0125
0001446062;6.9312;2.5690;2.1691;-0.0592;-0.0039;0.0085
0001446074;7.0150;2.7485;2.1691;-0.0604;-0.0143;0.0012
0001446082;7.0701;2.6935;2.2098;-0.0638;-0.0241;-0.0061
0001446090;6.8354;2.5522;2.1883;-0.0637;-0.0278;-0.0008
0001446158;7.0174;2.6935;2.1213;-0.0862;-0.0881;-0.0096
0001446166;7.0150;2.7031;2.1237;-0.0805;-0.0994;-0.0153
0001446178;7.1443;2.8539;2.0997;-0.0834;-0.1049;-0.0157
0001446186;7.0150;2.6911;2.1069;-0.0925;-0.1058;-0.0187
0001446197;6.8331;2.5690;2.1428;-0.0899;-0.1050;-0.0163
0001446205;6.9528;2.6767;2.0470;-0.0857;-0.1166;-0.0246
0001446217;7.0246;2.8491;2.1572;-0.0905;-0.1138;-0.0244
0001446225;7.0725;2.6695;2.0590;-0.0957;-0.1204;-0.0288
0001446233;7.1850;2.6863;2.0997;-0.1053;-0.1116;-0.0237
0001446244;7.1084;2.7821;2.1428;-0.1065;-0.1147;-0.0280
0001446252;6.9480;2.5163;2.1668;-0.1087;-0.1159;-0.0284
0001446264;6.9264;2.5283;2.1117;-0.1011;-0.1242;-0.0234
0001446272;7.0294;2.4636;2.1189;-0.0957;-0.1243;-0.0209
0001446283;7.1539;2.6121;2.1021;-0.0858;-0.1308;-0.0132
0001446291;6.9863;2.3774;2.2098;-0.0805;-0.1375;-0.0083
0001446303;7.0605;2.4612;2.3607;-0.0683;-0.1380;0.0049
0001446311;7.0868;2.4469;2.1907;-0.0630;-0.1387;0.0064
0001446319;7.0557;2.4325;2.1859;-0.0466;-0.1450;0.0061
0001446330;7.0988;2.5307;2.2218;-0.0342;-0.1455;0.0135
0001446338;7.0054;2.3822;2.2960;-0.0297;-0.1456;0.0216
0001446350;7.0797;2.3080;2.2458;-0.0128;-0.1440;0.0229
0001446358;7.2305;2.3894;2.2697;-0.0035;-0.1423;0.0256
0001446426;7.2975;2.4062;2.3655;0.0183;-0.1347;0.0945
0001446434;7.1347;2.4852;2.4014;0.0328;-0.1456;0.1104
0001446442;6.8857;2.3487;2.5355;0.0406;-0.1529;0.1308
0001446454;6.8402;2.3487;2.6360;0.0669;-0.1833;0.1502
0001446462;6.9336;2.5690;2.6456;0.0670;-0.2029;0.1603
0001446473;6.8929;2.5929;2.7557;0.0580;-0.2437;0.1584
0001446481;6.9264;2.5402;2.7605;0.0358;-0.2619;0.1627
0001446493;6.9264;2.8132;2.8419;-0.0249;-0.3039;0.1508
0001446501;6.8977;2.7845;2.9999;-0.0870;-0.3329;0.1336
0001446509;7.0390;2.7461;2.9808;-0.1402;-0.3667;0.1087
0001446520;6.8331;2.3942;3.1675;-0.2057;-0.4166;0.0753
0001446528;6.4811;2.0087;3.1484;-0.2254;-0.4553;0.0344
0001446540;6.3351;1.6592;3.1005;-0.2030;-0.5203;-0.0550
0001446548;6.4284;1.6807;2.7773;-0.1744;-0.5524;-0.1057
0001446559;6.1411;1.3886;2.7773;-0.1106;-0.6038;-0.1732
0001446567;6.2369;1.4605;2.6695;-0.0600;-0.6363;-0.2056
0001446579;6.2225;1.7669;2.4995;0.0220;-0.6951;-0.2507
0001446587;6.1603;1.8340;2.5187;0.0530;-0.7152;-0.2709
0001446595;6.5362;2.2505;2.4708;0.0841;-0.7450;-0.2851
0001446606;6.8307;2.7342;2.4301;0.0949;-0.7448;-0.2705
0001446614;7.3191;2.9904;2.5857;0.1098;-0.7506;-0.2470
0001446626;7.7500;3.1364;2.5139;0.1034;-0.7472;-0.1982
0001446634;8.0038;3.2298;2.5666;0.1014;-0.7426;-0.1651
0001446702;8.3869;2.7869;1.5467;0.0565;-0.4890;-0.1275
0001446710;8.3294;2.9999;1.7334;0.0300;-0.4487;-0.1154
0001446722;8.1714;3.3567;1.9130;0.0156;-0.4113;-0.0809
0001446730;8.3941;3.4117;2.0686;0.0100;-0.3988;-0.0546
0001446738;8.2839;3.4740;2.2386;0.0013;-0.3802;-0.0165
0001446749;8.1882;3.3447;2.3248;0.0115;-0.3728;0.0221
0001446757;8.2528;3.4596;2.1404;0.0270;-0.3627;0.0516
0001446769;8.1690;2.9736;2.2673;0.0061;-0.3433;0.0753
0001446777;8.1116;2.6097;2.2793;0.0136;-0.3238;0.0851
0001446789;8.2576;2.6959;2.2290;0.0252;-0.3119;0.0810
0001446797;8.2145;2.6552;1.9872;-0.0076;-0.2895;0.0802
0001446805;8.0014;2.5570;2.0638;-0.0187;-0.2817;0.0637
0001446816;8.0589;2.8419;2.0877;-0.0389;-0.2542;0.0573
0001446824;7.9272;2.8012;2.0830;-0.0500;-0.2466;0.0541
0001446836;8.0062;2.8826;2.1045;-0.0751;-0.2321;0.0504
0001446844;7.9775;2.9329;2.1691;-0.0874;-0.2237;0.0554
0001446855;8.0062;2.6767;2.0039;-0.1002;-0.2241;0.0598
0001446863;8.1020;2.7078;2.0111;-0.1085;-0.2285;0.0663
0001446871;8.0972;2.4373;1.9273;-0.1264;-0.2240;0.0629
0001446883;8.2169;2.4421;1.8723;-0.1363;-0.2160;0.0557
0001446891;8.2432;2.3703;1.8747;-0.1415;-0.1989;0.0520
0001446959;8.0373;2.2960;1.8962;-0.1380;-0.0594;-0.0052
0001446967;8.1930;2.4517;1.8172;-0.1470;-0.0466;-0.0048
0001446979;8.0756;2.4445;1.8842;-0.1549;-0.0297;-0.0095
0001446987;8.1139;2.5067;1.8986;-0.1664;-0.0157;-0.0197
0001446998;8.1139;2.5666;2.0279;-0.1893;-0.0009;-0.0316
0001447006;8.0325;2.4684;1.9154;-0.1990;0.0008;-0.0430
0001447014;8.0828;2.6025;2.0016;-0.2104;0.0055;-0.0671
0001447026;7.9918;2.5546;2.0925;-0.2242;0.0072;-0.0870
0001447034;8.0062;2.6791;2.0614;-0.2206;-0.0031;-0.1053
0001447045;7.8266;2.4732;2.1261;-0.2245;0.0020;-0.1074
0001447053;7.9583;2.5666;2.1811;-0.2100;-0.0116;-0.1150
0001447065;7.7835;2.4995;2.1117;-0.2068;-0.0076;-0.1126
0001447073;7.9990;2.4565;2.1835;-0.2054;-0.0067;-0.1001
0001447084;8.0852;2.4325;2.0375;-0.1970;0.0013;-0.0891
0001447092;8.2576;2.4062;2.0782;-0.1985;0.0083;-0.0827
0001447100;8.3629;2.4086;2.0686;-0.1904;0.0204;-0.0733
0001447112;8.5952;2.3870;1.9561;-0.1807;0.0528;-0.0600
0001447120;8.7029;2.4445;2.0087;-0.1689;0.0758;-0.0472
0001447131;8.8059;2.5211;1.9944;-0.1510;0.1226;-0.0312
0001447139;8.6742;2.2913;1.9609;-0.1394;0.1545;-0.0172
0001447151;8.6910;2.3583;1.9632;-0.1222;0.1973;0.0000
0001447159;8.6814;2.3343;1.9154;-0.1170;0.2278;0.0164
0001447167;8.5641;2.4828;1.9082;-0.1127;0.2593;0.0278
0001447233;8.0972;2.7150;1.9321;-0.0943;0.3893;0.0561
0001447241;8.1762;2.7916;1.9106;-0.0942;0.3928;0.0594
0001447253;8.1379;2.8084;2.1165;-0.1046;0.3973;0.0763
0001447261;8.2265;2.8587;2.0518;-0.1111;0.3973;0.0819
0001447272;7.9727;2.7174;2.1356;-0.1203;0.4120;0.0941
0001447280;8.0014;2.6576;2.0853;-0.1207;0.4198;0.0963
0001447288;8.1427;2.6169;2.0566;-0.1251;0.4359;0.0974
0001447300;8.1139;2.5259;2.0830;-0.1328;0.4555;0.0865
0001447308;7.9823;2.5019;2.1261;-0.1366;0.4691;0.0846
0001447319;7.9583;2.7102;2.2146;-0.1475;0.4854;0.0845
0001447327;7.9272;2.6624;2.3583;-0.1657;0.4996;0.0906
0001447339;7.8530;2.9544;2.5642;-0.1937;0.5000;0.0946
0001447347;7.7261;2.8802;2.7390;-0.2138;0.4944;0.1030
0001447355;7.6782;3.0047;2.7677;-0.2205;0.4942;0.1102
0001447366;7.5513;2.9425;2.8539;-0.2114;0.4762;0.1314
0001447374;7.2832;2.9090;2.8443;-0.2164;0.4744;0.1459
0001447386;7.4915;2.8132;2.9353;-0.2334;0.4487;0.1649
0001447394;7.8913;3.0478;2.9736;-0.2537;0.4382;0.1644
0001447405;8.0828;2.9161;2.8563;-0.3166;0.4298;0.1624
0001447413;7.9727;2.6600;2.8778;-0.3696;0.4214;0.1643
0001447425;8.0349;2.7557;2.9736;-0.4550;0.4109;0.1673
0001447433;8.1235;2.6552;2.9137;-0.4815;0.3985;0.1616
0001447441;8.3222;2.8084;2.7725;-0.4888;0.4014;0.1728
0001447509;8.3558;1.6951;2.2721;-0.2603;0.4501;0.2968
0001447517;8.3103;1.6951;2.4804;-0.2136;0.4840;0.3026
0001447529;8.2839;2.0039;2.8228;-0.1748;0.5391;0.3198
0001447537;8.1618;2.3391;3.0095;-0.1611;0.5652;0.3254
0001447548;7.9248;2.6025;3.2178;-0.1525;0.5793;0.3336
0001447556;7.3047;2.4828;3.3662;-0.1645;0.5817;0.3397
0001447564;7.1635;2.5666;3.5434;-0.1780;0.5712;0.3497
0001447576;7.2065;2.8491;3.7852;-0.1929;0.5264;0.3477
0001447584;6.7995;2.6025;3.8834;-0.2014;0.4856;0.3397
0001447595;6.6607;2.4756;3.9217;-0.2066;0.4247;0.3272
0001447603;6.6655;2.1117;3.9265;-0.2017;0.3762;0.3068
0001447615;6.5457;1.8411;3.8882;-0.1877;0.3019;0.2615
0001447623;6.5098;1.4557;3.8786;-0.1681;0.2462;0.2298
0001447631;6.6248;1.4102;3.6583;-0.1491;0.1957;0.1940
0001447642;6.9959;1.3623;3.5841;-0.1330;0.1516;0.1518
0001447650;7.0892;1.4126;3.6344;-0.1254;0.1251;0.1108
0001447662;7.1946;1.5012;3.5698;-0.1152;0.1110;0.0500
0001447670;7.3933;1.6927;3.6727;-0.1088;0.1011;0.0051
0001447681;7.3741;1.8938;3.7757;-0.1239;0.1146;-0.0353
0001447689;7.2544;1.9680;3.9002;-0.1166;0.1158;-0.0648
0001447697;7.3598;2.0806;3.9552;-0.1156;0.1171;-0.0798
0001447709;7.2281;1.9154;3.9959;-0.1214;0.1218;-0.0891
0001447717;7.3287;1.9369;4.0654;-0.1021;0.1130;-0.0999
0001447785;7.7500;0.8356;4.1084;-0.0057;0.0961;0.0326
0001447793;7.9296;0.9481;4.1922;-0.0121;0.1011;0.0665
0001447805;8.0325;1.0439;4.2952;-0.0085;0.1066;0.1252
0001447813;8.1547;1.2450;4.2976;0.0021;0.1219;0.1520
0001447821;7.7165;1.1396;4.3287;0.0107;0.1254;0.1776
0001447832;7.5106;1.0798;4.3862;0.0344;0.1278;0.1989
0001447840;7.5681;1.2617;4.3072;0.0545;0.1268;0.2114
0001447852;7.4053;1.3024;4.4341;0.0805;0.1075;0.2064
0001447860;7.3095;1.6424;4.4053;0.1043;0.0877;0.2030
0001447871;7.0270;1.7214;4.4412;0.1323;0.0390;0.1669
0001447879;6.8785;1.9273;4.5873;0.1370;0.0075;0.1407
0001447887;6.6702;1.9680;4.6088;0.1378;-0.0333;0.0930
0001447899;6.4452;1.9489;4.6759;0.1905;-0.1074;0.0272
0001447907;6.5745;1.9728;4.5298;0.1984;-0.1454;-0.0141
0001447918;6.6702;1.8028;4.4915;0.2273;-0.1933;-0.0765
0001447926;6.7971;1.6712;4.4173;0.2619;-0.2221;-0.1130
0001447938;6.9911;1.8579;4.2904;0.3003;-0.2597;-0.1644
0001447946;7.2736;2.2434;4.1468;0.3076;-0.2722;-0.1964
0001447954;7.3502;2.3391;4.1444;0.3008;-0.2891;-0.2260
0001447965;7.3047;2.2913;4.1970;0.2751;-0.2847;-0.2565
0001447973;7.3741;2.2673;3.9720;0.2574;-0.2863;-0.2777
0001447985;7.3933;2.2218;3.9049;0.2269;-0.2589;-0.2859
0001447993;7.2999;2.0758;3.8044;0.2194;-0.2465;-0.2872
0001448061;7.6088;1.8794;3.5482;0.2050;-0.0601;-0.1723
0001448069;7.5274;1.7645;3.4884;0.2156;-0.0448;-0.1676
0001448077;7.3765;1.7813;3.5314;0.2334;-0.0413;-0.1680
0001448089;7.4077;1.9273;3.5602;0.2439;-0.0301;-0.1567
0001448097;7.2161;1.8220;3.5434;0.2454;-0.0294;-0.1411
0001448108;7.4172;2.1117;3.3830;0.2603;-0.0373;-0.1358
0001448116;7.0030;1.8627;3.5482;0.2790;-0.0512;-0.1279
0001448128;7.0437;1.9561;3.4165;0.2879;-0.0711;-0.1147
0001448136;6.9647;2.0016;3.4836;0.2900;-0.1005;-0.1111
0001448147;7.1323;2.0087;3.3208;0.3095;-0.1359;-0.1168
0001448155;7.0174;2.0470;3.4213;0.3062;-0.1660;-0.1130
0001448163;6.9097;1.9489;3.4141;0.3078;-0.1909;-0.1240
0001448175;6.9719;2.1428;3.3064;0.3160;-0.2290;-0.1371
0001448183;7.0485;2.2122;3.2346;0.3218;-0.2571;-0.1519
0001448195;7.0509;2.4612;3.3160;0.3271;-0.2839;-0.1655
0001448203;7.2257;2.5905;3.1771;0.3218;-0.2980;-0.1643
0001448214;7.3358;2.9113;3.0574;0.2980;-0.3297;-0.1529
0001448222;7.3550;2.6911;3.0909;0.2729;-0.3401;-0.1451
0001448230;7.0844;2.7031;2.9425;0.2649;-0.3532;-0.1516
0001448242;7.0102;2.7461;2.7677;0.2253;-0.3710;-0.1422
0001448250;6.9719;2.7509;2.8539;0.2032;-0.3842;-0.1471
0001448262;7.0557;2.7605;2.8323;0.1569;-0.4081;-0.1492
0001448270;7.4196;3.0789;2.6911;0.1223;-0.4239;-0.1510
0001448339;6.9192;2.5355;2.5211;-0.0229;-0.4417;-0.1789
0001448347;6.8977;2.6624;2.5618;-0.0337;-0.4403;-0.1795
0001448358;7.1084;2.6887;2.4684;-0.0496;-0.4502;-0.1720
0001448366;7.4388;2.6336;2.5283;-0.0644;-0.4461;-0.1616
0001448374;7.4795;2.5618;2.4181;-0.0691;-0.4417;-0.1679
0001448386;7.5250;2.3990;2.3822;-0.0787;-0.4306;-0.1565
0001448394;7.6351;2.5067;2.4493;-0.0811;-0.4230;-0.1588
0001448405;7.5896;2.5953;2.4062;-0.0909;-0.4078;-0.1422
0001448413;7.3909;2.4995;2.4086;-0.0966;-0.4084;-0.1390
0001448425;7.1204;2.1524;2.2098;-0.1195;-0.4186;-0.1114
0001448433;7.3358;2.4565;2.3248;-0.1063;-0.4022;-0.1108
0001448444;7.1323;2.3918;2.4205;-0.0890;-0.3972;-0.1099
0001448452;7.4962;2.5474;2.3296;-0.1065;-0.3892;-0.0978
0001448460;7.5729;2.4565;2.3367;-0.1079;-0.3901;-0.0902
0001448472;7.5082;2.2625;2.3032;-0.1061;-0.3685;-0.0766
0001448480;7.6471;2.2266;2.2386;-0.0962;-0.3551;-0.0766
0001448491;7.6662;2.1500;2.2027;-0.0795;-0.3431;-0.0777
0001448499;7.8338;2.2601;2.2673;-0.0682;-0.3224;-0.0786
0001448511;7.6567;2.2098;2.2745;-0.0529;-0.2951;-0.0727
0001448519;7.7835;2.4588;2.2936;-0.0452;-0.2817;-0.0739
0001448531;7.4531;2.2984;2.3176;-0.0268;-0.2805;-0.0693
0001448539;7.5537;2.3798;2.2769;-0.0401;-0.2797;-0.0677
0001448547;7.2496;2.7605;2.2434;-0.0199;-0.2830;-0.0723
0001448616;7.2065;2.7222;2.5522;-0.1700;-0.3050;-0.1391
0001448624;7.2496;2.7629;2.6288;-0.1680;-0.2988;-0.1583
0001448635;7.4268;2.8730;2.6552;-0.1605;-0.2852;-0.1856
0001448643;7.5489;2.8228;2.7845;-0.1592;-0.2657;-0.2068
0001448655;7.6423;2.8371;2.9497;-0.1479;-0.2373;-0.2376
0001448663;7.8003;2.8156;3.0358;-0.1468;-0.2001;-0.2575
0001448674;7.8554;2.8706;3.0502;-0.1451;-0.1636;-0.2723
0001448682;7.8769;2.9999;3.0047;-0.1559;-0.1295;-0.2846
0001448690;7.6998;2.8443;3.0382;-0.1504;-0.0946;-0.2967
0001448702;7.7764;2.6767;2.9377;-0.1553;-0.0402;-0.2903
0001448710;7.7788;2.8012;2.7294;-0.1458;-0.0132;-0.2952
0001448721;7.6184;2.8012;2.7054;-0.1398;0.0293;-0.2799
0001448729;7.3382;2.7461;2.6073;-0.1358;0.0494;-0.2706
0001448741;7.1946;2.8515;2.5450;-0.1340;0.0762;-0.2530
0001448749;6.9097;2.7557;2.6456;-0.1371;0.0897;-0.2418
0001448760;6.7971;2.7509;2.7174;-0.1294;0.0930;-0.2310
0001448768;6.5481;2.6169;2.6360;-0.1200;0.0846;-0.2374
0001448776;6.3542;2.5594;2.6719;-0.1047;0.0766;-0.2253
0001448788;6.1746;2.4229;2.8060;-0.0679;0.0346;-0.2348
0001448796;6.1794;2.3176;2.7126;-0.0520;0.0079;-0.2332
0001448808;6.5434;2.5618;2.5881;-0.0328;-0.0470;-0.2306
0001448816;6.3829;2.4014;2.6193;-0.0246;-0.0877;-0.2373
0001448885;7.6088;2.3320;3.0430;-0.0946;-0.1266;-0.1877
0001448893;7.7620;2.3296;2.9784;-0.0993;-0.1002;-0.1748
0001448904;7.5561;1.9968;2.9640;-0.0867;-0.0686;-0.1600
0001448912;7.5585;1.9800;2.9209;-0.0585;-0.0520;-0.1515
0001448920;7.3263;1.8555;2.8994;-0.0352;-0.0290;-0.1412
0001448932;7.2113;1.7142;2.8898;0.0157;-0.0043;-0.1224
0001448940;6.9432;1.5826;2.8683;0.0686;-0.0016;-0.1126
0001448952;6.8331;1.8004;2.9090;0.1286;-0.0047;-0.0881
0001448960;6.7588;1.9704;2.9161;0.1500;-0.0133;-0.0634
0001448972;6.7564;2.1883;2.9736;0.1724;-0.0416;-0.0392
0001448980;6.6152;2.3200;3.0454;0.1656;-0.0500;-0.0200
0001448988;6.7780;2.4253;3.2082;0.1583;-0.0666;-0.0109
0001448999;6.6535;2.4684;3.2848;0.1483;-0.0862;-0.0151
0001449007;6.5673;2.2601;3.3136;0.1375;-0.0922;-0.0144
0001449019;6.6798;2.1907;3.3016;0.1428;-0.1079;-0.0240
0001449027;6.4212;2.0303;3.3064;0.1408;-0.1172;-0.0333
0001449038;6.6894;2.0327;3.5123;0.1430;-0.1370;-0.0478
0001449046;6.5625;1.9992;3.4955;0.1238;-0.1410;-0.0493
0001449058;6.3207;1.7406;3.6871;0.1031;-0.1620;-0.0694
0001449066;6.4667;1.8842;3.8379;0.0975;-0.1847;-0.0875
0001449074;6.4332;1.7957;4.0462;0.0787;-0.2070;-0.1029
0001449086;6.2608;1.8699;4.2234;0.0424;-0.2594;-0.1367
0001449094;6.1675;1.8459;4.2425;0.0232;-0.3015;-0.1592
0001449163;7.5274;2.1883;3.3399;0.0642;-0.4928;-0.3548
0001449171;7.7883;2.4038;3.1077;0.0966;-0.4571;-0.3158
0001449182;8.0493;2.8970;3.1268;0.1468;-0.4052;-0.2506
0001449190;8.1283;2.9904;3.0885;0.1536;-0.3593;-0.1872
0001449198;8.1163;3.0789;3.0837;0.1652;-0.3184;-0.0953
0001449210;8.3582;2.9377;2.9592;0.1685;-0.2502;0.0352
0001449218;8.0732;2.7366;3.0215;0.1805;-0.1892;0.1047
0001449229;7.9392;2.4995;2.9808;0.1949;-0.1443;0.1905
0001449237;7.7572;2.3415;2.9353;0.1917;-0.1094;0.2461
0001449249;7.4843;2.3511;3.0287;0.2332;-0.0723;0.2916
0001449257;7.2161;2.1787;3.0478;0.2455;-0.0528;0.3130
0001449268;7.2568;2.4588;3.0742;0.2570;-0.0250;0.3247
0001449276;7.0749;2.2793;2.9329;0.2467;-0.0284;0.3230
0001449284;7.0222;2.2721;2.9042;0.2442;-0.0346;0.3018
0001449296;7.0629;2.5355;3.0095;0.2269;-0.0464;0.2705
0001449304;6.7373;2.3607;3.0670;0.2000;-0.0538;0.2611
0001449315;6.8139;2.3511;3.0957;0.1748;-0.0787;0.2278
0001449323;6.6535;2.3679;3.0311;0.1643;-0.0955;0.2045
0001449335;6.9480;2.3703;2.8874;0.1444;-0.1291;0.1820
0001449343;6.9791;2.4493;2.9090;0.1446;-0.1394;0.1580
0001449351;7.0773;2.3463;2.8491;0.1262;-0.1432;0.1494
0001449363;7.2975;2.3894;2.8204;0.1057;-0.1525;0.1206
0001449371;7.3382;2.3008;2.6863;0.0869;-0.1612;0.1027
0001449439;7.0797;2.7031;2.8036;-0.1615;-0.1840;-0.0244
0001449447;7.1419;2.5426;2.5402;-0.1556;-0.1861;-0.0380
0001449458;7.2520;2.4086;2.3966;-0.1502;-0.1792;-0.0472
0001449466;7.3310;2.4397;2.3750;-0.1404;-0.1725;-0.0685
0001449474;7.4172;2.5235;2.3296;-0.1479;-0.1494;-0.0706
0001449486;7.4531;2.3631;2.2697;-0.1581;-0.1183;-0.0877
0001449494;7.7333;2.3942;2.2458;-0.1628;-0.0938;-0.0951
0001449506;7.6375;2.3367;2.1835;-0.1585;-0.0594;-0.0883
0001449514;7.6974;2.2386;2.2482;-0.1452;-0.0362;-0.0827
0001449526;7.7668;2.2458;2.1811;-0.1298;0.0069;-0.0670
0001449534;7.8889;2.2817;2.0566;-0.1151;0.0294;-0.0549
0001449546;7.7955;2.2410;1.9632;-0.0919;0.0617;-0.0412
0001449554;7.9799;2.2027;2.0111;-0.0793;0.0905;-0.0232
0001449562;7.7644;2.1715;1.9297;-0.0608;0.1131;-0.0152
0001449574;7.9655;2.0638;1.8220;-0.0151;0.1286;-0.0132
0001449582;7.8626;2.0973;1.8172;0.0028;0.1456;-0.0103
0001449594;7.7764;2.1428;1.7526;0.0328;0.1633;-0.0099
0001449602;7.7668;2.2793;1.7286;0.0394;0.1700;-0.0195
0001449614;7.7021;2.4110;1.8076;0.0400;0.1833;-0.0278
0001449622;7.6734;2.5498;1.8723;0.0297;0.1916;-0.0261
0001449630;7.6998;2.7438;1.9680;0.0224;0.1980;-0.0394
0001449642;7.5776;2.8036;1.9201;-0.0041;0.2041;-0.0426
0001449650;7.7285;2.8299;1.8890;-0.0256;0.2178;-0.0422
0001449718;7.2496;3.0622;2.0758;-0.1327;0.1484;-0.0823
0001449726;7.2018;3.0215;2.0877;-0.1450;0.1318;-0.0806
0001449738;7.3215;3.0047;2.1332;-0.1593;0.1116;-0.0658
0001449746;7.3478;2.9736;2.0279;-0.1680;0.1069;-0.0564
0001449757;7.3023;2.8132;2.0279;-0.1743;0.0975;-0.0421
0001449765;7.7452;2.9760;2.0399;-0.1901;0.0950;-0.0256
0001449773;7.5705;2.8970;2.0303;-0.1956;0.0882;-0.0169
0001449785;7.8051;2.8659;2.1524;-0.2144;0.0967;0.0149
0001449793;7.9248;2.9808;2.1715;-0.2318;0.0979;0.0309
0001449805;7.8961;3.2777;2.3128;-0.2750;0.1198;0.0677
0001449813;7.5729;3.3303;2.4397;-0.3083;0.1304;0.0897
0001449825;7.6471;3.5243;2.6384;-0.3423;0.1404;0.1303
0001449833;7.3454;3.3782;2.7629;-0.3521;0.1419;0.1676
0001449841;7.1060;3.3351;3.0071;-0.3628;0.1420;0.2172
0001449853;6.9001;3.0670;3.0909;-0.3489;0.1214;0.2818
0001449861;6.7947;2.9425;2.9999;-0.3238;0.0943;0.3204
0001449873;6.7133;2.7270;3.0765;-0.2899;0.0370;0.3701
0001449881;6.7397;2.6193;3.0789;-0.2880;-0.0087;0.3946
0001449893;6.9743;2.6025;2.8874;-0.2828;-0.0785;0.4258
0001449901;7.1132;2.3679;2.8323;-0.2642;-0.1159;0.4373
0001449909;7.3071;2.2529;2.6001;-0.2409;-0.1338;0.4478
0001449921;7.3813;1.9824;2.3798;-0.2029;-0.1386;0.4459
0001449929;7.6758;2.1332;2.2386;-0.1699;-0.1375;0.4345
0001449996;8.5784;1.8842;2.9473;-0.0893;0.0444;0.4490
0001450004;8.5665;1.8627;3.1316;-0.0921;0.0662;0.4301
0001450016;7.9751;1.8962;3.4907;-0.1150;0.0886;0.4241
0001450024;7.7788;1.8771;3.6057;-0.1366;0.0935;0.4191
0001450032;7.6064;2.0494;3.5698;-0.1639;0.0925;0.4135
0001450044;7.4627;2.2098;3.4141;-0.1700;0.0573;0.3805
0001450052;7.2042;2.1213;3.3686;-0.1661;0.0324;0.3692
0001450064;7.0677;1.8818;3.4381;-0.1311;-0.0313;0.3244
0001450072;7.2832;1.8555;3.3830;-0.1082;-0.0727;0.2888
0001450084;7.4915;1.9561;3.6703;-0.0645;-0.1270;0.2305
0001450092;7.5441;2.1356;3.6512;-0.0409;-0.1581;0.1916
0001450100;7.7572;2.4229;3.6631;-0.0336;-0.1837;0.1459
0001450112;7.8530;2.5666;3.7900;-0.0173;-0.2106;0.0962
0001450120;7.9392;2.4732;3.8786;-0.0282;-0.2209;0.0675
0001450132;7.8410;2.2769;3.9480;-0.0248;-0.2226;0.0204
0001450140;7.8386;2.2482;3.8164;-0.0270;-0.2156;0.0000
0001450152;8.1283;2.2170;3.7134;-0.0289;-0.1977;-0.0260
0001450160;7.7141;1.8124;3.7038;-0.0312;-0.1884;-0.0329
0001450172;7.9464;1.7645;3.6943;-0.0288;-0.1749;-0.0442
0001450180;7.9392;1.7286;3.7158;-0.0374;-0.1667;-0.0522
0001450188;8.1044;1.6783;3.6583;-0.0613;-0.1536;-0.0725
0001450200;8.1547;1.7597;3.7781;-0.0422;-0.1263;-0.0875
0001450208;8.0254;1.5514;3.6129;-0.0581;-0.1021;-0.0863
0001450276;7.4986;1.7142;4.0510;-0.0658;0.1308;0.0045
0001450284;7.3741;1.5251;4.1228;-0.0612;0.1406;0.0205
0001450296;7.1539;1.3647;4.1252;-0.0273;0.1439;0.0289
0001450304;7.1060;1.5969;4.0223;0.0073;0.1390;0.0195
0001450315;7.0270;1.6185;3.9863;0.0506;0.1255;0.0047
0001450323;7.0150;1.6735;3.9672;0.0853;0.1163;-0.0099
0001450331;7.0150;1.9776;3.9265;0.1178;0.1092;-0.0306
0001450343;6.9839;2.0279;3.8882;0.1510;0.0703;-0.0813
0001450351;6.7588;2.1620;3.8331;0.1808;0.0457;-0.1263
0001450363;6.8857;2.1452;3.7110;0.2017;0.0100;-0.1815
0001450371;6.8259;2.1572;3.6727;0.2133;-0.0221;-0.2249
0001450383;6.7756;2.0016;3.7948;0.2671;-0.0600;-0.2818
0001450391;6.7995;1.9537;3.5841;0.2879;-0.0934;-0.3044
0001450399;7.0078;2.0446;3.5051;0.2983;-0.1139;-0.3164
0001450412;6.9623;2.0470;3.5075;0.3305;-0.1323;-0.3500
0001450421;7.0773;2.1045;3.5051;0.3463;-0.1439;-0.3549
0001450434;7.1275;2.1524;3.4453;0.3663;-0.1599;-0.3529
0001450443;7.0964;1.7502;3.3279;0.3725;-0.1747;-0.3489
0001450456;7.2425;2.2984;3.1436;0.3736;-0.1676;-0.3269
0001450465;7.0629;2.1261;3.1220;0.3591;-0.1510;-0.3014
0001450474;7.2712;2.3128;3.2226;0.3476;-0.1344;-0.2878
0001450487;7.5944;2.4110;3.0765;0.3116;-0.1009;-0.2503
0001450496;7.5202;2.4349;2.9018;0.2946;-0.0845;-0.2418
0001450565;7.3478;2.4684;2.8994;0.1652;0.0510;-0.1419
0001450574;7.2257;2.4301;2.9544;0.1691;0.0473;-0.1382
0001450587;7.0533;2.3990;2.9473;0.1423;0.0545;-0.1222
0001450596;6.9623;2.4421;2.9688;0.1320;0.0429;-0.1176
0001450605;6.9791;2.2913;2.9353;0.1244;0.0400;-0.1082
0001450618;6.8043;2.4157;2.8778;0.1283;0.0238;-0.1023
0001450627;6.7995;2.2410;2.8276;0.1316;-0.0023;-0.1033
0001450640;6.9145;2.1117;2.7892;0.1346;-0.0382;-0.1085
0001450649;6.7684;2.1715;2.7318;0.1412;-0.0445;-0.1019
0001450662;7.0557;2.3056;2.5738;0.1516;-0.0722;-0.0967
0001450671;7.0509;2.6456;2.5786;0.1561;-0.0783;-0.0950
0001450684;7.0557;2.6001;2.5331;0.1246;-0.0790;-0.0766
0001450693;7.1228;2.7198;2.5139;0.1178;-0.0835;-0.0766
0001450702;7.1180;2.8156;2.5355;0.0995;-0.0774;-0.0640
0001450715;6.9432;2.8347;2.4445;0.0710;-0.0858;-0.0610
0001450724;7.0222;2.7892;2.4157;0.0421;-0.0905;-0.0498
0001450737;6.9552;2.6480;2.1404;-0.0015;-0.1071;-0.0477
0001450746;7.0150;2.8706;2.2529;0.0029;-0.1195;-0.0541
0001450759;6.7684;2.6169;2.2051;-0.0141;-0.1391;-0.0532
0001450768;6.6343;2.6121;2.2529;-0.0238;-0.1611;-0.0530
0001450777;6.9695;2.8611;2.1093;-0.0429;-0.1765;-0.0384
0001450790;6.9097;2.6959;2.1428;-0.0597;-0.1998;-0.0276
0001450799;6.8953;2.6384;2.1979;-0.0757;-0.2140;-0.0225
0001450868;7.4148;2.6217;1.8531;-0.1287;-0.2911;-0.0023
0001450877;7.3430;2.7581;1.9178;-0.1427;-0.2928;0.0052
0001450890;7.3933;2.7988;2.0159;-0.1709;-0.2781;0.0260
0001450899;7.6614;2.8084;1.9034;-0.1833;-0.2671;0.0294
0001450912;7.6327;2.7677;1.9609;-0.2089;-0.2523;0.0310
0001450921;7.4555;2.6121;1.9465;-0.2178;-0.2357;0.0373
0001450930;7.7859;2.3415;1.8076;-0.2427;-0.2326;0.0373
0001450943;7.3239;2.5522;1.8651;-0.1700;-0.2118;0.0164
0001450952;7.3047;2.8371;1.9441;-0.1733;-0.1977;0.0164
0001450965;7.2089;2.6360;1.9537;-0.2098;-0.1847;0.0044
0001450974;7.4077;2.8323;2.0614;-0.2200;-0.1683;0.0008
0001450987;7.4220;2.7940;1.9944;-0.2599;-0.1563;0.0036
0001450996;7.4915;2.8635;2.0686;-0.2309;-0.1451;-0.0155
0001451012;7.2353;2.6671;1.9656;-0.2405;-0.1251;-0.0458
0001451021;7.4292;2.6504;1.9872;-0.2326;-0.1132;-0.0532
0001451030;7.2784;2.2769;1.9393;-0.2053;-0.1014;-0.0658
0001451043;7.4316;2.4325;1.9321;-0.1617;-0.0755;-0.0795
0001451052;7.2520;2.5067;1.9321;-0.1359;-0.0554;-0.0969
0001451122;7.4172;2.7892;2.8084;0.0405;0.0133;-0.2912
0001451131;7.3071;2.9305;2.6001;0.0630;0.0213;-0.3160
0001451144;6.9312;3.1843;2.5977;0.0646;0.0474;-0.3495
0001451153;6.6224;2.6935;2.5953;0.0529;0.0719;-0.3673
0001451162;6.6726;2.5666;2.6671;0.0521;0.1010;-0.3576
0001451174;6.1124;2.2434;2.4325;0.0895;0.1103;-0.3345
0001451183;6.4165;2.5977;2.3966;0.1135;0.1039;-0.3216
0001451196;6.2369;2.9497;2.4493;0.1091;0.1147;-0.2904
0001451205;6.5457;3.3950;2.4660;0.0882;0.1194;-0.2467
0001451217;6.5074;3.4884;2.5786;0.0474;0.1140;-0.2016
0001451226;6.6248;3.4548;2.7533;0.0127;0.1122;-0.1572
0001451235;6.6008;3.2537;2.8491;-0.0060;0.0906;-0.1168
0001451248;6.7373;3.0981;2.7174;-0.0369;0.0751;-0.0633
0001451257;6.9552;2.9329;2.7725;-0.0446;0.0652;-0.0357
0001451269;6.8905;2.3439;2.7677;-0.0568;0.0654;-0.0242
0001451278;7.3933;2.2314;2.7031;-0.0460;0.0771;-0.0281
0001451291;7.3574;1.7621;2.8084;-0.0128;0.1039;-0.0416
0001451300;7.9176;2.0806;2.6312;0.0053;0.1303;-0.0476
0001451312;7.6998;1.8699;2.6240;0.0354;0.1656;-0.0470
0001451321;7.6040;1.9010;2.6312;0.0414;0.1897;-0.0334
0001451330;7.6040;1.8842;2.5043;0.0517;0.2060;-0.0221
0001451343;7.2161;1.7741;2.5211;0.0675;0.2290;0.0084
0001451352;6.9216;1.7095;2.4565;0.0753;0.2438;0.0276
0001451422;6.1699;2.0231;3.8882;0.2249;0.2470;-0.0373
0001451431;6.4165;2.2960;4.1420;0.2280;0.2411;-0.0488
0001451444;6.5386;2.4732;4.4245;0.2170;0.2125;-0.0606
0001451453;6.8450;2.5881;4.5897;0.2032;0.1821;-0.0621
0001451462;6.8714;2.4924;4.5035;0.1615;0.1506;-0.0477
0001451474;6.8570;2.1572;4.4245;0.1371;0.0927;-0.0453
0001451483;6.8067;2.3774;4.2401;0.1251;0.0460;-0.0440
0001451496;6.6918;1.9321;4.0725;0.1035;-0.0100;-0.0393
0001451505;6.7109;2.0638;3.8259;0.1067;-0.0478;-0.0534
0001451517;6.7253;2.1165;3.5769;0.1207;-0.0790;-0.0637
0001451526;6.9001;2.3224;3.4596;0.1322;-0.1041;-0.0703
0001451535;6.9240;2.3822;3.2681;0.1431;-0.1082;-0.0574
0001451548;7.0988;2.6911;3.2441;0.1665;-0.1128;-0.0293
0001451557;7.3095;2.7869;3.0837;0.1676;-0.1070;-0.0029
0001451569;7.5753;2.9784;3.0981;0.1944;-0.0805;0.0404
0001451578;7.7333;2.9425;2.9209;0.1855;-0.0426;0.0862
0001451591;8.0780;2.9951;2.8994;0.1708;0.0099;0.1290
0001451600;8.1547;2.8730;2.9664;0.1629;0.0703;0.1564
0001451609;7.7907;2.6767;2.8108;0.1548;0.1208;0.1869
0001451621;7.8314;2.5762;2.8036;0.1355;0.1771;0.2240
0001451630;7.7285;2.5690;2.9880;0.1327;0.2029;0.2411
0001451643;7.2951;2.6695;3.1125;0.1220;0.2286;0.2725
0001451652;6.8498;2.3798;3.1268;0.0957;0.2329;0.2811
0001451722;6.7205;2.1428;2.5546;0.0898;0.0215;0.1262
0001451731;6.6463;2.2505;2.7677;0.0970;0.0008;0.0921
0001451740;6.9145;2.3870;2.6791;0.0723;-0.0168;0.0795
0001451753;7.3023;2.6025;2.7198;0.0469;-0.0402;0.0557
0001451762;7.4196;2.6480;2.6911;0.0344;-0.0470;0.0512
0001451774;7.3143;2.5450;2.6983;0.0143;-0.0506;0.0498
0001451783;7.6160;2.6887;2.5115;0.0128;-0.0564;0.0537
0001451796;7.7476;2.6504;2.4732;0.0017;-0.0406;0.0620
0001451805;7.6902;2.4397;2.3272;0.0084;-0.0334;0.0685
0001451814;7.7261;2.4684;2.2793;0.0096;-0.0099;0.0665
0001451826;7.7309;2.4948;2.0830;0.0248;0.0151;0.0625
0001451835;7.7405;2.5331;2.0662;0.0107;0.0457;0.0663
0001451848;7.6902;2.7438;2.0183;-0.0044;0.0849;0.0606
0001451857;7.7476;2.7701;2.0063;-0.0193;0.1108;0.0464
0001451869;7.5058;2.6288;2.0231;-0.0434;0.1420;0.0492
0001451878;7.4101;2.6839;2.0542;-0.0529;0.1621;0.0458
0001451887;7.4148;2.5666;2.0399;-0.0477;0.1687;0.0393
0001451900;7.3526;2.7150;2.0614;-0.0418;0.1808;0.0360
0001451909;7.2137;2.5498;1.9417;-0.0450;0.1919;0.0393
0001451921;7.2113;2.5833;1.9609;-0.0472;0.1865;0.0394
0001451930;7.2688;2.6240;2.0279;-0.0536;0.1776;0.0332
0001451943;7.3430;2.6624;1.9393;-0.0624;0.1781;0.0245
0001451952;7.4699;2.5977;1.9513;-0.0596;0.1752;0.0093
0001451961;7.4723;2.4828;1.9417;-0.0742;0.1879;0.0080
0001452030;7.3861;2.5426;2.0016;-0.1911;0.2200;-0.0746
0001452039;7.4651;2.6839;1.9944;-0.2014;0.2205;-0.0735
0001452052;7.2449;2.4948;2.0446;-0.2042;0.2030;-0.0749
0001452061;7.3191;2.6480;1.9704;-0.2017;0.1958;-0.0763
0001452073;7.1874;2.5546;1.9848;-0.1958;0.1811;-0.0746
0001452082;7.3957;2.8036;2.0853;-0.1888;0.1713;-0.0767
0001452091;7.3454;2.6193;2.1261;-0.1856;0.1757;-0.0709
0001452104;7.4460;2.6552;2.1380;-0.1797;0.1739;-0.0727
0001452113;7.5753;2.7126;2.0949;-0.1837;0.1836;-0.0628
0001452125;7.5322;2.7509;2.0710;-0.1816;0.1865;-0.0468
0001452134;7.5106;2.7390;2.0734;-0.1760;0.1903;-0.0396
0001452147;7.1539;2.3703;2.1021;-0.1816;0.2008;-0.0245
0001452156;7.4053;2.5666;2.0542;-0.1880;0.2058;-0.0107
0001452168;7.4699;2.7366;2.0183;-0.1913;0.2124;-0.0008
0001452177;7.1802;2.5331;1.9441;-0.1859;0.2121;0.0059
0001452186;7.3191;2.6767;2.0016;-0.1863;0.2142;0.0076
0001452199;7.1706;2.6145;2.0351;-0.1813;0.2173;0.0104
0001452208;7.3957;2.7102;2.1117;-0.1641;0.2201;0.0192
0001452220;7.4340;2.9473;2.2410;-0.1442;0.2190;0.0478
0001452229;7.6207;3.3327;2.3822;-0.1458;0.2065;0.0799
0001452242;7.5274;3.6799;2.5929;-0.1928;0.1955;0.1400
0001452251;7.3239;3.5961;2.5786;-0.2293;0.1781;0.1871
0001452260;6.9863;3.6703;2.7533;-0.2534;0.1701;0.2398
0001452330;7.6830;2.3703;2.7677;-0.2411;0.0012;0.3878
0001452339;7.6878;2.4636;2.7366;-0.2451;-0.0063;0.3942
0001452352;7.6998;2.2721;2.6600;-0.2282;-0.0175;0.3998
0001452361;7.6016;2.4181;2.6719;-0.2237;-0.0145;0.4040
0001452373;7.6088;2.1476;2.5307;-0.2177;0.0016;0.4113
0001452382;7.8290;2.0925;2.4900;-0.2076;0.0051;0.4241
0001452391;7.9152;2.2482;2.5618;-0.1965;0.0119;0.4278
0001452404;7.9320;2.1069;2.6719;-0.1868;0.0208;0.4341
0001452413;7.9200;2.1237;2.8419;-0.1787;0.0274;0.4434
0001452425;7.9559;2.2410;2.9856;-0.1681;0.0233;0.4487
0001452434;7.8338;2.3272;3.0478;-0.1565;0.0230;0.4438
0001452447;7.7835;2.2410;3.1508;-0.1484;0.0120;0.4273
0001452456;7.4939;2.1979;3.1173;-0.1463;-0.0028;0.4042
0001452465;7.4819;2.1428;3.1651;-0.1458;-0.0234;0.3765
0001452477;7.4867;2.1787;3.2058;-0.1395;-0.0592;0.3277
0001452486;7.4531;2.3415;3.2681;-0.1376;-0.0926;0.2822
0001452499;7.4029;2.3224;3.3088;-0.1275;-0.1392;0.2245
0001452508;7.4627;2.2003;3.3088;-0.1120;-0.1692;0.1721
0001452519;7.5609;1.9728;3.2681;-0.0937;-0.1941;0.1131
0001452528;7.6758;2.0590;3.2417;-0.0894;-0.1972;0.0677
0001452542;7.3622;1.7861;3.3519;-0.0697;-0.2080;0.0016
0001452551;7.5585;1.7669;3.3136;-0.0585;-0.2078;-0.0180
0001452560;7.5872;1.9273;3.1388;-0.0397;-0.2156;-0.0381
0001452630;8.8562;2.2266;3.8858;-0.1384;0.0254;-0.0580
0001452639;8.8849;1.9992;3.9337;-0.1424;0.0797;-0.0598
0001452651;8.6191;1.7286;4.0247;-0.1430;0.1438;-0.0426
0001452660;8.1762;1.5371;4.2210;-0.1351;0.1688;-0.0224
0001452673;7.7644;1.3862;4.3383;-0.1280;0.1909;0.0056
0001452682;7.4579;1.4198;4.3407;-0.1227;0.2050;0.0326
0001452691;7.2257;1.1013;4.3191;-0.1187;0.2061;0.0541
0001452703;7.1611;1.2498;4.3814;-0.0899;0.2002;0.0779
0001452712;7.1754;1.3240;4.3120;-0.0570;0.1852;0.0873
0001452725;7.0820;1.4078;4.2449;-0.0185;0.1568;0.0994
0001452734;7.0294;1.3934;4.1180;-0.0049;0.1278;0.1094
0001452746;6.9791;1.5179;4.1611;0.0007;0.0701;0.0633
0001452755;6.6008;1.6592;4.2186;0.0329;0.0209;0.0131
0001452764;6.5721;2.0135;4.2473;0.0445;-0.0228;-0.0484
0001452777;6.2441;1.8818;4.0749;0.0649;-0.0962;-0.1358
0001452786;6.1914;1.6999;4.0390;0.0874;-0.1470;-0.1944
0001452798;6.2584;1.6735;4.0749;0.1244;-0.1996;-0.2547
0001452807;6.3375;1.1708;3.9337;0.1719;-0.2446;-0.2842
0001452820;6.4236;1.0582;3.7158;0.2786;-0.2958;-0.3163
0001452829;6.3111;1.2186;3.4524;0.3560;-0.3380;-0.3250
0001452841;6.5745;1.8794;3.2082;0.4311;-0.3824;-0.3304
0001452850;6.9264;2.4660;3.1388;0.4399;-0.3953;-0.3407
0001452859;7.3622;2.8108;2.7773;0.4161;-0.4041;-0.3583
0001452929;7.1443;2.3056;3.1364;0.1905;-0.1986;-0.4370
0001452938;7.0390;2.0494;3.1125;0.2206;-0.2020;-0.4147
0001452950;7.2089;1.8316;3.1053;0.2410;-0.1895;-0.3814
0001452959;7.2664;1.9345;2.9688;0.2658;-0.1731;-0.3545
0001452972;7.1802;2.2003;3.0191;0.2742;-0.1595;-0.3202
0001452981;7.4005;2.3056;3.0095;0.2729;-0.1529;-0.3059
0001452990;7.3454;2.4110;2.8994;0.2455;-0.1410;-0.2775
0001453002;7.3191;2.5570;2.8922;0.2250;-0.1303;-0.2647
0001453011;7.3933;2.5474;2.9401;0.1891;-0.1295;-0.2473
0001453024;7.2664;2.5187;2.9233;0.1371;-0.1262;-0.2282
0001453033;7.2784;2.4612;2.8850;0.1104;-0.1352;-0.2146
0001453045;7.1778;2.4301;2.8683;0.0871;-0.1527;-0.1992
0001453054;7.0916;2.6719;2.8156;0.0763;-0.1556;-0.1865
0001453067;7.0294;2.6432;2.8611;0.0746;-0.1872;-0.1628
0001453076;6.9480;2.2913;2.7869;0.0490;-0.2013;-0.1424
0001453085;6.8139;2.5522;2.7342;0.0473;-0.2198;-0.1332
0001453097;6.8019;2.5235;2.6217;0.0408;-0.2450;-0.1176
0001453106;6.7971;2.6121;2.5283;0.0294;-0.2553;-0.1180
0001453119;6.9456;2.7438;2.5762;0.0192;-0.2766;-0.1224
0001453128;6.9145;2.6288;2.6193;0.0012;-0.2843;-0.1210
0001453140;6.8570;2.5690;2.6983;-0.0350;-0.2988;-0.1191
0001453149;6.8857;2.3176;2.6193;-0.0558;-0.3080;-0.1127
0001453158;6.8881;2.1572;2.5594;-0.0590;-0.3110;-0.1021
0001453228;6.9097;2.4157;2.3248;-0.0497;-0.3299;-0.0418
0001453237;7.0773;2.3343;2.1979;-0.0710;-0.3226;-0.0161
0001453249;7.0533;2.5259;2.1979;-0.0505;-0.3234;-0.0262
0001453258;6.9049;2.5115;2.2769;-0.0718;-0.3238;-0.0128
0001453271;6.9767;2.4541;2.2098;-0.0991;-0.3305;0.0064
0001453280;6.9576;2.5307;2.1907;-0.0963;-0.3248;0.0097
0001453292;7.2520;2.9281;2.2075;-0.0985;-0.3236;0.0016
0001453301;6.9576;2.6001;2.4349;-0.1223;-0.3104;0.0104
0001453310;7.1204;2.7964;2.3463;-0.1396;-0.3050;0.0044
0001453323;7.2616;2.7533;2.3463;-0.1543;-0.2907;0.0065
0001453332;7.2257;2.7773;2.3655;-0.1543;-0.2910;0.0037
0001453344;7.2233;2.6360;2.2913;-0.1589;-0.2821;0.0084
0001453353;7.0844;2.4900;2.1213;-0.1769;-0.2689;0.0195
0001453366;7.0605;2.6504;2.1979;-0.1394;-0.2645;0.0168
0001453375;6.9887;2.5905;2.2075;-0.1599;-0.2493;0.0273
0001453384;6.9839;2.7174;2.3918;-0.1528;-0.2411;0.0221
0001453396;6.9073;2.6240;2.3391;-0.1667;-0.2297;0.0278
0001453405;7.1611;2.8922;2.1979;-0.1708;-0.2206;0.0262
0001453418;7.0629;2.6336;2.1739;-0.1873;-0.2096;0.0221
0001453427;7.0174;2.7031;2.1021;-0.1939;-0.2073;0.0075
0001453439;6.9504;2.5570;2.0662;-0.2128;-0.2028;-0.0097
0001453448;7.1108;2.8683;2.1548;-0.1644;-0.1925;-0.0225
0001453518;7.0892;2.2936;1.8579;-0.0545;-0.1476;-0.0589
0001453527;7.1371;2.3631;1.8842;-0.0394;-0.1368;-0.0709
0001453536;7.3215;2.4517;1.9656;-0.0153;-0.1338;-0.0923
0001453548;7.2616;2.5738;2.0183;0.0040;-0.1152;-0.1194
0001453557;7.4268;2.6815;2.0016;0.0120;-0.0957;-0.1386
0001453570;7.1970;2.7390;2.3727;0.0215;-0.0691;-0.1733
0001453579;7.3358;2.8204;2.4948;0.0185;-0.0372;-0.1840
0001453591;7.0820;2.7869;2.6767;0.0107;-0.0101;-0.2036
0001453600;7.0030;2.6719;2.6815;0.0087;0.0101;-0.2077
0001453613;7.0174;2.7964;2.8299;0.0035;0.0289;-0.2162
0001453622;6.8378;2.7198;2.8084;0.0111;0.0506;-0.2407
0001453631;6.9599;2.6719;2.9018;0.0101;0.0687;-0.2505
0001453643;6.8115;2.4924;2.7964;0.0051;0.0882;-0.2578
0001453652;6.9097;2.5833;2.8467;-0.0007;0.1073;-0.2674
0001453665;6.8929;2.5738;2.6863;-0.0092;0.1299;-0.2745
0001453674;6.9839;2.6384;2.6647;-0.0168;0.1311;-0.2778
0001453686;6.7445;2.4397;2.6456;-0.0278;0.1593;-0.2922
0001453695;6.6559;2.3391;2.7461;-0.0480;0.1735;-0.2888
0001453704;6.6942;2.3607;2.8060;-0.0409;0.1768;-0.2931
0001453717;6.7229;2.3750;2.7940;-0.0366;0.1924;-0.2793
0001453726;6.7109;2.4157;2.8276;-0.0290;0.2000;-0.2615
0001453738;6.4620;2.4205;2.8491;-0.0109;0.2004;-0.2435
0001453747;6.5050;2.5235;2.7701;-0.0001;0.1937;-0.2253
0001453816;6.9097;2.3870;3.0239;0.0468;0.1427;-0.0544
0001453825;7.1730;2.4301;2.9616;0.0803;0.1462;-0.0410
0001453834;7.2616;2.4301;2.9305;0.0991;0.1515;-0.0253
0001453846;7.1228;2.5211;2.8874;0.1146;0.1484;-0.0047
0001453855;6.8977;2.4565;3.0167;0.1158;0.1382;0.0095
0001453868;6.5601;2.3296;3.0765;0.1134;0.1260;0.0444
0001453877;6.6104;2.4277;3.2250;0.1148;0.1130;0.0549
0001453889;6.3734;2.2098;3.2848;0.1320;0.0901;0.0850
0001453898;6.4165;2.0662;3.3160;0.1491;0.0640;0.0973
0001453907;6.3303;2.0638;3.4165;0.1609;0.0470;0.1029
0001453920;6.3542;1.8268;3.5961;0.1911;0.0285;0.0935
0001453929;6.7229;2.0710;3.6799;0.2110;0.0156;0.0914
0001453941;6.9145;2.1045;3.7230;0.2166;0.0037;0.0801
0001453950;7.1204;2.0734;3.8331;0.2194;-0.0119;0.0790
0001453963;7.3430;1.9920;3.8666;0.2006;-0.0103;0.0850
0001453972;7.2377;1.7693;3.7852;0.1847;-0.0051;0.0934
0001453981;7.6064;1.9321;3.5937;0.1809;-0.0049;0.0914
0001453993;7.4603;1.6233;3.4644;0.1841;-0.0085;0.0803
0001454002;7.6160;1.6903;3.2777;0.1956;0.0040;0.0705
0001454016;7.6255;1.9417;3.2082;0.2110;0.0200;0.0424
0001454025;7.5274;2.2482;3.1867;0.2409;0.0321;0.0356
0001454094;8.4851;2.9688;2.8060;0.3050;0.3140;0.3224
0001454103;8.4874;2.9425;2.8515;0.2778;0.3729;0.3600
0001454112;8.2768;2.8108;2.8706;0.2463;0.4217;0.3788
0001454124;8.1451;2.6312;2.7605;0.2084;0.4804;0.4117
0001454133;7.8961;2.7461;2.8228;0.2021;0.5009;0.4290
0001454146;7.3694;2.6408;2.8587;0.1548;0.4983;0.4772
0001454155;7.1467;2.8706;2.8443;0.1351;0.4848;0.4871
0001454167;6.6176;2.8132;3.0023;0.1022;0.4576;0.4994
0001454176;6.4141;2.9042;2.9928;0.0982;0.4421;0.5037
0001454185;6.5362;2.8132;2.9568;0.0714;0.4229;0.5037
0001454198;6.8331;2.7533;2.7557;0.0614;0.3920;0.4846
0001454207;6.8953;2.4493;2.7366;0.0653;0.3788;0.4643
0001454219;7.3478;2.3008;2.5498;0.0753;0.3565;0.4249
0001454228;7.4723;2.1883;2.4181;0.0733;0.3468;0.3990
0001454237;7.7692;2.3176;2.4684;0.0774;0.3299;0.3583
0001454250;7.4843;2.3487;2.6432;0.0636;0.3158;0.3202
0001454259;7.5178;2.3942;2.6552;0.0462;0.3036;0.3112
0001454271;7.4651;2.3655;2.6288;0.0256;0.2844;0.2952
0001454280;7.4555;2.6312;2.6193;0.0196;0.2862;0.2914
0001454293;7.6279;2.2386;2.4972;-0.0112;0.2650;0.2976
0001454302;7.6088;2.0207;2.5139;-0.0097;0.2514;0.2733
0001454311;7.4915;2.1548;2.4541;-0.0056;0.2455;0.2546
0001454323;7.4723;2.1931;2.4804;0.0048;0.2437;0.2289
0001454332;7.6399;2.3774;2.3463;0.0095;0.2429;0.2017
0001454401;7.8650;2.4588;2.1763;-0.0325;0.2868;0.0819
0001454410;7.8961;2.4229;2.1715;-0.0445;0.3020;0.0831
0001454422;7.8721;2.7007;2.1548;-0.0413;0.3014;0.0950
0001454431;8.0972;2.3224;2.0375;-0.0520;0.3058;0.0761
0001454440;8.0134;2.4397;2.0494;-0.0538;0.3198;0.0689
0001454453;7.9583;2.3583;2.1165;-0.0529;0.3279;0.0634
0001454462;7.9152;2.4756;2.2482;-0.0528;0.3281;0.0582
0001454474;7.7764;2.5690;2.2290;-0.0605;0.3171;0.0598
0001454483;7.7021;2.7438;2.1572;-0.0778;0.3151;0.0584
0001454496;7.7309;2.8491;2.3966;-0.0982;0.3074;0.0581
0001454505;7.3382;2.6360;2.3559;-0.1039;0.2920;0.0518
0001454514;7.5800;2.8802;2.3655;-0.1007;0.2794;0.0417
0001454526;7.8362;2.5067;2.2170;-0.1254;0.2605;0.0452
0001454535;7.6543;2.4062;2.4038;-0.1255;0.2521;0.0284
0001454548;7.8937;2.4134;2.2673;-0.1142;0.2176;0.0230
0001454557;7.8482;2.3080;2.3248;-0.1092;0.1907;0.0153
0001454569;8.1427;2.7438;2.1332;-0.1298;0.1825;0.0099
0001454578;7.9057;2.6264;2.1859;-0.1447;0.1859;0.0031
0001454587;7.6806;2.7270;2.1931;-0.1691;0.2002;-0.0115
0001454600;7.4579;2.7270;2.3008;-0.1952;0.2066;-0.0364
0001454609;7.3813;2.4828;2.1452;-0.1904;0.2077;-0.0509
0001454621;7.2999;2.3272;2.2194;-0.1660;0.2089;-0.0582
0001454630;7.4508;2.3487;2.1476;-0.1314;0.2016;-0.0685
0001454699;7.8314;2.3032;2.0686;-0.1302;0.2918;-0.0799
0001454708;7.5681;2.3152;2.1668;-0.1322;0.2952;-0.0838
0001454717;7.7620;2.4900;2.1284;-0.1302;0.2898;-0.0839
0001454729;7.8793;2.6576;2.1237;-0.1328;0.2902;-0.0825
0001454738;7.6279;2.5977;2.2003;-0.1416;0.2935;-0.0703
0001454751;7.7716;2.7102;2.1452;-0.1496;0.2862;-0.0749
0001454760;7.8243;2.7126;2.2841;-0.1681;0.2713;-0.0795
0001454772;7.9631;2.6360;2.2721;-0.1867;0.2619;-0.0845
0001454781;7.9080;2.6073;2.3272;-0.1880;0.2469;-0.1005
0001454794;7.8626;2.2410;2.2003;-0.1871;0.2493;-0.1069
0001454803;7.9368;2.2146;2.0638;-0.1795;0.2590;-0.1039
0001454812;8.0062;2.1500;2.0231;-0.1588;0.2673;-0.1065
0001454824;8.0014;2.1524;1.9704;-0.1214;0.2791;-0.0927
0001454833;8.0589;2.3607;1.9034;-0.1085;0.2914;-0.0689
0001454846;7.9344;2.5043;2.2482;-0.1078;0.2908;-0.0218
0001454855;7.9799;2.8180;2.2482;-0.1206;0.2722;0.0029
0001454867;7.5561;2.9616;2.4684;-0.1701;0.2487;0.0538
0001454876;7.5226;3.4165;2.6288;-0.2246;0.2097;0.0793
0001454885;7.0174;3.3998;2.8778;-0.2851;0.1765;0.1143
0001454898;6.5457;3.5410;3.0454;-0.3401;0.0902;0.1510
0001454907;6.5170;3.4069;3.1173;-0.3721;0.0196;0.1671
0001454919;6.3422;3.3495;3.2729;-0.4050;-0.0877;0.1951
0001454928;6.4404;3.1005;3.3423;-0.4034;-0.1804;0.2098
0001454997;7.6902;2.0016;2.3008;-0.1956;-0.6258;0.2693
0001455006;8.0302;2.0351;2.1620;-0.1860;-0.6150;0.2742
0001455018;8.2959;1.6065;2.1452;-0.1432;-0.5949;0.2769
0001455027;8.6407;1.6520;1.9513;-0.1163;-0.5486;0.2894
0001455036;8.7508;1.6328;1.9992;-0.0742;-0.4982;0.2919
0001455049;9.0573;1.7693;2.0806;-0.0421;-0.4076;0.3019
0001455058;9.2656;2.0494;2.2625;-0.0397;-0.3455;0.3134
0001455070;8.9352;2.3487;2.5331;-0.0573;-0.2914;0.3226
0001455079;8.6095;2.5283;2.7845;-0.0802;-0.2694;0.3307
0001455092;8.3103;2.6312;2.9736;-0.1296;-0.2451;0.3336
0001455101;8.2432;2.7054;3.0933;-0.1414;-0.2525;0.3175
0001455110;7.7524;2.6145;3.0191;-0.1496;-0.2522;0.3080
0001455122;7.6255;2.3008;3.1125;-0.1448;-0.2666;0.2758
0001455131;7.6351;2.2553;3.0095;-0.1306;-0.2879;0.2523
0001455144;7.7596;2.1308;3.0957;-0.1025;-0.3184;0.2060
0001455153;8.0565;2.1572;3.1795;-0.0827;-0.3287;0.1797
0001455165;8.0038;2.2673;3.2944;-0.0614;-0.3275;0.1290
0001455174;8.3270;2.3894;3.3782;-0.0469;-0.3212;0.0978
0001455187;8.2744;2.5139;3.5099;-0.0329;-0.3014;0.0524
0001455196;8.4563;2.7031;3.6488;-0.0309;-0.2879;0.0328
0001455205;8.3390;2.8419;3.7852;-0.0369;-0.2707;0.0096
0001455217;8.3653;2.6935;3.9911;-0.0524;-0.2502;-0.0109
0001455226;8.2001;2.6624;4.0462;-0.0671;-0.2513;-0.0320
0001455295;7.4148;1.4126;3.8092;-0.0791;-0.3676;-0.2848
0001455304;7.2999;1.3958;3.8523;-0.0837;-0.3777;-0.2975
0001455316;7.4675;1.3575;3.8642;-0.0826;-0.3928;-0.2939
0001455325;7.5393;1.2641;3.9504;-0.0822;-0.3956;-0.2775
0001455334;7.5058;1.2426;3.9600;-0.0734;-0.3998;-0.2570
0001455347;7.7117;1.3360;3.8858;-0.0602;-0.3950;-0.2173
0001455356;7.8075;1.3551;3.8403;-0.0368;-0.3910;-0.1919
0001455368;7.7979;1.2881;3.8666;-0.0087;-0.3790;-0.1499
0001455377;7.7165;1.4389;3.9456;0.0289;-0.3758;-0.1307
0001455390;7.8602;1.7382;3.9648;0.0621;-0.3780;-0.1033
0001455399;7.9871;1.6257;4.0031;0.0770;-0.3833;-0.1029
0001455411;7.8793;1.8292;3.9552;0.1208;-0.3936;-0.1292
0001455420;7.9583;1.8435;3.9911;0.1406;-0.3953;-0.1557
0001455429;7.9895;1.8364;3.9409;0.1655;-0.4110;-0.1853
0001455442;7.9799;1.7717;3.7661;0.1885;-0.4265;-0.2354
0001455451;7.8697;1.7023;3.7804;0.2085;-0.4390;-0.2627
0001455463;7.9535;1.8028;3.5698;0.2301;-0.4587;-0.2911
0001455472;7.8219;2.0614;3.4500;0.2457;-0.4770;-0.2854
0001455485;7.7883;2.3607;3.3878;0.2431;-0.4866;-0.2988
0001455494;8.0062;2.6576;3.2370;0.2314;-0.4918;-0.3127
0001455506;7.9535;2.5953;3.1244;0.1998;-0.5036;-0.3272
0001455515;8.1451;2.8754;3.2322;0.1831;-0.4938;-0.3461
0001455524;7.9679;2.5881;3.1939;0.1601;-0.4866;-0.3511
0001455594;8.0756;1.9417;3.0574;0.1075;-0.4934;-0.3032
0001455603;8.1642;2.0782;2.9137;0.1124;-0.4854;-0.2852
0001455616;8.2097;1.8459;2.7342;0.1132;-0.4501;-0.2394
0001455625;8.4060;1.9465;2.6384;0.1021;-0.4266;-0.2200
0001455637;8.6670;2.1356;2.5786;0.1050;-0.3718;-0.1876
0001455646;8.5114;2.1668;2.5618;0.1214;-0.3397;-0.1827
0001455655;8.5904;2.1476;2.4612;0.1252;-0.3063;-0.1603
0001455668;8.3845;2.1548;2.5426;0.1430;-0.2553;-0.1430
0001455677;8.3773;2.0782;2.5450;0.1557;-0.2232;-0.1334
0001455689;8.3582;2.2170;2.6600;0.1649;-0.1904;-0.1102
0001455698;8.2361;2.1452;2.6528;0.1740;-0.1709;-0.1017
0001455711;8.2624;1.9680;2.6145;0.1727;-0.1498;-0.0835
0001455720;8.0685;2.1356;2.5738;0.1867;-0.1343;-0.0787
0001455732;8.1163;2.2793;2.4948;0.2116;-0.1223;-0.0694
0001455741;7.8721;2.2960;2.5211;0.2286;-0.1231;-0.0702
0001455750;7.9535;2.2841;2.4660;0.2341;-0.1224;-0.0650
0001455763;7.8961;2.5091;2.3415;0.2435;-0.1267;-0.0678
0001455772;7.6878;2.5474;2.3128;0.2477;-0.1267;-0.0726
0001455784;7.8386;2.6983;2.3104;0.2506;-0.1119;-0.0823
0001455793;7.6591;2.7078;2.2505;0.2433;-0.1112;-0.0795
0001455806;7.4962;2.8180;2.1237;0.2313;-0.1106;-0.0775
0001455815;7.6950;2.9521;2.1045;0.2089;-0.1283;-0.0743
0001455824;7.5513;3.0885;2.0375;0.1876;-0.1408;-0.0670
0001455894;7.5729;2.8922;2.0111;-0.0955;-0.2406;-0.0926
0001455903;7.5537;2.7126;1.9920;-0.1057;-0.2614;-0.1049
0001455916;8.0086;2.8611;1.8244;-0.1234;-0.2682;-0.1061
0001455925;7.8530;2.9401;1.6783;-0.1131;-0.2707;-0.1148
0001455937;7.7213;2.7461;1.7645;-0.1416;-0.2723;-0.1168
0001455946;8.0445;2.8491;1.8364;-0.1621;-0.2689;-0.1120
0001455959;8.0421;2.5115;1.6305;-0.2057;-0.2723;-0.0850
0001455968;7.9224;2.7366;1.8579;-0.1837;-0.2550;-0.0803
0001455977;7.6567;2.7366;1.8483;-0.1932;-0.2515;-0.0806
0001455989;7.5441;2.6408;1.7502;-0.2132;-0.2579;-0.0735
0001455998;7.7452;2.7773;1.7190;-0.2332;-0.2509;-0.0626
0001456011;7.7572;2.5474;1.7597;-0.2503;-0.2342;-0.0500
0001456020;7.8458;2.4660;1.8124;-0.2674;-0.2242;-0.0462
0001456032;7.5968;2.5283;2.0087;-0.2414;-0.2182;-0.0433
0001456041;7.7213;2.6815;1.7502;-0.2274;-0.2037;-0.0446
0001456054;7.5729;2.5762;1.8507;-0.2463;-0.2126;-0.0386
0001456063;7.5729;2.5355;1.8747;-0.2495;-0.2216;-0.0402
0001456072;7.8482;2.0327;1.9201;-0.2946;-0.2284;-0.0119
0001456084;7.4484;2.5666;1.9321;-0.2442;-0.2258;-0.0232
0001456093;7.5872;2.7988;1.8699;-0.2501;-0.2269;-0.0221
0001456106;7.5872;2.7749;1.9680;-0.2758;-0.2154;-0.0361
0001456115;7.8386;2.9975;1.9896;-0.2963;-0.2061;-0.0393
0001456185;7.7788;2.5618;2.1452;-0.4068;-0.1260;-0.0025
0001456194;7.6974;2.8299;2.2721;-0.4203;-0.1386;-0.0149
0001456207;7.6495;2.9449;2.6121;-0.4462;-0.1504;-0.0441
0001456216;7.7117;2.9544;2.9928;-0.4517;-0.1431;-0.0717
0001456225;7.8626;2.5833;3.3543;-0.4191;-0.1226;-0.1095
0001456237;7.7165;2.1739;3.3974;-0.3068;-0.1131;-0.1688
0001456246;7.9344;2.7222;3.0454;-0.2809;-0.1088;-0.2000
0001456259;7.8051;3.3519;2.8323;-0.3396;-0.0915;-0.2298
0001456268;7.4388;3.0143;3.0071;-0.3830;-0.0682;-0.2337
0001456280;7.2042;2.5091;2.9425;-0.3876;-0.0548;-0.2344
0001456289;6.8833;2.0446;2.9688;-0.3560;-0.0512;-0.2288
0001456302;7.0844;1.9106;2.9161;-0.2521;-0.0528;-0.2443
0001456311;7.0366;1.9537;2.9066;-0.1895;-0.0428;-0.2509
0001456320;7.2353;2.3272;2.7845;-0.1318;-0.0428;-0.2781
0001456332;7.0366;2.4612;2.6911;-0.0949;-0.0428;-0.3063
0001456341;6.9863;2.4134;2.7509;-0.0961;-0.0349;-0.3110
0001456354;7.2688;2.5762;2.7222;-0.1042;-0.0272;-0.3387
0001456363;7.2425;2.6264;2.7869;-0.1087;-0.0157;-0.3381
0001456375;7.3694;2.3846;2.8180;-0.0909;-0.0140;-0.3102
0001456384;7.4292;2.3343;2.8802;-0.0923;-0.0093;-0.3114
0001456397;7.6279;2.1189;2.9161;-0.0655;-0.0081;-0.2874
0001456406;7.8673;2.1931;2.9233;-0.0585;0.0012;-0.2737
0001456415;7.7644;2.0877;2.9640;-0.0544;-0.0009;-0.2743
0001456485;7.6447;1.8938;2.8754;0.0248;0.1057;-0.1792
0001456494;7.7333;1.9130;2.8371;0.0485;0.1208;-0.1733
0001456507;7.7428;2.2817;2.8778;0.0743;0.1331;-0.1605
0001456516;7.7572;2.5786;2.9042;0.0778;0.1440;-0.1553
0001456528;7.5513;2.6264;2.9712;0.0742;0.1456;-0.1382
0001456537;7.4196;2.7270;3.0191;0.0691;0.1386;-0.1280
0001456550;7.2903;2.7485;3.2968;0.0589;0.1336;-0.1191
0001456559;7.1347;2.5283;3.2968;0.0679;0.1314;-0.1146
0001456568;7.1994;2.3822;3.3734;0.0742;0.1328;-0.0998
0001456580;7.0557;2.0255;3.5841;0.1058;0.1238;-0.0909
0001456589;6.9336;1.9537;3.6392;0.1296;0.1167;-0.0811
0001456602;6.7708;1.7885;3.7062;0.1390;0.0913;-0.0565
0001456611;6.6128;1.7717;3.8475;0.1443;0.0596;-0.0472
0001456623;6.6607;1.7693;3.9121;0.1402;0.0175;-0.0406
0001456632;6.3470;1.6592;4.0965;0.1292;-0.0123;-0.0444
0001456641;6.4835;1.7454;4.1396;0.1218;-0.0554;-0.0506
0001456654;6.4069;1.6065;4.2497;0.1069;-0.1019;-0.0612
0001456663;6.4548;1.6400;4.3144;0.1005;-0.1359;-0.0766
0001456675;6.5218;1.5107;4.0989;0.1186;-0.2000;-0.0978
0001456684;6.7732;1.6161;4.1515;0.1192;-0.2284;-0.1103
0001456697;7.1611;1.7717;4.0390;0.1307;-0.2647;-0.1208
0001456706;7.2856;1.7358;3.8738;0.1386;-0.2739;-0.1327
0001456715;7.4747;1.8364;3.7278;0.1609;-0.2758;-0.1414
0001456785;8.3510;2.4708;3.0789;0.2535;0.0055;0.0985
0001456794;8.2337;2.6911;2.9928;0.2623;0.0552;0.1577
0001456807;8.3462;2.3320;2.9784;0.2627;0.1073;0.2366
0001456816;8.1618;2.3248;3.0885;0.2754;0.1464;0.2731
0001456828;7.9033;2.1955;3.2178;0.3011;0.1781;0.3134
0001456837;7.7668;2.2458;3.1627;0.3046;0.1956;0.3283
0001456846;7.4436;2.1668;3.2106;0.3055;0.1940;0.3238
0001456859;6.9576;2.3511;3.2154;0.3067;0.1879;0.3163
0001456868;6.8522;2.1548;3.0933;0.2710;0.1736;0.3068
0001456880;6.7157;2.1572;3.2346;0.2573;0.1304;0.2790
0001456889;6.5050;2.1883;3.1316;0.2561;0.0878;0.2558
0001456902;6.5769;2.3032;3.0837;0.2405;0.0302;0.2144
0001456911;6.3494;2.6097;2.9736;0.2461;-0.0047;0.1747
0001456920;6.9695;2.3200;2.8395;0.2189;-0.0466;0.1608
0001456932;7.1802;2.2936;2.8946;0.2182;-0.0869;0.1176
0001456941;7.0509;2.1524;2.8036;0.2178;-0.1179;0.0955
0001456954;7.5010;2.2170;2.8132;0.2161;-0.1571;0.0620
0001456963;7.7835;2.5666;2.8754;0.2090;-0.1727;0.0417
0001456975;7.7141;2.3798;2.9209;0.1781;-0.1859;0.0254
0001456984;7.7788;2.3415;2.6671;0.1444;-0.1755;0.0069
0001456993;7.8865;2.6001;2.6671;0.1316;-0.1671;-0.0077
0001457007;7.8003;2.6360;2.5594;0.1194;-0.1536;-0.0221
0001457016;7.6088;2.6528;2.5905;0.1042;-0.1366;-0.0195
0001457084;7.9823;2.6169;2.1332;0.0909;0.0274;0.0100
0001457093;7.9104;2.5690;2.2290;0.0857;0.0564;0.0264
0001457105;8.0780;2.7294;2.0399;0.0889;0.0814;0.0397
0001457114;7.8578;2.7318;2.1308;0.0870;0.0991;0.0436
0001457123;8.1163;2.8826;2.1117;0.0795;0.1155;0.0509
0001457136;8.0756;2.9497;2.0016;0.0541;0.1343;0.0578
0001457145;7.9272;2.7557;1.9417;0.0312;0.1520;0.0604
0001457157;8.0038;2.8204;1.9273;-0.0007;0.1636;0.0528
0001457166;7.8195;2.5307;1.9249;-0.0139;0.1753;0.0417
0001457179;7.7069;2.4493;1.8675;-0.0273;0.1775;0.0179
0001457188;7.5633;2.3104;1.8244;-0.0354;0.1892;0.0115
0001457197;7.6471;2.3798;1.8100;-0.0334;0.1840;-0.0027
0001457209;7.5681;2.5019;1.8483;-0.0336;0.1797;-0.0269
0001457218;7.5369;2.6360;1.9058;-0.0526;0.1817;-0.0356
0001457231;7.7285;2.6719;1.9249;-0.0797;0.1729;-0.0517
0001457240;7.5848;2.6935;1.9800;-0.0982;0.1703;-0.0650
0001457252;7.5441;2.9353;1.9106;-0.1278;0.1659;-0.0709
0001457261;7.7069;2.7390;1.9465;-0.1488;0.1527;-0.0787
0001457270;7.5010;2.5402;1.9297;-0.1688;0.1531;-0.0713
0001457283;7.4771;2.6025;1.8052;-0.1776;0.1454;-0.0703
0001457292;7.8362;2.6384;1.6137;-0.1779;0.1553;-0.0715
0001457304;7.6207;2.4972;1.5467;-0.1515;0.1716;-0.0726
0001457313;7.5274;2.3008;1.5897;-0.1331;0.1724;-0.0755
0001457383;7.6638;2.5857;1.5897;-0.0738;0.2734;0.0008
0001457392;7.5992;2.6935;1.6089;-0.0673;0.2821;0.0112
0001457401;7.6591;2.6240;1.6065;-0.0663;0.2836;0.0184
0001457413;7.8697;2.8419;1.6544;-0.0686;0.2920;0.0232
0001457422;7.6231;2.6935;1.6520;-0.0814;0.3027;0.0265
0001457435;7.6926;2.8491;1.5347;-0.0942;0.2992;0.0203
0001457444;7.6591;2.8204;1.5945;-0.1128;0.2987;0.0156
0001457456;7.5513;2.7605;1.6759;-0.1318;0.2931;0.0081
0001457465;7.6160;2.8635;1.6448;-0.1492;0.2908;0.0095
0001457474;7.6303;3.0095;1.6472;-0.1703;0.2783;0.0092
0001457487;7.5896;2.9353;1.9680;-0.1880;0.2578;0.0277
0001457496;7.5489;3.0909;2.1763;-0.1985;0.2377;0.0422
0001457508;7.4460;3.3279;2.4277;-0.2146;0.2054;0.0790
0001457517;7.1611;3.4261;2.7485;-0.2236;0.1803;0.1346
0001457530;7.0797;3.4093;2.9928;-0.2372;0.1192;0.2089
0001457539;6.9863;3.0885;3.2465;-0.2565;0.0693;0.2530
0001457548;7.3263;3.0837;3.3064;-0.2713;0.0233;0.2741
0001457560;7.5776;2.9018;2.9497;-0.2878;-0.0238;0.2806
0001457569;7.5776;2.8323;2.8419;-0.3015;-0.0525;0.2725
0001457582;7.6591;2.6600;3.0287;-0.3481;-0.0693;0.2710
0001457591;7.7716;2.8778;3.1029;-0.3713;-0.0755;0.2870
0001457603;7.9990;2.7988;3.1340;-0.3742;-0.0979;0.3110
0001457612;7.9847;2.5450;3.0981;-0.3589;-0.1001;0.3396
0001457681;9.2320;2.0853;2.4301;0.0834;0.0549;0.5617
0001457690;9.1889;2.0494;2.4995;0.1007;0.1078;0.5532
0001457699;9.1291;2.1476;2.4660;0.1070;0.1713;0.5413
0001457711;9.0812;2.3870;2.5163;0.1103;0.2399;0.5025
0001457720;9.0046;2.7150;2.6145;0.1001;0.2815;0.4739
0001457733;8.3797;2.7773;2.6983;0.0637;0.3070;0.4255
0001457742;8.1618;2.9832;2.8467;0.0304;0.3043;0.3901
0001457754;7.8530;2.8419;2.9377;-0.0192;0.2908;0.3561
0001457763;7.5896;2.5594;2.9928;-0.0452;0.2715;0.3297
0001457772;7.3909;2.2314;3.1388;-0.0632;0.2459;0.2971
0001457785;7.6112;2.0399;3.0957;-0.0754;0.2008;0.2380
0001457794;7.4364;1.8507;3.3040;-0.0829;0.1673;0.1936
0001457806;7.0797;1.6233;3.3471;-0.0833;0.1179;0.1378
0001457815;6.8690;1.4533;3.4357;-0.0829;0.0642;0.1102
0001457828;6.6319;1.6999;3.3327;-0.0958;-0.0089;0.0679
0001457837;6.5290;1.8771;3.4046;-0.1107;-0.0582;0.0397
0001457846;6.5027;1.9776;3.3591;-0.1202;-0.1079;0.0111
0001457858;6.8881;2.1691;3.2298;-0.1182;-0.1657;-0.0317
0001457867;7.0988;2.1763;3.2537;-0.1010;-0.2085;-0.0580
0001457880;7.5513;2.4229;3.3351;-0.1070;-0.2384;-0.0770
0001457889;7.9176;2.4157;3.4022;-0.1278;-0.2336;-0.0831
0001457901;8.2815;2.6049;3.5123;-0.1624;-0.2130;-0.0929
0001457910;8.4372;2.5043;3.5674;-0.1883;-0.1839;-0.1017
0001457919;8.6646;2.1907;3.6799;-0.1933;-0.1428;-0.1083
0001457989;8.1163;1.7885;3.9217;-0.0232;0.2501;-0.0344
0001457998;8.2049;1.5778;3.9600;-0.0161;0.2814;-0.0253
0001458010;8.2121;1.8794;4.0749;0.0029;0.3427;0.0057
0001458019;7.9535;1.9345;4.1492;-0.0052;0.3769;0.0260
0001458032;7.7644;2.0901;4.2114;-0.0163;0.4198;0.0368
0001458041;7.5010;2.0207;4.1827;-0.0256;0.4367;0.0345
0001458053;7.1323;2.0494;4.1396;-0.0196;0.4266;0.0236
0001458062;6.8857;1.7765;4.0654;-0.0188;0.4008;0.0043
0001458071;6.5577;1.7693;3.8666;0.0097;0.3577;-0.0156
0001458084;6.5481;1.8459;3.8690;0.0258;0.2831;-0.0470
0001458093;6.5050;2.0159;3.8140;0.0520;0.2250;-0.0866
0001458105;6.5984;2.0542;3.8427;0.0592;0.1735;-0.1390
0001458114;6.8881;2.1284;3.7828;0.0711;0.1360;-0.1804
0001458127;7.0342;2.1476;3.7541;0.0783;0.1112;-0.2264
0001458136;7.2544;1.9154;3.5913;0.0825;0.0873;-0.2426
0001458145;7.1036;2.0111;3.5985;0.0994;0.0729;-0.2598
0001458157;7.2999;2.1548;3.4644;0.1118;0.0520;-0.2607
0001458166;7.2185;2.1620;3.4333;0.1015;0.0494;-0.2513
0001458179;7.3430;2.0303;3.4381;0.0899;0.0364;-0.2513
0001458188;7.1251;2.2146;3.5578;0.0881;0.0332;-0.2427
0001458200;7.2712;2.2051;3.3806;0.0829;0.0298;-0.2403
0001458209;7.2161;2.0327;3.3232;0.0837;0.0426;-0.2281
0001458218;7.3909;2.0183;3.2681;0.0994;0.0512;-0.2240
0001458287;7.0653;2.0494;3.0622;0.2246;0.0501;-0.1856
0001458296;6.9360;1.9872;3.0023;0.2366;0.0442;-0.1685
0001458308;7.0366;2.1308;2.9473;0.2579;0.0236;-0.1531
0001458317;7.1778;2.3535;2.9975;0.2635;0.0117;-0.1374
0001458330;7.2544;2.4780;2.9042;0.2442;-0.0036;-0.1140
0001458339;7.2161;2.7845;2.9377;0.2097;-0.0196;-0.0861
0001458348;7.3717;2.7102;2.7342;0.1757;-0.0493;-0.0919
0001458362;6.7876;2.8611;2.7078;0.1234;-0.0751;-0.0842
0001458371;6.7253;2.9090;2.5259;0.0846;-0.0867;-0.0749
0001458384;6.9192;2.8635;2.4421;0.0416;-0.1268;-0.0636
0001458393;7.1658;2.8850;2.4780;0.0188;-0.1520;-0.0490
0001458405;7.2113;2.6360;2.2673;-0.0069;-0.1837;-0.0366
0001458414;7.2377;2.7342;2.2529;-0.0221;-0.2137;-0.0338
0001458427;7.2927;2.7773;2.1644;-0.0357;-0.2373;-0.0469
0001458436;7.3646;2.8084;2.1979;-0.0446;-0.2677;-0.0520
0001458445;7.1395;2.5881;2.2338;-0.0612;-0.2948;-0.0482
0001458457;6.8642;2.4325;2.3104;-0.0557;-0.3273;-0.0445
0001458466;6.9264;2.5331;2.2098;-0.0538;-0.3692;-0.0441
0001458535;7.4915;2.5833;1.8220;-0.0975;-0.4955;-0.0650
0001458544;7.6088;2.2960;1.6879;-0.1029;-0.5240;-0.0590
0001458556;7.5274;2.6504;1.7238;-0.1041;-0.5320;-0.0586
0001458565;7.3239;2.6121;1.6903;-0.1140;-0.5508;-0.0512
0001458579;7.1539;2.7605;1.6735;-0.1160;-0.5588;-0.0612
0001458588;7.1467;2.6121;1.6807;-0.1362;-0.5622;-0.0592
0001458597;7.1898;2.6600;1.7645;-0.1427;-0.5646;-0.0640
0001458610;7.2951;2.6552;1.8603;-0.1559;-0.5666;-0.0633
0001458619;7.2880;2.6719;1.8292;-0.1620;-0.5606;-0.0698
0001458631;7.5298;2.6025;1.9585;-0.1713;-0.5549;-0.0694
0001458640;7.5058;2.8563;1.8603;-0.1619;-0.5474;-0.0741
0001458653;7.5010;2.5857;1.7980;-0.1653;-0.5281;-0.0759
0001458662;7.7309;2.4157;1.8124;-0.1883;-0.5088;-0.0625
0001458674;7.5346;2.6504;1.7071;-0.1601;-0.4840;-0.0713
0001458683;7.6064;2.7414;1.6520;-0.1557;-0.4634;-0.0802
0001458692;7.6495;2.7892;1.7813;-0.1631;-0.4427;-0.0890
0001458705;7.8171;2.8228;1.9585;-0.1680;-0.3985;-0.1208
0001458714;7.7907;2.6552;2.0016;-0.1792;-0.3677;-0.1523
0001458726;8.0565;2.7821;2.2577;-0.1751;-0.3196;-0.2012
0001458735;8.1690;2.8946;2.3918;-0.1725;-0.2687;-0.2478
0001458748;8.4036;2.8970;2.7007;-0.1580;-0.1920;-0.3299
0001458757;8.3797;2.8802;2.8012;-0.1468;-0.1435;-0.3880
0001458827;7.0677;2.3870;2.8395;0.0432;0.0985;-0.4794
0001458836;6.9671;2.6719;2.9951;0.0200;0.1138;-0.4628
0001458845;6.8833;2.7557;3.2513;0.0096;0.1344;-0.4606
0001458858;6.4165;2.7988;3.2034;-0.0131;0.1498;-0.4832
0001458867;6.3255;2.8108;3.1627;-0.0345;0.1536;-0.4922
0001458879;5.8203;2.7821;3.1723;-0.0211;0.1246;-0.4948
0001458888;5.4971;2.3679;2.9592;-0.0019;0.0799;-0.4836
0001458901;5.4612;2.4397;2.8706;0.0486;-0.0176;-0.4391
0001458910;5.4420;2.4397;2.7533;0.0807;-0.0826;-0.4151
0001458919;5.6599;2.8012;2.9257;0.1034;-0.1359;-0.3801
0001458931;6.1746;3.1220;3.0430;0.1420;-0.1961;-0.3132
0001458940;6.5553;3.3926;3.1412;0.1447;-0.2188;-0.2675
0001458953;7.3430;3.7661;3.2705;0.1001;-0.2140;-0.1956
0001458962;7.4124;3.7278;3.2034;0.0572;-0.2069;-0.1539
0001458974;7.7045;3.0670;3.1939;0.0088;-0.1659;-0.0919
0001458983;7.7333;2.5714;3.0718;-0.0057;-0.1462;-0.0574
0001458996;7.7452;2.0279;3.0191;0.0097;-0.0974;-0.0021
0001459005;7.6567;1.7669;2.8778;0.0245;-0.0779;0.0256
0001459014;7.5130;1.5467;2.8802;0.0501;-0.0493;0.0557
0001459026;7.0797;1.4102;2.7701;0.0977;-0.0312;0.0817
0001459035;7.0773;1.5395;2.8084;0.1238;-0.0330;0.0705
0001459048;6.7157;1.7142;2.7892;0.1528;-0.0349;0.0566
0001459057;6.5649;1.8196;2.8994;0.1749;-0.0405;0.0430
0001459127;6.3925;2.2745;3.3710;0.1046;-0.1352;-0.0218
0001459136;6.1268;2.1668;3.4069;0.1066;-0.1685;-0.0211
0001459145;6.3207;2.0949;3.4907;0.0871;-0.2006;-0.0286
0001459158;6.4596;2.1739;3.7038;0.0791;-0.2586;-0.0384
0001459167;6.4835;2.2218;3.7493;0.0661;-0.2900;-0.0362
0001459179;6.5888;2.0159;3.7781;0.0505;-0.3433;-0.0473
0001459188;7.0126;2.2505;3.7254;0.0437;-0.3691;-0.0538
0001459201;7.2903;2.2482;3.7757;0.0284;-0.3996;-0.0526
0001459210;7.5896;2.4110;3.6775;0.0302;-0.4235;-0.0544
0001459219;7.6662;2.3008;3.4836;0.0314;-0.4201;-0.0390
0001459231;7.6614;2.2410;3.2729;0.0382;-0.4247;-0.0205
0001459240;7.9128;2.2697;3.2250;0.0282;-0.4121;0.0020
0001459253;8.0852;2.3248;2.8970;0.0345;-0.3978;0.0342
0001459262;7.9895;2.3966;2.7653;0.0510;-0.3846;0.0641
0001459274;8.0062;2.3870;2.7438;0.0588;-0.3552;0.1086
0001459283;7.9248;2.3798;2.4995;0.0669;-0.3389;0.1304
0001459292;7.9583;2.4708;2.6121;0.0762;-0.3207;0.1480
0001459305;7.7692;2.6169;2.5881;0.0854;-0.2876;0.1571
0001459314;7.7476;2.4900;2.6719;0.0777;-0.2679;0.1628
0001459326;7.5178;2.3296;2.6695;0.0717;-0.2477;0.1524
0001459335;7.2449;2.3583;2.6624;0.0602;-0.2300;0.1500
0001459348;7.2353;2.4948;2.6959;0.0442;-0.2180;0.1302
0001459357;6.9025;2.4277;2.7294;0.0322;-0.2262;0.1182
0001459366;6.9192;2.5426;2.9401;0.0193;-0.2410;0.1078
0001459436;7.3023;2.2098;2.5977;-0.0939;-0.3657;-0.0249
0001459445;7.6758;2.4301;2.6097;-0.1037;-0.3641;-0.0317
0001459458;7.5992;2.5043;2.5115;-0.1162;-0.3589;-0.0304
0001459467;7.9775;2.7150;2.6432;-0.1268;-0.3588;-0.0155
0001459479;7.9799;2.6217;2.5091;-0.1315;-0.3449;0.0063
0001459488;8.1044;2.5833;2.5905;-0.1279;-0.3384;0.0173
0001459501;7.9966;2.5259;2.4349;-0.1339;-0.3142;0.0414
0001459510;8.1738;2.4636;2.3008;-0.1348;-0.2974;0.0490
0001459519;8.1427;2.5307;2.2003;-0.1282;-0.2766;0.0602
0001459531;8.0756;2.3439;2.1356;-0.1307;-0.2361;0.0646
0001459540;8.0613;2.3224;2.1308;-0.1272;-0.2008;0.0618
0001459553;8.2600;2.4421;1.9704;-0.1211;-0.1476;0.0488
0001459562;8.1355;2.3296;1.8818;-0.1179;-0.1087;0.0496
0001459574;8.2193;2.5498;1.8723;-0.1086;-0.0548;0.0486
0001459583;8.1427;2.5809;1.8172;-0.1073;-0.0215;0.0504
0001459596;8.1858;2.4612;1.7957;-0.1079;0.0199;0.0474
0001459605;8.0254;2.4253;1.7957;-0.1091;0.0518;0.0496
0001459614;8.0948;2.2577;1.7119;-0.1146;0.0846;0.0430
0001459626;8.2049;2.0997;1.7310;-0.1069;0.1294;0.0480
0001459635;8.4324;2.1308;1.7597;-0.0973;0.1551;0.0417
0001459648;8.7101;2.1332;1.6640;-0.0733;0.2041;0.0377
0001459657;8.4946;2.0135;1.7119;-0.0544;0.2433;0.0346
0001459727;8.4659;2.8826;2.0446;-0.1448;0.4976;0.0201
0001459736;8.2241;2.7126;2.2505;-0.1728;0.5225;0.0104
0001459745;8.2624;2.5857;2.3990;-0.2072;0.5500;0.0087
0001459758;8.0517;2.2410;2.4612;-0.2240;0.5557;0.0007
0001459767;7.9152;2.2146;2.4565;-0.2066;0.5435;-0.0055
0001459779;7.6782;2.2913;2.3894;-0.1695;0.5435;-0.0012
0001459788;7.7069;2.3894;2.4397;-0.1392;0.5275;0.0035
0001459801;7.6950;2.5905;2.5450;-0.1306;0.5127;0.0205
0001459810;7.7716;2.6264;2.3822;-0.1287;0.5133;0.0400
0001459819;7.8051;2.8323;2.3511;-0.1283;0.5100;0.0613
0001459831;8.1427;3.1388;2.2913;-0.1589;0.5101;0.1087
0001459840;8.3677;3.2441;2.3200;-0.2077;0.5155;0.1404
0001459853;8.5090;3.5410;2.9377;-0.2868;0.5578;0.1969
0001459862;8.7053;3.7254;3.0478;-0.3120;0.5725;0.2645
0001459874;8.1259;3.7972;3.6152;-0.3308;0.5717;0.3433
0001459883;7.8913;3.9552;3.9504;-0.3473;0.5530;0.4157
0001459892;7.5896;3.8283;4.0270;-0.3501;0.5041;0.4806
0001459905;7.3047;3.6368;4.2497;-0.3387;0.4170;0.5560
0001459914;7.1682;3.0861;4.0127;-0.3208;0.3548;0.5995
0001459926;7.3239;2.7342;3.7182;-0.2932;0.2803;0.6348
0001459935;7.5058;2.5331;3.5291;-0.2827;0.2505;0.6311
0001459948;7.7452;2.4397;3.2561;-0.2730;0.2337;0.5830
0001459957;7.9847;2.3559;3.2250;-0.2783;0.2486;0.5337
0001459966;8.1882;2.2601;3.2274;-0.2703;0.2553;0.4700
0001460036;7.1802;1.6616;3.5099;-0.2658;0.2793;0.2618
0001460045;6.9911;1.6831;3.6105;-0.2825;0.2471;0.2226
0001460058;6.5290;1.4796;3.7445;-0.3011;0.1749;0.1699
0001460067;6.4524;1.3910;3.6488;-0.3060;0.1203;0.1391
0001460078;6.4811;1.3336;3.6847;-0.2899;0.0493;0.0887
0001460087;6.7229;1.1660;3.6799;-0.2650;0.0008;0.0609
0001460096;6.8857;1.0199;3.6368;-0.2392;-0.0425;0.0326
0001460110;7.6614;1.2234;3.8355;-0.1873;-0.0897;0.0088
0001460119;7.7859;1.2785;3.8164;-0.1492;-0.0942;0.0007
0001460132;8.0709;1.7310;4.0342;-0.1054;-0.0798;-0.0007
0001460141;8.0182;1.8028;4.0462;-0.0919;-0.0517;0.0156
0001460153;8.1379;2.0686;4.3359;-0.0869;-0.0075;0.0301
0001460162;8.1187;2.0399;4.4724;-0.0929;0.0416;0.0368
0001460171;7.9440;1.8747;4.4508;-0.0901;0.0753;0.0369
0001460184;7.9080;1.5419;4.3886;-0.0831;0.1266;0.0572
0001460193;7.9727;1.4557;4.1970;-0.0561;0.1426;0.0706
0001460205;7.8099;1.1396;4.2641;-0.0293;0.1728;0.0945
0001460214;7.8027;1.2689;4.2210;-0.0176;0.1776;0.1132
0001460227;7.7093;1.2689;4.1108;-0.0071;0.1771;0.1386
0001460236;7.5250;1.3120;4.2569;-0.0057;0.1639;0.1330
0001460248;7.6184;1.4724;4.2808;0.0017;0.1540;0.1134
0001460257;7.3861;1.5083;4.2856;0.0011;0.1303;0.1066
0001460266;7.1587;1.4317;4.3239;-0.0188;0.1166;0.0823
0001460336;6.5697;1.6568;4.2952;0.1824;-0.1809;-0.0322
0001460345;6.6343;1.8651;4.0007;0.2049;-0.2216;-0.0715
0001460357;6.6846;2.0638;4.0007;0.2185;-0.2583;-0.1114
0001460366;6.7181;2.0135;4.0558;0.2228;-0.2785;-0.1375
0001460379;6.8522;2.1261;4.0247;0.2157;-0.3071;-0.1827
0001460388;6.9576;2.1165;3.9863;0.2085;-0.3215;-0.2065
0001460397;6.8666;2.0327;3.8355;0.2222;-0.3352;-0.2328
0001460409;7.1371;1.8986;3.8930;0.2280;-0.3439;-0.2522
0001460418;7.2018;2.0039;3.9049;0.2401;-0.3532;-0.2671
0001460431;7.5106;2.0183;3.8882;0.2493;-0.3604;-0.2794
0001460440;7.5202;2.0207;3.7852;0.2495;-0.3519;-0.2763
0001460452;7.4316;1.9896;3.7182;0.2590;-0.3387;-0.2635
0001460461;7.4244;1.8651;3.6895;0.2711;-0.3267;-0.2606
0001460470;7.4699;1.8531;3.7134;0.2694;-0.3072;-0.2510
0001460483;7.5322;1.8747;3.6344;0.2860;-0.2794;-0.2507
0001460492;7.6231;1.8818;3.6176;0.2817;-0.2622;-0.2421
0001460504;7.5944;2.0111;3.7062;0.2750;-0.2439;-0.2466
0001460513;7.6207;2.1620;3.5674;0.2667;-0.2417;-0.2603
0001460526;7.2975;2.1691;3.7852;0.2439;-0.2381;-0.2553
0001460535;7.4795;2.2769;3.8427;0.2026;-0.2334;-0.2441
0001460547;7.2999;2.4110;3.8140;0.1761;-0.2395;-0.2406
0001460556;6.8642;2.2266;3.6823;0.1514;-0.2438;-0.2293
0001460565;7.0797;2.2314;3.6775;0.1322;-0.2625;-0.2262
0001460634;7.4005;2.5809;2.9904;0.0826;-0.4037;-0.1968
0001460643;7.1874;2.5259;3.1412;0.0663;-0.4193;-0.1961
0001460655;7.2377;2.5283;2.9544;0.0509;-0.4445;-0.1986
0001460664;7.1467;2.4134;2.8850;0.0310;-0.4598;-0.1944
0001460677;7.1658;2.5019;2.7557;0.0333;-0.4762;-0.1941
0001460686;7.4412;2.4948;2.8276;0.0276;-0.4935;-0.1996
0001460695;7.2377;2.3870;2.8252;0.0187;-0.4964;-0.1920
0001460707;7.2616;2.4804;2.6480;0.0093;-0.5075;-0.1864
0001460716;7.2329;2.2290;2.6671;-0.0013;-0.5139;-0.1823
0001460729;7.4986;2.2122;2.5450;0.0029;-0.5180;-0.1800
0001460738;7.3622;2.3080;2.5642;0.0089;-0.5172;-0.1763
0001460750;7.4843;2.2314;2.2984;0.0160;-0.5144;-0.1692
0001460759;7.5920;2.3631;2.3750;0.0077;-0.5101;-0.1572
0001460772;7.7021;2.5043;2.3655;-0.0071;-0.5096;-0.1376
0001460781;7.5250;2.5762;2.3104;-0.0104;-0.5051;-0.1354
0001460790;7.5729;2.5905;2.2936;-0.0440;-0.4922;-0.1186
0001460802;7.5872;2.5307;2.3607;-0.0725;-0.4748;-0.1082
0001460811;7.4651;2.5953;2.3128;-0.1047;-0.4722;-0.0921
0001460824;7.5010;2.3703;2.3822;-0.1236;-0.4571;-0.0690
0001460833;7.7620;2.2841;2.2913;-0.1252;-0.4461;-0.0622
0001460845;7.8578;2.2338;2.2889;-0.1282;-0.4397;-0.0534
0001460854;7.7788;2.0111;2.3176;-0.1147;-0.4339;-0.0528
0001460923;7.8362;2.9616;2.3104;-0.1426;-0.3644;-0.0237
0001460932;7.8697;3.1867;2.4469;-0.1536;-0.3639;-0.0195
0001460941;7.7333;2.9377;2.5091;-0.1823;-0.3677;-0.0205
0001460953;7.4196;2.8706;2.5570;-0.2110;-0.3798;-0.0200
0001460962;7.2640;2.6983;2.4373;-0.2213;-0.3829;-0.0281
0001460975;7.1922;2.6384;2.4972;-0.2204;-0.3985;-0.0557
0001460984;7.0366;2.5355;2.4038;-0.2129;-0.4085;-0.0762
0001460996;6.8283;2.4804;2.4493;-0.2009;-0.4278;-0.1086
0001461005;7.1299;2.6073;2.5211;-0.1919;-0.4463;-0.1398
0001461018;7.3885;2.8754;2.6169;-0.1853;-0.4583;-0.1820
0001461027;7.3191;2.7821;2.7198;-0.1815;-0.4411;-0.2101
0001461036;7.3789;2.7869;2.6791;-0.1595;-0.4263;-0.2486
0001461048;7.8578;2.9880;2.8754;-0.1384;-0.3850;-0.3191
0001461057;8.0756;3.2010;2.8826;-0.1420;-0.3375;-0.3676
0001461070;8.4635;3.4405;2.9688;-0.1708;-0.2647;-0.4040
0001461079;8.7149;3.4381;3.1436;-0.1815;-0.2098;-0.4175
0001461091;8.8825;3.2609;2.9736;-0.1923;-0.1226;-0.4206
0001461100;8.9807;3.0263;3.0478;-0.1972;-0.0356;-0.3976
0001461113;8.8849;2.9281;3.0933;-0.1985;0.0747;-0.3547
0001461122;8.6263;2.9760;2.9281;-0.1837;0.1379;-0.3188
0001461131;7.9942;2.7054;2.9090;-0.1751;0.1828;-0.2831
0001461143;7.4771;2.7940;2.9377;-0.1703;0.2192;-0.2056
0001461152;7.1730;2.6528;3.0143;-0.1591;0.2098;-0.1677
0001461222;6.5457;1.7166;3.4165;-0.0581;-0.1095;-0.1907
0001461231;6.8546;1.7166;3.3471;-0.0518;-0.1304;-0.2125
0001461243;7.4531;1.8148;3.3830;-0.0533;-0.1196;-0.2470
0001461252;7.7907;1.7454;3.3184;-0.0558;-0.0967;-0.2609
0001461265;8.0804;1.7885;3.2058;-0.0502;-0.0393;-0.2783
0001461274;8.2361;1.8244;3.1364;-0.0480;-0.0003;-0.2795
0001461283;8.2887;1.9130;3.0933;-0.0286;0.0330;-0.2842
0001461295;8.2145;1.8483;3.1149;-0.0048;0.0838;-0.2649
0001461304;8.0182;1.9058;3.0526;0.0242;0.1047;-0.2449
0001461317;7.3957;1.8340;3.1244;0.0625;0.1200;-0.1976
0001461326;7.2353;1.8483;3.0957;0.0891;0.1144;-0.1724
0001461338;6.8570;1.9201;3.0742;0.1108;0.0973;-0.1303
0001461347;6.5673;1.9249;3.1340;0.1374;0.0783;-0.1086
0001461356;6.7564;1.9321;3.1795;0.1402;0.0706;-0.0914
0001461369;6.7947;1.9441;3.1915;0.1707;0.0525;-0.0902
0001461378;6.9073;1.8148;3.2441;0.1792;0.0558;-0.0966
0001461390;7.1802;1.9297;3.3662;0.2141;0.0538;-0.1187
0001461399;7.1611;1.9154;3.4524;0.2264;0.0675;-0.1291
0001461412;7.3167;1.9896;3.6129;0.2386;0.0721;-0.1378
0001461421;6.9408;1.6903;3.7685;0.2356;0.0659;-0.1378
0001461430;6.8402;1.5802;3.8978;0.2378;0.0593;-0.1314
0001461442;6.7038;1.4964;3.9672;0.2330;0.0464;-0.1180
0001461451;6.6367;1.4916;4.0510;0.2170;0.0429;-0.1041
0001461521;6.6032;2.2601;3.9935;0.2037;-0.1935;-0.1985
0001461530;6.7109;2.3894;3.9672;0.2110;-0.2153;-0.1944
0001461542;7.1012;2.3990;3.8235;0.2038;-0.2254;-0.1756
0001461549;7.1036;2.3104;3.6607;0.2038;-0.2298;-0.1490
0001461557;7.3765;2.1189;3.6799;0.2132;-0.2297;-0.1107
0001461570;7.5417;2.2865;3.3567;0.2474;-0.2206;-0.0682
0001461578;7.4747;2.3176;3.3519;0.2721;-0.2082;-0.0394
0001461590;7.4867;2.3631;3.2489;0.2956;-0.1917;0.0056
0001461598;7.7716;2.6312;3.1627;0.3015;-0.1736;0.0221
0001461609;7.8290;2.6959;3.0263;0.3127;-0.1455;0.0481
0001461617;7.5130;2.7390;3.0071;0.3154;-0.1248;0.0674
0001461629;7.6064;2.9664;2.8730;0.2935;-0.0873;0.1079
0001461637;7.6016;3.0406;2.8467;0.2710;-0.0778;0.1316
