time;acc_x;acc_y;acc_z;gyro_x;gyro_y;gyro_z
0000409567;7.0820;2.9233;1.4030;0.0332;-0.0011;-0.0366
0000409575;7.1251;2.9712;1.3264;0.0414;0.0023;-0.0406
0000409582;7.1467;3.1220;1.3360;0.0416;0.0048;-0.0440
0000409590;7.0820;3.0502;1.3958;0.0417;0.0125;-0.0368
0000409598;7.1635;2.9832;1.3647;0.0380;0.0212;-0.0354
0000409606;6.9552;2.9832;1.4126;0.0437;0.0168;-0.0396
0000409614;7.1084;2.9928;1.3838;0.0398;0.0276;-0.0300
0000409622;6.9480;2.8299;1.2641;0.0412;0.0296;-0.0276
0000409630;6.9576;3.0789;1.4509;0.0452;0.0332;-0.0294
0000409638;7.1658;3.1603;1.3120;0.0449;0.0346;-0.0242
0000409646;7.0437;3.0191;1.4054;0.0414;0.0390;-0.0230
0000409654;6.9121;3.0406;1.4102;0.0441;0.0430;-0.0200
0000409662;6.9983;3.0047;1.3431;0.0494;0.0378;-0.0183
0000409670;7.0533;3.0454;1.2833;0.0461;0.0326;-0.0273
0000409678;6.9599;2.9281;1.3216;0.0490;0.0364;-0.0234
0000409686;6.8546;2.8539;1.3216;0.0406;0.0445;-0.0144
0000409694;6.9887;2.8635;1.2977;0.0501;0.0408;-0.0233
0000409702;7.0773;3.0957;1.3886;0.0416;0.0484;-0.0191
0000409710;7.0030;3.0646;1.2450;0.0398;0.0482;-0.0220
0000409718;6.8881;2.9951;1.3216;0.0380;0.0528;-0.0189
0000409726;6.8354;2.9401;1.2905;0.0350;0.0492;-0.0183
0000409734;6.9815;3.1364;1.2546;0.0350;0.0442;-0.0236
0000409742;6.9576;3.0430;1.3791;0.0309;0.0460;-0.0181
0000409750;6.9911;3.1220;1.3168;0.0281;0.0492;-0.0153
0000409758;7.0102;3.0837;1.2809;0.0273;0.0406;-0.0200
0000409766;6.9312;3.1005;1.2665;0.0216;0.0380;-0.0152
0000409774;7.0246;3.0071;1.3024;0.0220;0.0328;-0.0220
0000409782;6.8115;2.9951;1.2258;0.0193;0.0312;-0.0217
0000409790;7.0485;3.3088;1.2522;0.0107;0.0297;-0.0127
0000409798;6.7708;3.0382;1.3408;0.0079;0.0252;-0.0213
0000409806;6.9168;3.0454;1.2594;0.0085;0.0168;-0.0248
0000409814;6.9695;3.0718;1.1947;-0.0005;0.0129;-0.0204
0000409822;6.8187;3.1220;1.2139;0.0012;0.0011;-0.0310
0000409830;6.8283;3.0191;1.2570;-0.0059;-0.0023;-0.0258
0000409838;6.6894;2.9760;1.3144;-0.0135;-0.0120;-0.0326
0000409846;6.7804;3.0574;1.2163;-0.0215;-0.0145;-0.0290
0000409854;6.8642;3.1125;1.2378;-0.0306;-0.0209;-0.0365
0000409862;6.8905;3.1843;1.2737;-0.0449;-0.0325;-0.0418
0000409870;6.9456;3.1627;1.4437;-0.0612;-0.0352;-0.0497
0000409878;6.8809;3.1627;1.4102;-0.0769;-0.0296;-0.0549
0000409886;6.9192;3.2801;1.3408;-0.0858;-0.0313;-0.0677
0000409894;6.8857;3.1292;1.3862;-0.0982;-0.0292;-0.0763
0000409902;6.8929;3.0670;1.2713;-0.1118;-0.0144;-0.0750
0000409910;7.0078;3.2920;1.2761;-0.1270;-0.0049;-0.0793
0000409918;7.0509;3.1149;1.4461;-0.1379;0.0017;-0.0918
0000409926;6.9983;3.2681;1.5538;-0.1507;0.0068;-0.0869
0000409934;6.5864;3.1819;1.5969;-0.1591;-0.0012;-0.0821
0000409942;6.3853;3.2394;1.6041;-0.1712;-0.0049;-0.0733
0000409950;6.1770;3.1723;1.7454;-0.1733;-0.0129;-0.0601
0000409958;5.7940;3.0742;1.6759;-0.1632;-0.0199;-0.0585
0000409966;5.8586;3.0789;1.7478;-0.1520;-0.0329;-0.0733
0000409974;5.9113;3.1723;1.7095;-0.1544;-0.0372;-0.0805
0000409982;5.8538;3.1316;1.6831;-0.1520;-0.0510;-0.0957
0000409990;5.7102;2.9233;1.7358;-0.1415;-0.0582;-0.1015
0000409998;5.6264;2.9281;1.8387;-0.1335;-0.0553;-0.0959
0000410006;5.6599;2.9281;1.7861;-0.1140;-0.0638;-0.0911
0000410014;5.6072;2.6887;1.8196;-0.0866;-0.0767;-0.0831
0000410022;5.6862;2.7629;1.6592;-0.0630;-0.0781;-0.0633
0000410030;5.6288;2.5402;1.5443;-0.0297;-0.0947;-0.0602
0000410038;5.7269;2.4948;1.4748;-0.0051;-0.1046;-0.0500
0000410046;5.8682;2.6097;1.4796;0.0129;-0.1212;-0.0485
0000410054;5.8012;2.7533;1.4988;0.0181;-0.1347;-0.0402
0000410062;5.8131;2.7557;1.4988;0.0128;-0.1348;-0.0285
0000410070;5.5952;2.7270;1.5874;0.0051;-0.1322;-0.0175
0000410078;5.8514;2.9975;1.4269;0.0027;-0.1434;-0.0085
0000410086;5.9065;2.9425;1.3312;-0.0055;-0.1363;0.0091
0000410094;6.0861;3.0311;1.2139;-0.0016;-0.1366;0.0265
0000410102;6.2824;2.8204;1.2115;0.0085;-0.1258;0.0454
0000410110;6.4141;2.8467;1.2163;0.0121;-0.1100;0.0722
0000410118;6.8019;3.0742;1.2498;0.0149;-0.0839;0.0926
0000410126;6.7516;2.9425;1.1684;0.0236;-0.0589;0.1018
0000410134;6.9743;3.0095;1.2953;0.0349;-0.0318;0.1172
0000410142;6.9240;2.8467;1.3527;0.0534;-0.0095;0.1274
0000410169;6.9887;2.9161;1.4293;0.1086;0.0670;0.1829
0000410177;7.1539;3.0813;1.3934;0.1090;0.0867;0.2102
0000410185;7.1730;3.1532;1.4676;0.1106;0.0943;0.2344
0000410193;7.1323;2.9880;1.5874;0.0941;0.1054;0.2587
0000410201;7.3837;3.2202;1.4796;0.0821;0.1063;0.2835
0000410209;7.4101;3.2896;1.4844;0.0626;0.1124;0.3112
0000410217;7.4915;3.3423;1.6065;0.0416;0.1136;0.3277
0000410225;7.3789;3.2178;1.5706;0.0248;0.1088;0.3321
0000410233;7.6303;3.2250;1.6951;0.0068;0.1078;0.3364
0000410241;7.6543;3.0837;1.5538;-0.0143;0.0998;0.3400
0000410249;7.7285;3.1196;1.5203;-0.0418;0.0970;0.3317
0000410257;8.0972;3.1651;1.3910;-0.0683;0.0903;0.3211
0000410265;8.0325;2.9664;1.3192;-0.0951;0.0931;0.3058
0000410273;8.2480;2.8371;1.1516;-0.1139;0.0866;0.2767
0000410281;8.1594;2.7629;1.1756;-0.1175;0.0862;0.2478
0000410289;8.2863;2.9856;1.1827;-0.1184;0.0998;0.2342
0000410297;8.4348;3.1699;1.0367;-0.1110;0.1087;0.2149
0000410305;8.4970;3.2753;0.9361;-0.0906;0.1022;0.2053
0000410313;8.3222;3.1891;0.8452;-0.0770;0.1110;0.2072
0000410321;8.5162;3.5123;0.6752;-0.0757;0.1220;0.2077
0000410329;8.4539;3.5291;0.6776;-0.0826;0.1260;0.1978
0000410337;8.5425;3.6464;0.6129;-0.0826;0.1292;0.1948
0000410345;8.3677;3.5626;0.4956;-0.0861;0.1463;0.1952
0000410353;8.2911;3.5027;0.4453;-0.0791;0.1510;0.1974
0000410361;8.3151;3.5578;0.4022;-0.0810;0.1545;0.2084
0000410369;8.2145;3.4884;0.3232;-0.0721;0.1436;0.2245
0000410377;7.9176;3.3686;0.2705;-0.0694;0.1440;0.2474
0000410385;7.8602;3.2848;0.1820;-0.0745;0.1280;0.2653
0000410393;7.5250;3.1867;0.2370;-0.0710;0.1081;0.2807
0000410401;7.6447;3.2920;0.3543;-0.0757;0.0994;0.2962
0000410409;7.5441;3.1005;0.3424;-0.0909;0.0827;0.3024
0000410417;7.4747;3.0670;0.3759;-0.0949;0.0556;0.2924
0000410425;7.3837;2.9377;0.3615;-0.1119;0.0270;0.2832
0000410433;7.4292;2.9329;0.4190;-0.1346;0.0144;0.2679
0000410441;7.6495;2.9185;0.3256;-0.1567;-0.0037;0.2402
0000410449;7.5824;2.7892;0.3759;-0.1743;-0.0212;0.2201
0000410457;7.7548;2.7461;0.2849;-0.1897;-0.0228;0.2020
0000410465;7.5848;2.4876;0.2897;-0.2004;-0.0264;0.1720
0000410473;7.8099;2.3918;0.3256;-0.1996;-0.0270;0.1508
0000410481;7.6662;2.2098;0.2274;-0.1933;-0.0281;0.1296
0000410489;7.9152;2.2553;0.1580;-0.1769;-0.0314;0.1005
0000410497;8.0230;2.2362;0.2107;-0.1611;-0.0242;0.0774
0000410505;8.0278;2.3343;0.1915;-0.1511;-0.0121;0.0460
0000410513;8.0565;2.4110;0.2251;-0.1271;-0.0060;0.0168
0000410521;7.9176;2.4876;0.2035;-0.1175;0.0151;0.0008
0000410529;7.7357;2.6911;0.2394;-0.1086;0.0276;-0.0358
0000410537;7.8027;3.1939;0.1772;-0.1069;0.0473;-0.0556
0000410545;7.5824;2.9736;0.1460;-0.1242;0.0546;-0.0766
0000410553;7.7405;3.2537;0.1413;-0.1494;0.0612;-0.0949
0000410561;7.5633;3.1364;0.1987;-0.1820;0.0787;-0.1119
0000410569;7.4915;3.2010;0.2586;-0.2026;0.0893;-0.1244
0000410577;7.6088;3.1915;0.3232;-0.2101;0.1015;-0.1474
0000410585;7.6926;2.9090;0.3496;-0.2021;0.1111;-0.1587
0000410593;7.6758;2.8994;0.3903;-0.2002;0.1268;-0.1656
0000410601;7.7500;2.8347;0.3519;-0.1924;0.1422;-0.1708
0000410609;7.9176;2.9568;0.3519;-0.1764;0.1548;-0.1780
0000410617;8.0613;3.0502;0.3328;-0.1581;0.1720;-0.1895
0000410625;7.8793;2.8084;0.3112;-0.1490;0.1969;-0.1913
0000410633;7.9152;2.8060;0.3017;-0.1351;0.2116;-0.2001
0000410641;7.9080;2.8611;0.2753;-0.1203;0.2264;-0.2018
0000410649;7.7835;2.8946;0.4022;-0.1148;0.2506;-0.1939
0000410657;7.6207;2.8802;0.3519;-0.0969;0.2673;-0.1819
0000410665;7.6662;2.7581;0.2658;-0.0757;0.2770;-0.1775
0000410673;7.4699;2.6073;0.2227;-0.0505;0.2854;-0.1588
0000410681;7.3191;2.6145;0.2634;-0.0369;0.2970;-0.1351
0000410689;7.5489;2.6600;0.2538;-0.0141;0.2998;-0.1283
0000410697;7.3861;2.5450;0.2011;0.0096;0.2971;-0.1243
0000410705;7.7093;2.6312;-0.0144;0.0420;0.3010;-0.1156
0000410713;7.7835;2.6959;-0.0886;0.0581;0.3159;-0.1049
0000410721;7.9631;2.9880;-0.0790;0.0671;0.3262;-0.0951
0000410729;8.1475;3.1316;0.2658;0.0738;0.3464;-0.0834
0000410737;8.0876;3.2465;0.5507;0.0794;0.3577;-0.0646
0000410745;8.1379;3.5051;0.7685;0.0994;0.3639;-0.0322
0000410753;7.9918;3.6966;0.7949;0.1250;0.3752;0.0117
0000410839;7.9918;3.5698;2.2410;-0.0313;0.5135;0.2153
0000410847;8.1283;3.3591;2.2146;-0.0197;0.5468;0.2312
0000410855;7.9895;3.0430;2.3727;-0.0053;0.5780;0.2278
0000410863;7.9727;2.9042;2.3846;0.0176;0.5978;0.2209
0000410871;8.1331;2.8850;2.3248;0.0144;0.6139;0.2068
0000410879;8.1523;2.8659;2.2553;-0.0035;0.6235;0.1887
0000410887;7.9535;2.7102;2.3631;-0.0342;0.6338;0.1697
0000410895;7.8673;2.6552;2.4493;-0.0605;0.6492;0.1343
0000410903;7.8171;2.8132;2.5905;-0.0602;0.6539;0.0759
0000410911;7.4747;2.8276;2.6887;-0.0476;0.6479;-0.0093
0000410919;6.9671;2.8683;2.8012;-0.0396;0.6327;-0.0890
0000410927;6.7301;2.9449;2.9425;-0.0282;0.6030;-0.1752
0000410935;6.2968;2.9616;2.9808;-0.0336;0.5681;-0.2353
0000410943;5.8538;2.8276;3.0789;-0.0324;0.5185;-0.2896
0000410951;5.6096;2.8156;3.2944;-0.0309;0.4643;-0.3246
0000410959;5.5378;2.6217;3.1987;-0.0404;0.4114;-0.3463
0000410967;5.5809;2.4972;3.1364;-0.0326;0.3581;-0.3544
0000410975;5.3965;2.4062;3.1077;-0.0384;0.3051;-0.3553
0000410983;5.3151;2.3343;3.1388;-0.0357;0.2506;-0.3609
0000410991;5.4444;2.3966;3.0550;-0.0425;0.2034;-0.3539
0000410999;5.3989;2.3750;3.1508;-0.0610;0.1715;-0.3461
0000411007;5.4899;2.3559;3.0430;-0.0805;0.1415;-0.3440
0000411015;5.5593;2.2314;2.9281;-0.0869;0.1075;-0.3461
0000411023;5.5761;2.2649;2.9161;-0.1022;0.0873;-0.3353
0000411031;5.6695;2.2865;2.7988;-0.0971;0.0677;-0.3403
0000411039;5.6982;2.4277;2.9281;-0.0878;0.0432;-0.3433
0000411047;5.8969;2.3511;2.8563;-0.0722;0.0233;-0.3573
0000411055;6.0094;2.4756;2.7246;-0.0594;0.0079;-0.3591
0000411063;6.0621;2.6001;2.6432;-0.0410;-0.0073;-0.3571
0000411071;5.9879;2.5259;2.6025;-0.0277;-0.0191;-0.3448
0000411079;6.1435;2.5714;2.5450;-0.0204;-0.0234;-0.3219
0000411087;6.1627;2.7366;2.5738;-0.0073;-0.0349;-0.3119
0000411095;6.0837;2.6360;2.4924;-0.0131;-0.0350;-0.2882
0000411103;5.9304;2.5977;2.4565;-0.0049;-0.0464;-0.2799
0000411111;6.1435;2.7845;2.3655;-0.0145;-0.0532;-0.2591
0000411119;6.1028;2.8754;2.2673;-0.0229;-0.0616;-0.2493
0000411127;5.9999;2.9090;2.3870;-0.0248;-0.0753;-0.2443
0000411135;6.1794;3.0143;2.3511;-0.0314;-0.0747;-0.2410
0000411143;6.0669;3.0406;2.3439;-0.0377;-0.0859;-0.2549
0000411151;5.9448;3.0670;2.3535;-0.0361;-0.0947;-0.2678
0000411159;5.9089;3.0478;2.2817;-0.0437;-0.1051;-0.2742
0000411167;5.8802;2.8970;2.2745;-0.0440;-0.1190;-0.2875
0000411175;5.8802;2.9137;2.2482;-0.0409;-0.1374;-0.2960
0000411183;5.8059;2.8563;2.2242;-0.0438;-0.1379;-0.2980
0000411191;5.7509;2.7725;2.2170;-0.0449;-0.1420;-0.2979
0000411199;5.8538;2.7773;2.2601;-0.0394;-0.1519;-0.3096
0000411207;5.8802;2.8204;2.1859;-0.0406;-0.1502;-0.2963
0000411215;6.1100;2.9305;2.1284;-0.0428;-0.1561;-0.2942
0000411223;5.9711;2.8515;2.1668;-0.0362;-0.1609;-0.2936
0000411231;6.0525;2.7031;2.1356;-0.0278;-0.1490;-0.2858
0000411239;5.8826;2.5953;2.1189;-0.0216;-0.1463;-0.2880
0000411247;5.9520;2.7054;2.0207;-0.0195;-0.1326;-0.2826
0000411255;5.9017;2.6767;1.9704;-0.0181;-0.1279;-0.2818
0000411263;5.9400;2.7485;2.0303;-0.0100;-0.1275;-0.2863
0000411271;5.7700;2.6121;1.9082;-0.0113;-0.1148;-0.2759
0000411279;6.0214;2.8683;1.8627;-0.0197;-0.1015;-0.2734
0000411287;5.8227;2.8347;1.9273;-0.0075;-0.1061;-0.2683
0000411295;5.8275;3.0023;1.8555;-0.0117;-0.0994;-0.2526
0000411303;5.6312;3.1412;1.8028;-0.0216;-0.1001;-0.2474
0000411311;5.7126;3.0143;1.7358;-0.0376;-0.1095;-0.2430
0000411319;5.6144;3.1747;1.6568;-0.0513;-0.1079;-0.2256
0000411327;5.6264;3.3088;1.6951;-0.0775;-0.1082;-0.2005
0000411335;5.4636;3.1891;1.7334;-0.0937;-0.1279;-0.1832
0000411343;5.5498;3.2513;1.6640;-0.1212;-0.1390;-0.1617
0000411351;5.6312;3.2441;1.6328;-0.1379;-0.1556;-0.1548
0000411359;5.5019;2.9904;1.5275;-0.1352;-0.1737;-0.1470
0000411367;5.6264;2.9640;1.4940;-0.1382;-0.1848;-0.1315
0000411375;5.3223;2.7892;1.4676;-0.1348;-0.2040;-0.1324
0000411383;5.5857;2.8108;1.3910;-0.1348;-0.2133;-0.1346
0000411391;5.4660;2.7007;1.4126;-0.1283;-0.2356;-0.1336
0000411399;5.8179;2.8419;1.4102;-0.1298;-0.2361;-0.1240
0000411407;5.5881;2.8228;1.3838;-0.1248;-0.2547;-0.1300
0000411415;5.7365;2.9568;1.3838;-0.1232;-0.2543;-0.1268
0000411499;5.3199;2.8276;1.2139;-0.1066;-0.3179;-0.0767
0000411507;5.2768;2.7294;1.2570;-0.0958;-0.3256;-0.0735
0000411515;5.3750;2.7892;1.1205;-0.0839;-0.3391;-0.0717
0000411523;5.5881;2.7892;1.0223;-0.0845;-0.3384;-0.0581
0000411531;5.4253;2.4852;0.9553;-0.0859;-0.3371;-0.0348
0000411539;5.7174;2.6480;0.9290;-0.0761;-0.3472;-0.0222
0000411547;5.6024;2.4756;0.8188;-0.0514;-0.3535;-0.0127
0000411555;5.5091;2.4517;0.8188;-0.0438;-0.3467;0.0037
0000411563;5.6982;2.5857;0.6512;-0.0232;-0.3459;0.0093
0000411571;5.5665;2.5379;0.6393;-0.0088;-0.3431;0.0273
0000411579;5.7269;2.4924;0.6177;0.0067;-0.3349;0.0446
0000411587;5.4899;2.2458;0.5722;0.0272;-0.3287;0.0578
0000411595;5.6982;2.4014;0.5148;0.0508;-0.3271;0.0795
0000411603;5.6934;2.4517;0.4812;0.0641;-0.3148;0.1073
0000411611;5.7102;2.5402;0.3472;0.0805;-0.3087;0.1292
0000411619;5.5929;2.4157;0.3639;0.0878;-0.2954;0.1519
0000411627;5.3989;2.4565;0.2083;0.1030;-0.2891;0.1656
0000411635;5.3391;2.3176;0.2179;0.1171;-0.2797;0.1821
0000411643;5.3678;2.2146;0.0958;0.1394;-0.2727;0.1965
0000411651;5.5115;2.3415;0.0072;0.1707;-0.2690;0.2097
0000411659;5.6024;2.3583;-0.0072;0.1891;-0.2675;0.2214
0000411667;5.4013;2.2505;-0.1915;0.2170;-0.2679;0.2338
0000411675;5.4755;2.2745;-0.2035;0.2503;-0.2722;0.2265
0000411683;5.3008;2.1668;-0.1604;0.2758;-0.2746;0.2268
0000411691;5.0446;2.1308;-0.2155;0.3027;-0.2962;0.2149
0000411699;4.9943;2.1715;-0.2466;0.3331;-0.3111;0.2162
0000411707;4.7740;2.0877;-0.3615;0.3620;-0.3239;0.2174
0000411715;4.7669;2.2266;-0.1389;0.3793;-0.3444;0.2190
0000411723;4.8004;2.3583;0.4262;0.4002;-0.3597;0.2118
0000411731;4.7357;2.8252;1.1420;0.4122;-0.3475;0.2061
0000411739;4.7669;3.3710;1.5706;0.4245;-0.3452;0.1733
0000411747;4.7046;3.8475;1.6735;0.4383;-0.3744;0.1144
0000411755;5.4133;4.6998;2.0135;0.4166;-0.4074;0.0701
0000411763;6.3758;5.5258;2.7821;0.4112;-0.4610;0.0148
0000411771;7.0390;6.1579;3.4860;0.4401;-0.5177;-0.0542
0000411779;8.0493;7.1587;4.1180;0.4671;-0.5654;-0.1625
0000411787;8.5665;7.6710;4.1587;0.4373;-0.5644;-0.3171
0000411795;8.1738;7.5082;4.1037;0.3291;-0.5131;-0.5160
0000411803;7.2233;6.7421;4.4005;0.1572;-0.4133;-0.6891
0000411811;6.3901;5.6862;4.6591;0.0305;-0.3333;-0.7986
0000411819;5.7126;4.2329;4.6543;-0.0008;-0.2976;-0.7929
0000411827;5.4564;3.2178;4.4580;0.0570;-0.3055;-0.6980
0000411835;5.5905;2.4948;4.1492;0.1592;-0.3300;-0.5141
0000411843;5.8179;2.1763;3.8331;0.2478;-0.3501;-0.2872
0000411851;6.1483;2.1332;3.5889;0.2978;-0.3628;-0.0529
0000411859;6.6224;2.2458;3.5219;0.2958;-0.3583;0.1575
0000411867;6.9719;2.2673;3.4453;0.2320;-0.3433;0.3151
0000411875;6.9743;2.0159;3.2489;0.1552;-0.3227;0.4318
0000411883;7.3502;1.9728;3.0502;0.0753;-0.3427;0.4991
0000411891;7.0006;1.4557;3.0694;0.0152;-0.3640;0.5367
0000411899;6.9528;1.2234;2.9473;-0.0296;-0.3998;0.5399
0000411907;7.0533;1.1157;2.8443;-0.0460;-0.4531;0.5051
0000411915;6.8809;0.6608;2.6408;-0.0430;-0.4971;0.4486
0000411923;6.8235;0.6345;2.5618;0.0003;-0.5512;0.3631
0000411931;6.9791;0.6680;2.4541;0.0846;-0.5842;0.2643
0000411939;7.4388;1.0750;2.1739;0.1713;-0.5951;0.1761
0000411947;7.8219;1.5275;2.0207;0.2555;-0.6011;0.0946
0000411955;8.6191;2.0734;1.8938;0.3106;-0.5726;0.0514
0000411963;8.9232;2.6288;1.8579;0.3268;-0.5239;0.0362
0000411971;9.6151;3.2657;1.7789;0.3147;-0.4643;0.0485
0000411979;10.2975;3.8331;1.6879;0.2902;-0.3784;0.0671
0000411987;10.5321;4.0414;1.5155;0.2429;-0.2685;0.0997
0000411995;10.5608;4.1468;1.4222;0.1841;-0.1492;0.1330
0000412003;10.5321;3.9265;1.3240;0.1278;-0.0313;0.1619
0000412011;10.1083;3.7278;1.3024;0.0754;0.0879;0.2012
0000412019;9.4547;3.3615;1.3048;0.0577;0.1868;0.2369
0000412027;8.9830;3.1053;1.4581;0.0793;0.2669;0.2647
0000412035;8.2361;3.0263;1.6496;0.1240;0.3305;0.2948
0000412043;7.4316;2.8946;1.5634;0.1737;0.3456;0.3182
0000412051;7.3909;3.1220;1.6113;0.1913;0.3420;0.3503
0000412059;7.1539;3.1651;1.5730;0.2001;0.3203;0.3709
0000412067;6.9815;3.1723;1.5060;0.1973;0.2834;0.3780
0000412075;6.7205;3.0885;1.4676;0.1712;0.2605;0.3754
0000412162;7.1730;2.6647;0.8116;0.0456;0.0132;0.1098
0000412170;7.3622;2.9090;0.8691;0.0341;0.0113;0.0971
0000412178;7.3694;3.0023;0.8811;0.0280;0.0093;0.0889
0000412186;7.3406;3.0263;0.9194;0.0173;0.0092;0.0839
0000412194;7.7668;3.1484;0.9457;-0.0031;0.0161;0.0855
0000412202;7.6806;3.2154;0.9505;-0.0224;0.0224;0.0774
0000412210;7.6184;3.2202;0.9361;-0.0404;0.0209;0.0609
0000412218;7.7788;3.3471;0.9649;-0.0781;0.0330;0.0609
0000412226;7.8458;3.3854;0.9098;-0.1045;0.0396;0.0518
0000412234;7.7572;3.3232;0.8978;-0.1223;0.0460;0.0373
0000412242;7.5944;3.2417;0.9673;-0.1291;0.0509;0.0191
0000412250;7.2927;3.0622;0.9864;-0.1374;0.0586;0.0085
0000412258;7.2042;3.1915;1.1875;-0.1471;0.0616;0.0021
0000412266;7.1299;3.3351;1.3767;-0.1529;0.0486;0.0020
0000412274;6.9695;3.5027;1.4748;-0.1569;0.0244;0.0068
0000412282;6.7995;3.4860;1.3958;-0.1683;-0.0017;0.0305
0000412290;6.6798;3.7062;1.3072;-0.1712;-0.0253;0.0441
0000412298;6.8690;3.5075;1.2953;-0.1808;-0.0342;0.0556
0000412306;6.8618;3.1939;1.2713;-0.1847;-0.0337;0.0620
0000412314;7.0916;2.8276;1.0511;-0.1831;-0.0344;0.0574
0000412322;7.6543;2.7414;0.9409;-0.1633;-0.0289;0.0545
0000412330;8.0254;2.6240;0.8499;-0.1459;-0.0061;0.0574
0000412338;8.3845;2.4756;0.6608;-0.1271;0.0177;0.0640
0000412346;8.6694;2.6264;0.5986;-0.0978;0.0464;0.0787
0000412354;8.6215;2.6456;0.6680;-0.0822;0.0905;0.1039
0000412362;8.7987;2.9401;0.6800;-0.0662;0.1272;0.1200
0000412370;8.7604;3.1316;0.6440;-0.0528;0.1689;0.1479
0000412378;8.4396;3.0574;0.6129;-0.0414;0.2048;0.1705
0000412386;8.4707;3.1149;0.4669;-0.0444;0.2417;0.1966
0000412394;8.3462;3.0789;0.3663;-0.0529;0.2739;0.2060
0000412402;8.1547;2.8922;0.4214;-0.0598;0.2934;0.1933
0000412410;8.1259;2.9640;0.3855;-0.0765;0.3170;0.1780
0000412418;8.1163;3.0789;0.4405;-0.0907;0.3308;0.1547
0000412426;7.6040;2.7174;0.3472;-0.1131;0.3407;0.1234
0000412434;7.7141;2.8036;0.4142;-0.1271;0.3419;0.0877
0000412442;7.6638;2.8299;0.3639;-0.1488;0.3375;0.0650
0000412450;7.4986;2.7198;0.4381;-0.1695;0.3364;0.0425
0000412458;7.4148;2.4277;0.4238;-0.1760;0.3361;0.0184
0000412466;7.6902;2.5235;0.5363;-0.1689;0.3327;0.0001
0000412474;7.4388;2.0638;0.4453;-0.1510;0.3315;-0.0141
0000412482;7.5417;2.1572;0.4381;-0.1234;0.3288;-0.0266
0000412490;7.5250;2.1907;0.3208;-0.0955;0.3238;-0.0417
0000412498;7.5705;2.4732;0.2610;-0.0655;0.3235;-0.0498
0000412506;7.4962;2.4349;0.2514;-0.0421;0.3313;-0.0476
0000412514;7.5393;2.6839;0.2682;-0.0248;0.3332;-0.0514
0000412522;7.7405;2.9137;0.2155;-0.0153;0.3333;-0.0624
0000412530;7.7117;3.0765;0.2538;-0.0141;0.3393;-0.0646
0000412538;7.9655;3.1556;0.3136;-0.0229;0.3464;-0.0739
0000412546;7.9224;3.1244;0.3112;-0.0313;0.3653;-0.0793
0000412554;7.9224;3.3160;0.3448;-0.0365;0.3821;-0.0929
0000412562;8.0565;3.2681;0.2634;-0.0461;0.4025;-0.0870
0000412570;7.9990;3.1268;0.1987;-0.0525;0.4211;-0.0939
0000412578;7.8745;2.9688;0.2969;-0.0432;0.4330;-0.0967
0000412586;8.0254;2.9401;0.3208;-0.0374;0.4539;-0.0870
0000412594;7.9583;2.8371;0.3831;-0.0366;0.4662;-0.0777
0000412602;8.0972;2.9640;0.4764;-0.0294;0.4716;-0.0718
0000412610;7.9464;3.0047;0.6369;-0.0224;0.4772;-0.0649
0000412618;8.0972;3.3136;0.9242;-0.0285;0.4778;-0.0400
0000412626;7.8626;3.3662;1.3072;-0.0369;0.4768;-0.0080
0000412634;7.8458;3.6966;1.5299;-0.0258;0.4543;0.0229
0000412642;7.5800;3.9768;1.6688;-0.0067;0.4426;0.0762
0000412650;7.3310;4.2569;1.9513;0.0216;0.4227;0.1366
0000412658;7.0701;4.4484;2.1284;0.0476;0.3894;0.2060
0000412666;6.7277;4.6807;2.3296;0.0843;0.3583;0.2836
0000412674;6.5625;4.6663;2.3511;0.1331;0.3124;0.3616
0000412682;6.7900;4.7788;2.3200;0.1851;0.2579;0.4306
0000412690;6.7516;4.6304;2.1284;0.2140;0.2058;0.4851
0000412698;7.0366;4.3287;2.1069;0.2094;0.1691;0.5192
0000412706;7.3622;4.0677;1.9800;0.1871;0.1386;0.5245
0000412714;7.7476;3.6200;1.8842;0.1571;0.1119;0.4898
0000412722;8.0637;3.2034;1.8531;0.1140;0.1043;0.4279
0000412730;8.4276;2.8802;1.8148;0.0870;0.0983;0.3363
0000412738;8.3438;2.4900;1.7214;0.0542;0.0987;0.2298
0000412746;8.1930;2.1452;1.7861;0.0412;0.0955;0.1187
0000412754;7.9487;1.8914;1.8004;0.0238;0.0969;0.0184
0000412840;7.2042;3.3184;2.5905;0.0903;0.0373;-0.1900
0000412848;7.3358;3.5698;2.5091;0.0794;0.0386;-0.1957
0000412856;7.2568;3.9576;2.5714;0.0388;0.0446;-0.1988
0000412864;7.4915;4.0965;2.6121;-0.0161;0.0517;-0.1996
0000412872;7.5968;4.0294;2.6360;-0.0698;0.0646;-0.2114
0000412880;7.7955;3.7948;2.7485;-0.1296;0.1031;-0.2137
0000412888;8.0182;3.6488;2.7773;-0.1719;0.1344;-0.2220
0000412896;7.8195;3.2465;2.9113;-0.2098;0.1823;-0.2170
0000412904;7.9009;3.0023;2.7270;-0.2427;0.2186;-0.2029
0000412912;7.7261;2.7270;2.6193;-0.2586;0.2465;-0.1764
0000412920;7.4436;2.4181;2.4948;-0.2690;0.2735;-0.1416
0000412928;7.2257;2.3655;2.3631;-0.2699;0.2994;-0.0918
0000412936;6.9073;2.2098;2.0973;-0.2622;0.2990;-0.0554
0000412944;6.2704;1.9632;2.1787;-0.2384;0.2946;-0.0043
0000412952;5.9568;2.3224;2.1404;-0.2100;0.2773;0.0225
0000412960;5.9328;2.7007;2.2194;-0.1945;0.2651;0.0466
0000412968;5.7365;2.9784;2.2410;-0.1844;0.2421;0.0426
0000412976;5.7437;3.5147;2.2170;-0.1584;0.2102;0.0131
0000412984;5.7365;3.6966;2.2529;-0.1540;0.1901;-0.0301
0000412992;5.7988;3.8092;2.2362;-0.1592;0.1793;-0.0893
0000413000;6.0956;4.0510;2.3535;-0.1725;0.1644;-0.1484
0000413008;6.3758;4.0917;2.3080;-0.1769;0.1595;-0.2073
0000413016;6.6200;3.8140;2.2936;-0.1835;0.1661;-0.2555
0000413024;6.8881;3.5889;1.9632;-0.1958;0.1892;-0.2836
0000413032;6.5817;2.9497;2.0063;-0.1996;0.2093;-0.3127
0000413040;6.7205;2.8060;1.9201;-0.1781;0.2294;-0.3246
0000413048;6.4332;2.5953;1.8148;-0.1652;0.2525;-0.3170
0000413056;6.3925;2.6001;1.6640;-0.1528;0.2634;-0.3048
0000413064;6.1196;2.4972;1.5658;-0.1374;0.2645;-0.2858
0000413072;6.0406;2.5211;1.5490;-0.1303;0.2701;-0.2603
0000413080;6.0885;2.7701;1.2905;-0.1175;0.2578;-0.2482
0000413088;5.9735;2.9377;1.1803;-0.1280;0.2519;-0.2317
0000413096;5.7700;3.0430;1.0295;-0.1466;0.2362;-0.2362
0000413104;5.7652;3.2705;0.9218;-0.1788;0.2254;-0.2431
0000413112;5.7293;3.4237;0.8954;-0.2121;0.1912;-0.2606
0000413120;5.2936;3.3232;0.8380;-0.2395;0.1561;-0.2809
0000413128;5.3223;3.4333;0.8021;-0.2667;0.1194;-0.2943
0000413136;5.2146;3.1723;0.7709;-0.2781;0.0766;-0.3076
0000413144;5.2672;3.3806;0.6632;-0.2956;0.0377;-0.3150
0000413152;5.2768;3.3710;0.6800;-0.3116;0.0005;-0.3164
0000413160;5.1475;3.2298;0.5746;-0.3281;-0.0492;-0.3071
0000413168;5.2457;3.2058;0.4429;-0.3536;-0.0887;-0.2755
0000413176;5.2074;3.2106;0.4645;-0.3744;-0.1384;-0.2510
0000413184;4.9392;2.9808;0.3041;-0.3797;-0.1935;-0.2237
0000413192;5.0422;2.7773;0.1604;-0.3732;-0.2386;-0.1813
0000413200;5.0949;2.6743;0.1317;-0.3627;-0.3095;-0.1615
0000413208;5.0350;2.4469;-0.0527;-0.3384;-0.3698;-0.1343
0000413216;5.0350;2.2769;0.0407;-0.3064;-0.4306;-0.1047
0000413224;5.3750;2.1189;-0.0790;-0.2571;-0.4948;-0.0823
0000413232;5.4947;2.0782;-0.2251;-0.2252;-0.5420;-0.0609
0000413240;5.7413;1.8962;-0.1939;-0.1915;-0.5864;-0.0481
0000413248;5.9424;2.0566;-0.3472;-0.1545;-0.6265;-0.0434
0000413256;6.3303;2.1620;-0.5124;-0.1271;-0.6515;-0.0378
0000413264;6.4236;2.0135;-0.4166;-0.0935;-0.6715;-0.0397
0000413272;6.3135;1.8866;-0.3448;-0.0514;-0.6833;-0.0402
0000413280;6.3087;1.9896;-0.2035;-0.0197;-0.6817;-0.0292
0000413288;6.2968;2.0686;-0.2514;0.0200;-0.6735;-0.0169
0000413296;6.2297;2.2793;-0.3304;0.0568;-0.6776;0.0017
0000413304;6.2177;2.4660;-0.1628;0.1042;-0.6718;0.0225
0000413312;6.2345;2.7485;0.0383;0.1295;-0.6479;0.0484
0000413320;6.1770;2.8276;-0.1149;0.1553;-0.6163;0.0646
0000413328;6.1196;3.0574;-0.1365;0.1751;-0.6046;0.0621
0000413336;5.9496;3.0047;0.0215;0.1803;-0.5712;0.0709
0000413344;6.0885;3.1771;0.2562;0.1799;-0.5541;0.0755
0000413352;6.1339;3.1891;0.6416;0.1851;-0.5304;0.0867
0000413360;6.4691;3.5027;1.0654;0.1880;-0.5103;0.0967
0000413368;6.6008;3.8188;1.1444;0.2009;-0.4942;0.0838
0000413376;6.9911;4.2210;1.3192;0.1948;-0.4756;0.0574
0000413384;7.3574;4.6711;1.7382;0.1541;-0.4530;0.0155
0000413392;7.3215;4.8961;2.4636;0.1083;-0.4134;-0.0350
0000413400;7.5369;5.2601;3.3710;0.0861;-0.3746;-0.1135
0000413408;7.5896;5.4708;3.7254;0.1026;-0.3485;-0.2298
0000413416;7.2975;5.4157;3.5937;0.0937;-0.3383;-0.3397
0000413502;6.3853;1.9273;4.2162;0.1696;-0.6440;0.1083
0000413510;7.4939;1.9824;3.9265;0.1661;-0.6382;0.2567
0000413518;8.6287;2.1284;3.6823;0.1354;-0.6241;0.3714
0000413526;9.0812;1.8052;3.4022;0.0787;-0.5770;0.4450
0000413534;9.4403;1.7980;3.2154;0.0344;-0.5236;0.4557
0000413542;9.6965;1.6544;3.0023;0.0117;-0.4592;0.4302
0000413550;9.3302;1.4988;2.9329;0.0107;-0.4048;0.3676
0000413558;8.9088;1.5467;2.7581;0.0257;-0.3603;0.2799
0000413566;8.6263;1.5706;2.6576;0.0336;-0.3162;0.1841
0000413574;8.0756;1.8052;2.5594;0.0413;-0.2928;0.0927
0000413582;7.6734;1.9225;2.3535;0.0550;-0.2794;0.0329
0000413590;7.6112;2.1955;2.0782;0.0709;-0.2801;-0.0012
0000413598;7.3670;2.1380;1.9417;0.0927;-0.2915;0.0036
0000413606;7.5465;2.4780;1.9417;0.1120;-0.2960;0.0400
0000413614;7.6399;2.5666;1.9393;0.1390;-0.3112;0.0907
0000413622;7.6998;2.7677;1.9130;0.1713;-0.3263;0.1423
0000413630;7.7452;2.9329;1.9369;0.1819;-0.3196;0.2018
0000413638;8.2049;3.2513;1.8268;0.1741;-0.3124;0.2446
0000413646;8.2552;3.4357;1.9273;0.1532;-0.2926;0.2782
0000413654;8.2839;3.5147;2.0446;0.1215;-0.2671;0.2995
0000413662;8.1331;3.5338;2.1189;0.0851;-0.2429;0.3047
0000413670;8.0493;3.4644;2.1141;0.0433;-0.2285;0.2862
0000413678;7.9009;3.2417;2.1787;0.0112;-0.2184;0.2555
0000413686;7.8817;3.2417;2.2170;-0.0258;-0.2065;0.2314
0000413694;7.7357;3.1149;2.2649;-0.0462;-0.1968;0.2066
0000413702;7.7572;3.0382;2.2410;-0.0598;-0.2001;0.1935
0000413710;7.9248;2.9951;2.1500;-0.0747;-0.1901;0.1923
0000413718;7.7644;2.7845;2.0638;-0.0845;-0.1817;0.1927
0000413726;8.0972;2.8132;2.0351;-0.0950;-0.1780;0.1953
0000413734;8.1858;2.7342;1.8723;-0.1078;-0.1548;0.2078
0000413742;8.2624;2.6600;1.8411;-0.1232;-0.1372;0.2108
0000413750;8.3821;2.7150;1.7573;-0.1295;-0.1191;0.2130
0000413758;8.4922;2.6097;1.5514;-0.1342;-0.0893;0.2193
0000413766;8.3462;2.5594;1.5993;-0.1367;-0.0645;0.2226
0000413774;8.4132;2.4708;1.5347;-0.1398;-0.0376;0.2193
0000413782;8.2408;2.5546;1.5802;-0.1383;-0.0187;0.2144
0000413790;8.2576;2.6671;1.3886;-0.1431;-0.0059;0.2085
0000413798;8.2313;2.5570;1.3815;-0.1358;0.0031;0.1972
0000413806;8.1403;2.5690;1.3503;-0.1354;0.0091;0.1723
0000413814;8.0397;2.4229;1.3408;-0.1298;0.0159;0.1576
0000413822;8.0014;2.6169;1.2402;-0.1354;0.0141;0.1340
0000413830;7.8506;2.4205;1.1923;-0.1334;0.0133;0.1050
0000413838;7.9607;2.3870;1.1492;-0.1403;0.0216;0.0877
0000413846;7.9895;2.4612;1.1181;-0.1491;0.0304;0.0629
0000413854;7.9464;2.2553;1.1420;-0.1548;0.0457;0.0364
0000413862;8.1331;2.4181;1.0295;-0.1611;0.0604;0.0143
0000413870;8.5545;2.5019;1.0343;-0.1711;0.0826;-0.0032
0000413878;8.5162;2.6073;0.9792;-0.1740;0.1061;-0.0298
0000413886;8.3438;2.4157;1.0343;-0.1881;0.1406;-0.0478
0000413894;8.5808;2.5091;0.9697;-0.1962;0.1831;-0.0775
0000413902;8.8538;2.5163;0.9553;-0.1958;0.2242;-0.0963
0000413910;8.7987;2.5235;0.9098;-0.1989;0.2762;-0.1119
0000413918;8.8011;2.6217;0.9194;-0.1836;0.3176;-0.1376
0000413926;8.6239;2.6624;0.8954;-0.1679;0.3632;-0.1613
0000413934;8.2097;2.5019;1.0056;-0.1579;0.3990;-0.1727
0000413942;8.2289;2.6025;1.0223;-0.1370;0.4186;-0.1863
0000413950;7.9990;2.5881;0.9673;-0.1276;0.4450;-0.1865
0000413958;7.8626;2.6408;0.8236;-0.1095;0.4622;-0.1957
0000413966;7.7452;2.5570;0.8308;-0.0943;0.4686;-0.2030
0000413974;8.0517;2.8228;0.7446;-0.0807;0.4739;-0.2030
0000413982;7.8530;2.7054;0.7877;-0.0734;0.4831;-0.1962
0000413990;7.6950;2.6504;0.8523;-0.0659;0.4886;-0.1907
0000413998;7.7381;2.7294;0.8547;-0.0516;0.4847;-0.1835
0000414006;7.6782;2.8754;0.8954;-0.0542;0.4862;-0.1724
0000414014;7.6423;3.0215;0.9433;-0.0538;0.4846;-0.1553
0000414022;7.6399;3.0430;1.0271;-0.0617;0.4862;-0.1444
0000414030;7.5274;3.1532;0.9553;-0.0678;0.4836;-0.1304
0000414038;7.3646;3.1268;0.9529;-0.0802;0.4838;-0.1239
0000414046;7.4124;3.1220;0.8092;-0.0771;0.4778;-0.1247
0000414054;7.4460;2.8874;0.6823;-0.0703;0.4868;-0.1148
0000414062;7.6160;2.7007;0.5818;-0.0380;0.4864;-0.1087
0000414070;7.9080;2.7773;0.4836;0.0112;0.5009;-0.0930
0000414078;8.1355;2.7078;0.2370;0.0614;0.5287;-0.0693
0000414165;7.7979;4.6232;2.3798;0.1190;0.7424;0.3403
0000414173;7.6567;4.6855;2.4469;0.1022;0.6935;0.3844
0000414181;7.0509;4.4915;2.6073;0.0917;0.6450;0.4157
0000414189;6.6439;4.4867;2.8659;0.0987;0.6021;0.4133
0000414197;6.2034;4.3814;3.0861;0.1266;0.5584;0.3960
0000414205;5.8442;4.3263;3.2729;0.1426;0.5072;0.3667
0000414213;5.9328;4.0223;3.3423;0.1585;0.4189;0.3331
0000414221;6.1914;3.6703;3.1508;0.1777;0.3214;0.2988
0000414229;6.5601;3.1316;3.0550;0.1889;0.2361;0.2653
0000414237;6.7876;2.5570;2.8371;0.2032;0.1783;0.2170
0000414245;7.2065;2.2745;2.6791;0.2189;0.1304;0.1624
0000414253;7.3765;1.9609;2.6959;0.2213;0.1122;0.0954
0000414261;7.6088;1.7933;2.5474;0.2209;0.1107;0.0153
0000414269;7.8386;1.7430;2.7102;0.2002;0.1292;-0.0678
0000414277;7.8243;1.5634;2.7270;0.1620;0.1637;-0.1374
0000414285;7.8171;1.5850;2.8180;0.1168;0.2077;-0.2065
0000414293;7.6591;1.5490;2.8587;0.0743;0.2439;-0.2609
0000414301;7.3670;1.6209;2.9353;0.0305;0.2875;-0.3023
0000414309;6.9911;1.7142;3.1292;-0.0136;0.3269;-0.3178
0000414317;6.4404;1.6161;3.3136;-0.0477;0.3511;-0.3131
0000414325;6.0693;1.9130;3.5961;-0.0624;0.3555;-0.3039
0000414333;5.5162;2.0351;3.7900;-0.0598;0.3493;-0.2670
0000414341;4.9177;2.1189;3.8451;-0.0529;0.3417;-0.2240
0000414349;4.4317;2.0470;4.0462;-0.0394;0.3188;-0.1879
0000414357;4.5346;2.4780;4.0582;-0.0107;0.2803;-0.1688
0000414365;4.3407;2.5570;4.0654;0.0003;0.2423;-0.1448
0000414373;4.3407;2.6791;4.0725;-0.0051;0.2077;-0.1264
0000414381;4.4724;2.8156;4.0103;-0.0045;0.1609;-0.1214
0000414389;4.5179;2.7845;3.8786;-0.0109;0.1103;-0.1120
0000414397;5.0853;3.0765;3.7062;-0.0177;0.0572;-0.0951
0000414405;5.3798;3.2034;3.5913;-0.0364;0.0156;-0.0867
0000414413;5.6072;3.2561;3.4931;-0.0490;-0.0129;-0.0925
0000414421;5.8395;3.2920;3.3064;-0.0554;-0.0341;-0.1206
0000414429;6.1411;3.3686;3.2106;-0.0601;-0.0444;-0.1515
0000414437;6.2369;3.3471;2.9305;-0.0586;-0.0454;-0.1927
0000414445;6.3829;3.3136;2.8084;-0.0625;-0.0365;-0.2294
0000414453;6.5314;3.2489;2.6552;-0.0653;-0.0191;-0.2693
0000414461;6.4332;3.0454;2.5881;-0.0602;-0.0053;-0.3199
0000414469;6.3422;2.8922;2.4660;-0.0541;0.0075;-0.3476
0000414477;6.5074;3.0406;2.4277;-0.0508;0.0377;-0.3631
0000414485;6.1339;3.0263;2.3918;-0.0389;0.0570;-0.3726
0000414493;6.1196;3.1029;2.1213;-0.0502;0.0763;-0.3708
0000414501;6.2369;3.2561;1.9824;-0.0763;0.0915;-0.3625
0000414509;5.9209;3.1675;1.8986;-0.1180;0.1104;-0.3408
0000414517;6.1339;3.5362;1.8364;-0.1549;0.1123;-0.3162
0000414525;5.9951;3.3399;1.6688;-0.1966;0.1167;-0.2938
0000414533;5.8442;3.3662;1.5275;-0.2392;0.1049;-0.2809
0000414541;5.5593;3.1364;1.5179;-0.2851;0.0970;-0.2547
0000414549;5.3941;3.0502;1.4988;-0.3250;0.0879;-0.2599
0000414557;5.1140;2.8443;1.3862;-0.3455;0.0679;-0.2619
0000414565;5.0637;2.9042;1.2881;-0.3611;0.0496;-0.2693
0000414573;4.8890;2.9808;1.3384;-0.3802;0.0135;-0.2836
0000414582;4.8866;3.0239;1.2737;-0.3917;-0.0254;-0.3108
0000414591;4.7333;2.9497;1.2258;-0.4004;-0.0658;-0.3264
0000414600;4.8794;3.0622;1.2881;-0.4133;-0.1069;-0.3207
0000414609;4.7669;2.9856;1.1157;-0.4321;-0.1531;-0.3191
0000414618;4.7812;3.0646;1.0127;-0.4515;-0.2086;-0.3120
0000414627;4.6878;2.7988;1.0271;-0.4776;-0.2547;-0.2739
0000414636;4.6400;2.6791;0.9218;-0.4896;-0.3162;-0.2332
0000414645;4.6471;2.3846;0.8380;-0.4888;-0.3762;-0.1880
0000414654;4.7070;2.1021;0.7614;-0.4574;-0.4317;-0.1400
0000414663;4.6711;1.9800;0.7997;-0.4153;-0.4935;-0.1058
0000414672;4.9009;1.9728;0.7973;-0.3627;-0.5472;-0.0731
0000414681;5.1044;1.7310;0.7470;-0.2990;-0.5921;-0.0577
0000414690;5.4324;1.5850;0.7709;-0.2334;-0.6289;-0.0457
0000414699;5.6910;1.6640;0.5243;-0.1711;-0.6592;-0.0482
0000414708;5.7604;1.5155;0.4645;-0.1078;-0.6773;-0.0437
0000414717;5.5593;1.4150;0.2634;-0.0584;-0.7017;-0.0428
0000414726;5.7006;1.5203;-0.0168;0.0027;-0.7212;-0.0274
0000414735;5.5929;1.4174;-0.1221;0.0638;-0.7601;0.0043
0000414744;5.4827;1.6209;-0.0838;0.1102;-0.7907;0.0334
0000414753;5.3510;1.6783;-0.0383;0.1681;-0.8188;0.0572
0000414762;5.0996;1.8268;0.1652;0.2285;-0.8482;0.0540
0000414771;5.0518;1.9034;0.2322;0.2888;-0.8455;0.0354
0000414858;7.6854;5.4109;3.8283;0.4736;-0.5981;-0.1981
0000414867;8.0493;5.9352;3.7685;0.4549;-0.5067;-0.3381
0000414876;7.9344;6.1196;3.2657;0.3603;-0.4493;-0.4667
0000414885;7.6710;5.8730;3.5913;0.2172;-0.4255;-0.5630
0000414894;7.1970;5.2792;4.2976;0.1322;-0.4298;-0.5982
0000414903;6.5888;4.7214;4.5873;0.1503;-0.4579;-0.6238
0000414912;6.0549;4.3574;4.0055;0.1985;-0.4763;-0.6274
0000414921;5.3606;3.9744;3.6440;0.2409;-0.5103;-0.6400
0000414930;5.0542;3.7421;3.8690;0.2289;-0.5466;-0.6102
0000414939;4.8123;3.4022;3.9385;0.2298;-0.5887;-0.5341
0000414948;4.9823;3.1436;3.9241;0.2503;-0.6121;-0.3922
0000414957;5.3726;2.8922;3.9193;0.2625;-0.6508;-0.2273
0000414966;5.6479;2.4110;3.9289;0.2654;-0.6775;-0.0542
0000414975;6.4117;2.0016;3.8523;0.2413;-0.6943;0.1236
0000414984;7.3143;1.8172;3.6895;0.1972;-0.6957;0.2671
0000414993;8.2672;1.3838;3.4141;0.1470;-0.6732;0.3761
0000415002;9.0692;1.2306;3.3615;0.1107;-0.6450;0.4229
0000415011;9.2584;0.7542;3.2226;0.0699;-0.5802;0.4190
0000415020;9.5864;0.7853;3.1699;0.0687;-0.5267;0.3459
0000415029;9.5672;1.0247;3.0191;0.0604;-0.4466;0.2465
0000415038;9.5146;1.2617;2.9999;0.0731;-0.3802;0.1239
0000415047;9.4906;1.7454;2.8132;0.0553;-0.2994;0.0349
0000415056;9.4284;2.1165;2.7916;0.0350;-0.2434;-0.0117
0000415065;9.2680;2.5379;2.5714;0.0169;-0.1860;-0.0143
0000415074;9.0980;3.0095;2.5067;0.0093;-0.1330;0.0254
0000415083;9.0836;3.5913;2.6025;-0.0123;-0.0863;0.0766
0000415092;8.5281;3.7804;2.5929;-0.0144;-0.0536;0.1527
0000415101;8.3749;3.9744;2.5953;-0.0469;-0.0113;0.2228
0000415110;8.1930;4.1061;2.3822;-0.0899;0.0128;0.2577
0000415119;7.8769;3.7038;2.2505;-0.1460;0.0306;0.2537
0000415128;7.6184;3.5386;2.2362;-0.2082;0.0472;0.2330
0000415137;7.3430;3.2058;2.2338;-0.2372;0.0406;0.1824
0000415146;6.9504;2.7461;2.3535;-0.2529;0.0274;0.1447
0000415155;6.6655;2.5307;2.2410;-0.2238;-0.0020;0.1086
0000415164;6.7086;2.7102;2.1452;-0.1693;-0.0177;0.1088
0000415173;6.6224;2.7414;2.0662;-0.1287;-0.0384;0.1247
0000415182;6.7995;3.0167;1.9082;-0.1375;-0.0432;0.1568
0000415191;6.8426;3.0430;1.9273;-0.1673;-0.0581;0.1772
0000415200;7.3191;3.0622;1.7190;-0.2196;-0.0512;0.1912
0000415209;7.6136;3.1795;1.7885;-0.2621;-0.0464;0.1883
0000415218;7.9272;3.1149;1.6448;-0.3047;-0.0237;0.1811
0000415227;7.9320;2.9090;1.6903;-0.3214;-0.0009;0.1685
0000415236;8.0110;2.8515;1.6688;-0.3368;0.0229;0.1561
0000415245;7.7692;2.7557;1.7549;-0.3440;0.0370;0.1334
0000415254;7.6950;2.7078;1.7382;-0.3525;0.0529;0.1144
0000415263;7.6184;2.7845;1.7238;-0.3415;0.0602;0.0989
0000415272;7.1180;2.4972;1.7597;-0.3126;0.0454;0.0781
0000415281;6.9456;2.5067;1.5754;-0.2691;0.0340;0.0537
0000415290;6.7995;2.5666;1.5299;-0.2450;0.0205;0.0517
0000415299;6.6798;2.7390;1.5682;-0.2273;0.0045;0.0626
0000415308;6.8618;2.8395;1.6017;-0.2276;-0.0204;0.0659
0000415317;7.2353;3.1292;1.5514;-0.2430;-0.0288;0.0821
0000415326;7.1730;3.0765;1.5514;-0.2526;-0.0470;0.0779
0000415335;7.6016;3.2705;1.4054;-0.2667;-0.0237;0.0902
0000415344;7.6591;2.9999;1.2617;-0.2757;-0.0085;0.0923
0000415353;8.0254;3.0454;1.2641;-0.2746;0.0153;0.0985
0000415362;8.1068;2.9784;1.2881;-0.2651;0.0552;0.1202
0000415371;8.3199;2.9999;1.0558;-0.2450;0.0831;0.1231
0000415380;8.3821;2.9904;1.0104;-0.2368;0.1312;0.1422
0000415389;8.2384;3.0550;0.8882;-0.2193;0.1808;0.1484
0000415398;8.0661;3.1029;0.9888;-0.2192;0.2241;0.1507
0000415407;7.9272;3.0981;1.0654;-0.2140;0.2559;0.1548
0000415416;7.8793;2.9401;0.9361;-0.2214;0.2817;0.1507
0000415425;7.5226;2.6959;0.7590;-0.2254;0.3027;0.1287
0000415434;7.7572;2.6073;0.7518;-0.2165;0.3260;0.1006
0000415443;7.3310;2.1045;0.6608;-0.1827;0.3345;0.0653
0000415452;7.2018;1.9345;0.5507;-0.1424;0.3436;0.0378
0000415461;7.1635;1.8747;0.3926;-0.0838;0.3424;0.0115
0000415470;7.0749;1.7885;0.3879;-0.0293;0.3388;-0.0051
0000415479;7.1108;1.8411;0.4381;0.0203;0.3293;-0.0321
0000415488;7.3095;1.8531;0.3855;0.0609;0.3214;-0.0350
0000415497;7.4220;1.7741;0.3160;0.1050;0.3100;-0.0536
0000415506;7.6064;1.8603;0.2753;0.1350;0.3018;-0.0524
0000415515;7.5106;1.7166;0.2322;0.1748;0.2923;-0.0763
0000415602;5.6048;6.2249;3.1843;0.2483;0.0617;0.0663
0000415611;5.1380;6.5457;3.6943;0.1599;0.0340;0.1430
0000415620;5.4253;5.9807;4.1372;0.0594;0.0144;0.2110
0000415629;6.3590;4.9273;3.8978;0.0397;0.0031;0.2559
0000415638;7.4986;3.6152;3.7254;0.0787;0.0160;0.3099
0000415647;8.3007;2.9904;4.0773;0.1450;0.0409;0.3475
0000415656;8.6287;2.3080;4.2258;0.1845;0.0498;0.3753
0000415665;9.1387;2.3846;4.0175;0.1873;0.0691;0.3651
0000415674;9.0261;2.4253;3.9696;0.1633;0.1045;0.3054
0000415683;8.4922;2.6073;3.9648;0.1290;0.1486;0.1931
0000415692;7.8673;2.9018;4.0223;0.0963;0.1891;0.0683
0000415701;7.0366;2.7725;3.8188;0.0453;0.2217;-0.0452
0000415710;6.3949;2.5690;3.7517;-0.0127;0.2397;-0.1404
0000415719;5.9903;2.2290;3.5937;-0.0797;0.2501;-0.1947
0000415728;5.8849;1.7621;3.4860;-0.1055;0.2325;-0.2212
0000415737;5.9352;1.3671;3.3758;-0.1156;0.2297;-0.2080
0000415746;6.1316;1.1157;3.2753;-0.0923;0.2106;-0.1867
0000415755;6.4931;1.2115;3.1412;-0.0677;0.2097;-0.1384
0000415764;6.6870;1.4341;3.0502;-0.0366;0.2089;-0.0986
0000415773;6.6918;1.6712;3.1340;-0.0012;0.2073;-0.0516
0000415782;6.5697;1.9225;3.1460;0.0280;0.1984;-0.0318
0000415791;6.4620;2.5474;3.1149;0.0608;0.1664;-0.0460
0000415800;6.0406;3.1125;3.1388;0.0693;0.1394;-0.0885
0000415809;5.9280;3.4237;3.0718;0.0538;0.1022;-0.1580
0000415818;5.8035;3.6536;3.0143;0.0253;0.0677;-0.2036
0000415827;5.7006;3.6248;2.9353;-0.0156;0.0236;-0.2290
0000415836;5.5019;3.4046;2.9161;-0.0290;-0.0257;-0.2318
0000415845;5.5426;3.2106;2.7605;-0.0482;-0.0678;-0.2216
0000415854;5.6216;2.9497;2.8252;-0.0340;-0.1126;-0.2292
0000415863;5.8586;2.8252;2.9137;-0.0220;-0.1420;-0.2409
0000415872;6.1675;2.9975;2.9568;0.0009;-0.1756;-0.2779
0000415881;6.1124;2.9425;2.8706;0.0061;-0.1905;-0.3103
0000415890;6.2560;3.1939;2.6959;-0.0021;-0.2020;-0.3585
0000415899;6.3159;3.3878;2.7629;-0.0296;-0.2032;-0.3972
0000415908;6.1770;3.4524;2.7031;-0.0641;-0.2004;-0.4287
0000415917;6.0190;3.3088;2.7126;-0.1215;-0.1833;-0.4402
0000415926;5.9855;2.9760;2.5163;-0.1571;-0.1841;-0.4523
0000415935;6.1411;2.9066;2.3966;-0.1891;-0.1697;-0.4323
0000415944;5.9448;2.5905;2.2936;-0.2084;-0.1613;-0.4135
0000415953;6.0525;2.4780;2.1811;-0.2062;-0.1687;-0.4056
0000415962;5.8155;2.3487;2.0614;-0.2089;-0.1595;-0.3778
0000415971;5.8083;2.4253;1.9992;-0.1936;-0.1760;-0.3726
0000415980;5.4779;2.4732;1.9417;-0.1765;-0.1781;-0.3728
0000415989;5.6216;2.7773;1.8603;-0.1704;-0.1911;-0.3730
0000415998;5.3870;2.6935;1.8244;-0.1788;-0.2081;-0.3673
0000416007;5.5234;2.8706;1.7142;-0.1896;-0.2277;-0.3601
0000416016;5.3846;2.8084;1.6400;-0.2044;-0.2446;-0.3489
0000416025;5.4755;2.7964;1.4341;-0.2108;-0.2610;-0.3320
0000416034;5.4827;2.6839;1.4533;-0.2073;-0.2899;-0.3188
0000416043;5.4660;2.5043;1.2641;-0.2133;-0.3124;-0.2952
0000416052;5.5593;2.5235;1.2330;-0.2078;-0.3503;-0.2751
0000416061;5.4827;2.5355;1.2043;-0.1973;-0.3870;-0.2533
0000416070;5.4444;2.5235;1.2019;-0.1955;-0.4157;-0.2176
0000416079;5.1906;2.2841;1.2234;-0.1841;-0.4586;-0.1896
0000416088;5.0518;2.2122;1.2163;-0.1713;-0.4979;-0.1635
0000416097;5.3079;2.3846;1.1420;-0.1522;-0.5344;-0.1498
0000416106;5.2577;2.4229;1.0008;-0.1272;-0.5689;-0.1327
0000416115;5.3702;2.3415;0.8308;-0.1092;-0.6054;-0.1238
0000416124;5.2648;2.2027;0.8954;-0.0883;-0.6391;-0.1071
0000416133;5.6024;2.2505;0.9936;-0.0628;-0.6768;-0.0941
0000416142;5.6360;2.1189;0.8284;-0.0322;-0.6949;-0.0715
0000416151;5.7245;2.0686;0.7638;0.0049;-0.7145;-0.0674
0000416160;5.5881;2.0518;0.6919;0.0558;-0.7280;-0.0722
0000416169;5.8323;2.2051;0.6919;0.0966;-0.7200;-0.0670
0000416178;5.7820;2.3559;0.5435;0.1179;-0.7089;-0.0614
0000416187;5.8873;2.5067;0.6512;0.1247;-0.6964;-0.0354
0000416196;5.9520;2.4469;0.5315;0.1226;-0.6812;-0.0013
0000416205;5.9855;2.3415;0.3711;0.1204;-0.6594;0.0337
0000416214;5.9783;2.3343;0.0958;0.1108;-0.6306;0.0577
0000416223;5.8849;2.2051;-0.0599;0.1200;-0.6122;0.0673
0000416232;5.6383;2.0399;-0.2227;0.1496;-0.6109;0.0573
0000416241;5.5426;2.1404;-0.3017;0.1920;-0.6209;0.0473
0000416250;5.1212;2.1117;-0.4669;0.2403;-0.6588;0.0270
0000416394;3.3854;2.7270;4.2928;0.0749;-0.7108;-0.6009
0000416403;4.1635;2.5666;4.2425;0.1486;-0.7721;-0.3532
0000416412;5.1475;2.4541;4.1563;0.1571;-0.8039;-0.0843
0000416421;6.4308;2.0135;3.9816;0.1176;-0.7926;0.1716
0000416430;7.7596;1.6233;3.6871;0.0409;-0.7650;0.3777
0000416439;8.6167;1.1181;3.3040;-0.0464;-0.7072;0.5466
0000416448;9.4810;0.6129;3.0023;-0.1282;-0.6547;0.6400
0000416457;9.6510;0.0096;3.0981;-0.1879;-0.5947;0.6690
0000416466;9.7659;-0.0024;3.3351;-0.2121;-0.5319;0.6146
0000416475;9.4092;0.0024;3.5961;-0.1811;-0.4896;0.5028
0000416484;9.5457;0.6033;3.7397;-0.1218;-0.4375;0.3564
0000416493;9.1770;1.0774;3.5362;-0.0590;-0.4151;0.1985
0000416502;9.0381;1.5778;3.4716;-0.0401;-0.3794;0.0630
0000416511;9.0453;2.3104;3.3758;-0.0333;-0.3488;-0.0258
0000416520;8.6095;2.6097;3.1508;-0.0145;-0.3082;-0.0825
0000416529;8.3175;2.8491;3.1747;0.0211;-0.2844;-0.0851
0000416538;7.9607;2.9353;2.8467;0.0484;-0.2577;-0.0253
0000416547;7.7117;3.0454;2.4876;0.0853;-0.2435;0.0472
0000416556;7.5513;3.0191;2.1452;0.1095;-0.2080;0.1380
0000416565;7.3717;2.9544;2.0662;0.1077;-0.1828;0.2010
0000416574;7.2568;2.7102;2.1069;0.0901;-0.1482;0.2549
0000416583;7.1251;2.6695;2.2386;0.0946;-0.1304;0.2798
0000416592;7.1611;2.5474;2.1859;0.0955;-0.1025;0.2970
0000416601;7.0126;2.6360;2.0782;0.1019;-0.0826;0.2928
0000416610;6.9336;2.5283;2.1404;0.1095;-0.0762;0.2934
0000416619;7.2305;2.9377;2.1572;0.1063;-0.0705;0.3002
0000416628;7.6567;3.2872;2.2482;0.1061;-0.0879;0.3080
0000416637;7.9535;3.6368;2.1620;0.0747;-0.0934;0.3248
0000416646;8.4156;3.8427;2.1668;0.0240;-0.1053;0.3242
0000416655;8.2480;3.8379;2.0662;-0.0442;-0.1087;0.3071
0000416664;8.1666;3.7661;2.0494;-0.1167;-0.1099;0.2922
0000416673;8.1187;3.4764;1.8340;-0.1812;-0.1042;0.2693
0000416682;7.8027;3.2178;1.9010;-0.2184;-0.1058;0.2523
0000416691;7.5681;2.8467;1.8268;-0.2333;-0.0949;0.2406
0000416700;7.4508;2.4349;1.6520;-0.2192;-0.0974;0.2336
0000416709;7.4053;2.1787;1.6113;-0.1966;-0.0953;0.2437
0000416718;7.0437;2.0423;1.5897;-0.1623;-0.1034;0.2525
0000416727;7.0940;2.1213;1.6352;-0.1251;-0.1206;0.2637
0000416736;7.0174;2.2553;1.6328;-0.1011;-0.1319;0.2761
0000416745;7.1658;2.2865;1.7047;-0.0869;-0.1458;0.2754
0000416754;7.3454;2.3870;1.6759;-0.0798;-0.1490;0.2618
0000416763;7.6926;2.6408;1.6688;-0.0869;-0.1411;0.2312
0000416772;7.9320;2.6911;1.6233;-0.0874;-0.1351;0.1937
0000416781;8.2049;2.7054;1.5826;-0.1038;-0.1147;0.1611
0000416790;8.3342;2.9329;1.5131;-0.1171;-0.0898;0.1316
0000416799;8.2911;2.8706;1.5634;-0.1283;-0.0568;0.1150
0000416808;8.5114;2.9904;1.3408;-0.1475;-0.0139;0.1119
0000416817;8.4443;2.9281;1.3934;-0.1516;0.0141;0.1074
0000416826;8.3246;2.9066;1.3455;-0.1689;0.0561;0.1207
0000416835;8.2600;2.6647;1.2354;-0.1644;0.0909;0.1291
0000416844;8.0804;2.4900;1.2426;-0.1430;0.1196;0.1406
0000416853;8.1786;2.5043;1.0271;-0.1374;0.1593;0.1476
0000416862;8.2193;2.5570;1.1037;-0.1287;0.1929;0.1436
0000416871;8.3031;2.4660;1.1277;-0.1243;0.2184;0.1215
0000416880;8.4013;2.4900;1.0104;-0.1262;0.2489;0.0894
0000416889;8.4874;2.3870;1.0654;-0.1222;0.2697;0.0489
0000416898;8.4827;2.5091;0.9720;-0.1255;0.3076;0.0204
0000416907;8.4922;2.6097;0.9936;-0.1144;0.3276;-0.0236
0000416916;8.4156;2.5091;0.9912;-0.1163;0.3589;-0.0481
0000416925;8.2456;2.3750;0.9313;-0.1118;0.3721;-0.0722
0000416934;8.0589;2.3463;0.9218;-0.1055;0.3873;-0.0795
0000416943;7.9320;2.3367;0.9361;-0.0898;0.3885;-0.0909
0000416952;7.7812;2.2027;0.8475;-0.0674;0.3917;-0.0881
0000416961;7.6016;2.2960;0.9218;-0.0420;0.3977;-0.0847
0000416970;7.6471;2.2290;0.8595;-0.0164;0.4090;-0.0769
0000416979;7.7333;2.2625;0.7566;0.0276;0.4118;-0.0865
0000416988;7.8147;2.2194;0.7781;0.0508;0.4278;-0.0789
0000416997;7.8793;2.2338;0.7494;0.0829;0.4314;-0.0862
0000417006;8.1116;2.3559;0.8356;0.1019;0.4354;-0.0790
0000417015;8.0996;2.2721;0.8954;0.1260;0.4323;-0.0663
0000417024;8.4108;2.4924;0.8428;0.1370;0.4343;-0.0452
0000417033;8.3965;2.5355;0.9122;0.1559;0.4299;-0.0338
0000417042;8.3055;2.7701;0.9481;0.1565;0.4437;-0.0241
0000417130;6.3375;6.4907;3.9504;0.5380;0.4531;0.5419
0000417139;6.2177;6.9815;3.6224;0.5297;0.4297;0.6691
0000417148;6.7349;6.7708;3.3639;0.4434;0.3877;0.7659
0000417157;7.4148;5.6719;3.1723;0.3371;0.3537;0.7805
0000417166;8.2384;4.6495;2.8994;0.2269;0.3536;0.7200
0000417175;8.4515;3.6272;2.8371;0.1555;0.3592;0.5704
0000417184;8.7197;2.9808;2.7773;0.0977;0.3904;0.3714
0000417193;8.3869;2.3200;2.7270;0.0478;0.4485;0.1390
0000417202;7.8817;1.7645;2.6959;0.0005;0.5221;-0.0685
0000417211;7.4723;1.8220;2.7366;-0.0292;0.5887;-0.2289
0000417220;6.8450;1.6927;2.8084;-0.0652;0.6374;-0.3452
0000417229;6.5098;1.7741;2.9042;-0.1018;0.6616;-0.4093
0000417238;6.3925;1.6640;2.9544;-0.1426;0.7003;-0.4037
0000417247;6.2584;1.5802;3.1508;-0.1633;0.7172;-0.3528
0000417256;6.3949;1.5203;3.1412;-0.1867;0.7213;-0.2525
0000417265;6.2584;1.1779;3.1053;-0.1923;0.6975;-0.1392
0000417274;6.1794;1.0846;3.2992;-0.1839;0.6730;-0.0238
0000417283;6.0956;1.4006;3.2896;-0.1537;0.6372;0.0529
0000417292;5.3941;1.7358;3.2777;-0.1262;0.5905;0.0794
0000417301;4.9009;2.0375;3.3662;-0.1069;0.5308;0.0727
0000417310;4.4341;2.4660;3.3662;-0.1055;0.4674;0.0405
0000417319;3.9361;2.8539;3.2657;-0.0946;0.3849;-0.0164
0000417328;3.8259;3.2178;3.3543;-0.0858;0.2979;-0.0592
0000417337;3.9193;3.3734;3.3543;-0.0841;0.2129;-0.1102
0000417346;4.3335;3.3519;3.3519;-0.0568;0.1403;-0.1560
0000417355;5.1715;3.3232;3.1723;-0.0376;0.0991;-0.1713
0000417364;5.9903;3.2896;3.0478;-0.0225;0.0705;-0.1924
0000417373;6.8139;3.2489;2.7342;-0.0167;0.0847;-0.1868
0000417382;7.0557;2.8946;2.5809;-0.0163;0.0986;-0.1925
0000417391;7.3837;2.8922;2.4660;-0.0104;0.1320;-0.1853
0000417400;7.2760;2.7653;2.3870;-0.0209;0.1805;-0.1796
0000417409;7.2927;2.7845;2.4565;-0.0132;0.2321;-0.1835
0000417418;7.0629;3.0646;2.2721;-0.0286;0.2803;-0.1937
0000417427;6.7062;3.1747;2.3128;-0.0497;0.3071;-0.2184
0000417436;6.1196;3.1388;2.2458;-0.0689;0.3158;-0.2485
0000417445;5.9807;3.2633;2.1596;-0.0998;0.3303;-0.2574
0000417454;5.5043;3.2585;2.0423;-0.1342;0.3210;-0.2795
0000417463;5.2337;3.2346;2.1356;-0.1645;0.3030;-0.2870
0000417472;4.9249;3.0742;2.0806;-0.2037;0.2670;-0.2847
0000417481;5.0877;3.0598;2.1021;-0.2386;0.2208;-0.2757
0000417490;5.0206;2.9951;1.9465;-0.2530;0.1804;-0.2625
0000417499;5.0159;2.8635;1.8627;-0.2655;0.1267;-0.2514
0000417508;5.2170;2.7773;1.5778;-0.2818;0.0722;-0.2360
0000417517;5.2026;2.7246;1.3096;-0.2939;0.0225;-0.2170
0000417526;5.4588;2.7605;1.3240;-0.3075;-0.0204;-0.2064
0000417535;5.3965;2.8228;1.1349;-0.3223;-0.0582;-0.2005
0000417544;5.4684;2.8084;1.1995;-0.3355;-0.0991;-0.2028
0000417553;5.1260;2.5977;1.0630;-0.3551;-0.1339;-0.1969
0000417562;5.0398;2.3463;1.0606;-0.3701;-0.1745;-0.1717
0000417571;4.9440;2.1787;1.0654;-0.3677;-0.2273;-0.1344
0000417580;5.0949;2.1620;1.1564;-0.3571;-0.2591;-0.0839
0000417589;5.2170;1.9225;1.2067;-0.3469;-0.3102;-0.0344
0000417598;5.1140;1.7502;1.3384;-0.3313;-0.3496;0.0273
0000417607;5.1595;1.5371;1.4054;-0.3076;-0.3873;0.0821
0000417616;5.4109;1.3503;1.4820;-0.2899;-0.4173;0.1391
0000417625;5.5162;1.3862;1.7813;-0.2574;-0.4542;0.1768
0000417634;5.7581;1.4341;1.7310;-0.2128;-0.4790;0.2129
0000417643;5.9161;1.4700;1.5562;-0.1543;-0.5381;0.2364
0000417652;6.0358;1.2546;1.0487;-0.1019;-0.5889;0.2785
0000417661;5.8538;1.2617;0.9098;-0.0280;-0.6642;0.2960
0000417670;5.7437;1.2186;0.9098;0.0413;-0.7065;0.2963
0000417679;5.5785;1.7430;1.2378;0.1242;-0.7474;0.2418
0000417688;5.0996;1.9824;1.5131;0.1901;-0.7549;0.1675
0000417697;5.1763;2.5762;1.5490;0.2570;-0.7791;0.0814
0000417706;5.7581;2.8204;1.7717;0.2875;-0.7934;0.0233
0000417715;6.2513;2.9856;1.9752;0.3171;-0.7715;0.0120
0000417724;6.6726;2.8108;1.9010;0.3557;-0.7320;0.0213
0000417733;6.8714;2.5929;1.4892;0.4199;-0.6817;0.0356
0000417742;6.5888;2.3463;0.9194;0.4632;-0.6226;0.0506
0000417751;6.5386;2.4612;0.9290;0.4958;-0.5550;0.0448
0000417760;6.0597;2.7270;0.8499;0.5596;-0.5149;-0.0060
0000417769;5.8107;3.4788;1.0511;0.5926;-0.4908;-0.0633
0000417778;5.6743;4.3646;1.5299;0.5977;-0.5064;-0.1359
0000417787;5.7820;5.2672;2.2721;0.5820;-0.5244;-0.2273
0000417874;6.0741;3.3615;3.0478;0.1998;-0.3344;-0.3806
0000417883;6.1124;2.6217;3.1651;0.1879;-0.3018;-0.2233
0000417892;6.1890;2.0877;3.1268;0.1701;-0.2775;-0.0733
0000417901;6.2417;1.8004;3.1963;0.1551;-0.2482;0.0628
0000417910;6.3758;1.2929;3.3040;0.1455;-0.2162;0.1813
0000417919;7.0342;0.9840;3.3136;0.1234;-0.1785;0.2811
0000417928;7.2113;0.6345;3.3806;0.1026;-0.1410;0.3555
0000417937;8.0637;0.4118;3.2441;0.0821;-0.1065;0.3996
0000417946;8.4467;0.0718;3.1723;0.0790;-0.0568;0.4247
0000417955;8.8202;0.0718;3.1125;0.1092;-0.0164;0.4090
0000417964;8.9399;0.3065;3.2417;0.1427;0.0377;0.3685
0000417973;9.1387;0.7590;3.2705;0.1904;0.0803;0.2938
0000417982;8.9878;1.1756;3.3112;0.2185;0.1288;0.2117
0000417991;8.9663;1.9992;3.3232;0.2220;0.1787;0.1176
0000418000;8.7149;2.6959;3.1819;0.1939;0.2126;0.0422
0000418009;8.2911;3.1843;3.1747;0.1524;0.2316;-0.0232
0000418018;7.7812;3.5434;3.0598;0.0986;0.2313;-0.0586
0000418027;7.1275;3.7972;2.8467;0.0406;0.2133;-0.0658
0000418036;6.6631;3.6966;2.6935;-0.0031;0.1736;-0.0763
0000418045;6.5218;3.6727;2.4756;-0.0461;0.1387;-0.0589
0000418054;6.2321;3.2657;2.3727;-0.0625;0.0870;-0.0605
0000418063;6.6798;3.2130;2.2098;-0.0721;0.0480;-0.0606
0000418072;6.7301;2.9760;2.3128;-0.0746;0.0017;-0.0516
0000418081;6.6511;2.8826;2.1931;-0.0570;-0.0322;-0.0545
0000418090;6.9911;3.0191;2.2434;-0.0324;-0.0474;-0.0445
0000418099;7.3167;3.3375;2.2338;-0.0232;-0.0392;-0.0285
0000418108;7.3933;3.4022;2.0710;-0.0101;-0.0336;-0.0080
0000418117;7.6447;3.4429;2.1404;-0.0165;-0.0188;0.0300
0000418126;7.8290;3.6919;2.1715;-0.0155;-0.0055;0.0823
0000418135;7.8985;3.6200;2.1045;-0.0257;0.0163;0.1346
0000418144;7.9799;3.5554;1.9561;-0.0526;0.0369;0.1923
0000418153;8.0230;3.4165;1.8938;-0.0714;0.0525;0.2317
0000418162;7.9631;3.2010;1.7980;-0.1026;0.0801;0.2690
0000418171;8.0158;3.3902;1.7190;-0.1104;0.0758;0.2903
0000418180;7.6806;2.9042;1.6999;-0.1171;0.0791;0.3098
0000418189;7.6112;2.6504;1.5490;-0.1198;0.0598;0.3074
0000418198;7.6160;2.6097;1.3958;-0.1294;0.0576;0.2955
0000418207;7.5513;2.4852;1.4126;-0.1315;0.0364;0.2594
0000418216;7.4005;2.2434;1.3168;-0.1468;0.0248;0.2340
0000418225;7.3167;2.4565;1.2641;-0.1527;-0.0047;0.1989
0000418234;7.1395;2.4301;1.2354;-0.1585;-0.0238;0.1732
0000418243;7.0366;2.2601;1.2234;-0.1645;-0.0458;0.1375
0000418252;7.1850;2.3391;1.2234;-0.1605;-0.0659;0.1140
0000418261;7.0749;2.3559;1.2474;-0.1687;-0.0738;0.0997
0000418270;7.2185;2.5881;1.2929;-0.1712;-0.0901;0.0753
0000418279;7.2640;2.5259;1.2809;-0.1765;-0.0854;0.0548
0000418288;7.6088;2.8491;1.2450;-0.1841;-0.0753;0.0358
0000418297;7.6662;2.7294;1.1253;-0.1789;-0.0546;0.0161
0000418306;7.8793;2.7102;1.1851;-0.1824;-0.0280;0.0087
0000418315;7.9248;2.7725;1.2689;-0.1604;-0.0057;-0.0076
0000418324;8.1283;2.8323;1.1540;-0.1480;0.0348;-0.0023
0000418333;8.2073;2.9832;1.0439;-0.1304;0.0789;-0.0059
0000418342;7.7141;2.6001;1.0415;-0.1123;0.1162;-0.0088
0000418351;7.7692;2.7342;1.0774;-0.1011;0.1607;0.0048
0000418360;7.5729;2.7509;0.9457;-0.0723;0.1768;0.0076
0000418369;7.7333;2.7821;0.8356;-0.0616;0.2102;0.0286
0000418378;7.5992;2.7845;0.8691;-0.0558;0.2336;0.0373
0000418387;7.8482;2.9305;0.9457;-0.0518;0.2579;0.0549
0000418396;7.9152;3.0095;0.8236;-0.0470;0.2758;0.0512
0000418405;7.8027;2.9616;0.8308;-0.0485;0.3034;0.0566
0000418414;7.9152;2.8922;0.7757;-0.0478;0.3277;0.0466
0000418423;8.0134;3.1268;0.7063;-0.0577;0.3521;0.0402
0000418432;7.6160;3.0191;0.6584;-0.0753;0.3726;0.0362
0000418441;7.9272;2.9832;0.6536;-0.0829;0.3793;0.0273
0000418450;7.6064;2.8467;0.6512;-0.0978;0.3852;0.0256
0000418459;7.4843;2.7821;0.6225;-0.0975;0.3874;0.0151
0000418468;7.4460;2.6839;0.5483;-0.1059;0.3821;0.0091
0000418477;7.4699;2.6647;0.5650;-0.1090;0.3804;-0.0044
0000418486;7.3622;2.5522;0.5124;-0.1043;0.3679;-0.0116
0000418495;7.4005;2.4780;0.5315;-0.1015;0.3581;-0.0180
0000418504;7.3933;2.5211;0.6033;-0.0913;0.3525;-0.0215
0000418513;7.4675;2.5043;0.5890;-0.0862;0.3541;-0.0234
0000418522;7.4651;2.4684;0.6871;-0.0761;0.3356;-0.0310
0000418531;7.4364;2.4397;0.7877;-0.0730;0.3333;-0.0273
0000418619;9.2225;2.9592;0.1460;0.0953;0.5934;-0.0513
0000418628;9.1291;2.8299;-0.0263;0.1707;0.6490;-0.0545
0000418637;9.2703;2.9616;-0.3280;0.2482;0.7012;-0.0482
0000418646;9.0166;2.7821;-0.2490;0.3187;0.7533;-0.0364
0000418655;9.1746;3.1460;-0.0144;0.3511;0.8047;-0.0249
0000418664;8.6431;3.4213;0.3615;0.3896;0.8230;0.0059
0000418673;8.0661;4.1946;0.6871;0.4255;0.8204;0.0590
0000418682;7.4531;4.5226;1.1229;0.4194;0.7955;0.1520
0000418691;6.5817;4.8219;1.7597;0.3970;0.7457;0.2405
0000418700;6.0837;5.3032;2.1859;0.3517;0.6544;0.3212
0000418709;5.2098;5.5162;2.5163;0.2839;0.5389;0.3802
0000418718;5.0350;5.8969;2.8419;0.2004;0.3913;0.3990
0000418727;4.5346;5.8275;3.1867;0.0982;0.2651;0.4285
0000418736;4.2282;5.3534;3.7182;0.0280;0.1175;0.4393
0000418745;4.0342;4.6400;4.0797;0.0089;-0.0376;0.4415
0000418754;4.4388;3.7733;4.0845;0.0269;-0.1779;0.4294
0000418763;5.1595;3.1460;3.9217;0.0561;-0.2690;0.3873
0000418772;5.6216;2.4229;3.8259;0.1050;-0.3222;0.3377
0000418781;6.1962;2.0279;3.6105;0.1703;-0.3528;0.2805
0000418790;6.6942;1.9393;3.5937;0.1873;-0.3499;0.2296
0000418799;7.2305;2.1979;3.7733;0.1621;-0.3168;0.1545
0000418808;7.6016;1.9034;3.8714;0.1010;-0.2433;0.0877
0000418817;7.9895;1.7861;4.0103;0.0406;-0.1346;0.0257
0000418826;7.9176;1.2881;3.7613;0.0021;-0.0112;-0.0099
0000418835;8.0709;1.1372;3.6009;-0.0148;0.0914;-0.0258
0000418844;7.8027;0.8906;3.3998;-0.0308;0.1927;0.0031
0000418853;7.6040;0.9864;3.3471;-0.0278;0.2698;0.0421
0000418862;6.8881;1.2402;3.3375;-0.0328;0.3273;0.1147
0000418871;6.1818;1.7526;3.3758;-0.0076;0.3305;0.1780
0000418880;5.6623;2.6288;3.3902;0.0301;0.3151;0.2333
0000418889;4.7764;3.3447;3.3710;0.0675;0.2570;0.2353
0000418898;4.3670;3.9816;3.1963;0.0777;0.1892;0.1960
0000418907;4.3072;4.5705;3.0957;0.0356;0.1027;0.1026
0000418916;4.3814;4.6663;3.0909;-0.0494;0.0072;-0.0160
0000418925;4.6376;4.2784;2.9760;-0.1316;-0.0845;-0.1292
0000418934;5.0206;3.8642;2.8539;-0.1860;-0.1683;-0.2361
0000418943;5.6838;3.2489;2.5953;-0.2037;-0.2274;-0.3095
0000418952;5.8562;2.9281;2.3774;-0.2088;-0.2583;-0.3639
0000418961;6.0765;2.5067;2.2745;-0.1927;-0.2779;-0.4002
0000418970;6.3494;2.2865;2.3415;-0.1796;-0.2707;-0.4113
0000418979;6.6631;2.5019;2.0638;-0.1486;-0.2474;-0.4133
0000418988;7.0892;2.7797;1.8364;-0.1246;-0.2253;-0.4066
0000418997;7.3167;3.0287;1.7765;-0.1446;-0.1867;-0.3894
0000419006;6.9935;2.9018;1.6400;-0.1641;-0.1703;-0.3782
0000419015;6.8402;3.0430;1.5969;-0.1911;-0.1474;-0.3500
0000419024;6.4739;2.9832;1.6161;-0.2169;-0.1308;-0.3293
0000419033;6.0956;2.8683;1.6352;-0.2249;-0.1283;-0.3219
0000419042;5.9089;2.7581;1.5897;-0.2174;-0.1565;-0.3384
0000419051;5.7748;2.6959;1.5060;-0.2221;-0.1809;-0.3367
0000419060;5.6000;2.6145;1.3240;-0.2210;-0.2230;-0.3496
0000419069;5.9185;2.6456;1.2258;-0.2124;-0.2807;-0.3736
0000419078;6.0023;2.5905;1.0606;-0.2054;-0.3420;-0.3765
0000419087;6.1531;2.3679;1.0511;-0.1993;-0.3874;-0.3709
0000419096;6.1435;2.1332;1.1253;-0.1832;-0.4333;-0.3587
0000419105;6.3686;2.1548;1.0798;-0.1705;-0.4591;-0.3254
0000419114;6.4835;1.8771;0.8930;-0.1451;-0.5008;-0.2943
0000419123;6.4811;1.6592;0.6871;-0.1096;-0.5368;-0.2336
0000419132;6.6511;1.5993;0.3903;-0.0512;-0.5868;-0.1765
0000419141;6.6032;1.3671;-0.0192;0.0031;-0.6320;-0.1156
0000419150;6.4548;1.3838;-0.1676;0.0404;-0.6583;-0.0604
0000419159;6.2728;1.3719;-0.2370;0.0799;-0.7036;-0.0300
0000419168;6.1268;1.3599;-0.2921;0.1066;-0.7237;-0.0001
0000419177;5.9927;1.5083;-0.1030;0.1443;-0.7470;0.0136
0000419186;5.9831;1.7741;-0.1030;0.1935;-0.7701;0.0215
0000419195;5.7652;1.5897;-0.1006;0.2330;-0.7759;0.0465
0000419204;6.1531;1.9896;-0.1269;0.2730;-0.7782;0.0761
0000419213;6.4284;2.5043;-0.0431;0.2891;-0.7681;0.1240
0000419222;6.4955;2.7390;0.0335;0.2928;-0.7665;0.1712
0000419231;6.5984;3.1508;0.1149;0.2698;-0.7562;0.2296
0000419240;6.4907;3.4979;0.1365;0.2332;-0.7416;0.2850
0000419249;6.4715;3.8978;0.2658;0.1817;-0.7432;0.3250
0000419258;6.4212;4.2617;0.4621;0.1271;-0.7385;0.3393
0000419267;6.3111;4.3574;0.8260;0.0588;-0.7128;0.3496
0000419359;4.6878;3.8427;-0.6800;0.2230;-0.5093;-0.0028
0000419368;4.2162;4.3622;-0.2370;0.2270;-0.5399;-0.0524
0000419377;4.0654;5.2816;0.2729;0.2158;-0.5741;-0.0781
0000419386;4.1851;5.9975;0.7374;0.1920;-0.5955;-0.1086
0000419395;4.6376;6.6080;1.1109;0.1210;-0.5978;-0.1348
0000419404;5.5091;7.0198;1.7382;0.0337;-0.5978;-0.1740
0000419413;6.3159;6.5314;2.1380;-0.0608;-0.5734;-0.1795
0000419422;7.2233;6.1818;2.4660;-0.1167;-0.5345;-0.1883
0000419431;8.3965;5.8658;2.9137;-0.1612;-0.4794;-0.1668
0000419440;9.5768;5.4731;3.4333;-0.1785;-0.4137;-0.1856
0000419449;10.4004;4.5442;3.6823;-0.1903;-0.3126;-0.2357
0000419458;11.1570;3.9049;3.9361;-0.1704;-0.1741;-0.3255
0000419467;11.1642;3.4165;4.3144;-0.1516;0.0260;-0.4238
0000419476;10.6446;2.8994;4.4748;-0.0793;0.2074;-0.5193
0000419485;9.8354;2.3846;4.1683;-0.0072;0.3669;-0.5617
0000419494;8.7700;2.0063;3.9456;0.0683;0.4798;-0.5493
0000419503;7.5489;1.6041;4.1420;0.1139;0.5377;-0.4996
0000419512;6.4859;1.4293;4.3335;0.1551;0.5497;-0.4257
0000419521;5.6144;1.3503;4.4724;0.2005;0.5051;-0.3444
0000419530;4.7309;1.2570;4.1324;0.2453;0.4030;-0.2462
0000419539;4.7070;1.2737;3.8188;0.2377;0.2831;-0.1222
0000419548;4.9895;1.2617;3.6847;0.1864;0.1544;0.0043
0000419557;5.2002;1.2737;3.5841;0.1227;0.0177;0.1131
0000419566;5.9687;1.5634;3.3710;0.0526;-0.0927;0.1692
0000419575;6.4907;1.4676;3.2657;0.0125;-0.1889;0.1637
0000419584;7.3239;1.8196;3.1556;-0.0203;-0.2491;0.1187
0000419593;8.2648;2.1213;3.1196;-0.0541;-0.2646;0.0341
0000419602;9.2632;2.4517;3.0718;-0.0823;-0.2354;-0.0625
0000419611;9.9048;2.8922;3.2465;-0.0991;-0.1701;-0.1544
0000419620;10.4531;3.1340;3.1460;-0.1170;-0.0540;-0.2053
0000419629;10.5560;3.1891;3.0023;-0.1187;0.0749;-0.2140
0000419638;10.5872;3.0263;2.7605;-0.0929;0.2174;-0.1549
0000419647;10.5010;2.9209;2.6025;-0.0573;0.3568;-0.0325
0000419656;9.8857;2.8108;2.5881;-0.0230;0.4750;0.1009
0000419665;9.4954;2.6743;2.5115;0.0096;0.5669;0.2395
0000419674;8.8274;2.7701;2.4900;0.0145;0.6436;0.3479
0000419683;8.3127;2.7102;2.4636;0.0149;0.6973;0.4190
0000419692;7.4843;2.8132;2.4469;0.0288;0.7165;0.4345
0000419701;7.2449;2.7509;2.3655;0.0272;0.7084;0.4345
0000419710;6.6080;2.7031;2.4301;0.0176;0.6769;0.4133
0000419719;6.0501;2.2458;2.2960;0.0216;0.6063;0.3881
0000419728;6.3015;2.2362;2.1763;0.0356;0.5388;0.3565
0000419737;6.5649;2.1380;2.0255;0.0468;0.4783;0.3349
0000419746;6.7804;2.3008;2.0806;0.0765;0.4086;0.3027
0000419755;7.3071;2.5187;1.8220;0.0811;0.3645;0.2919
0000419764;7.5776;2.5426;1.8292;0.0799;0.3267;0.2803
0000419773;7.8530;2.8108;1.7645;0.0609;0.3150;0.2701
0000419782;8.0230;2.8108;1.8268;0.0260;0.3204;0.2709
0000419791;8.3438;2.8683;1.8507;-0.0092;0.3307;0.2619
0000419800;8.3414;2.8802;1.8747;-0.0373;0.3532;0.2587
0000419809;8.4539;2.5163;1.7095;-0.0266;0.3796;0.2538
0000419818;8.3462;1.8890;1.5682;0.0040;0.4271;0.2613
0000419827;8.6503;1.8387;1.3240;0.0544;0.4648;0.2674
0000419836;8.6694;1.7741;1.3455;0.1152;0.5049;0.2790
0000419845;8.5641;1.9728;1.2354;0.1687;0.5494;0.2990
0000419854;8.5569;2.2841;1.1779;0.2025;0.5955;0.3204
0000419863;8.4276;2.6959;1.1277;0.2050;0.6434;0.3316
0000419872;8.4036;2.9856;1.2019;0.1740;0.6779;0.3204
0000419881;8.2839;3.2825;1.2641;0.1194;0.7171;0.3152
0000419890;8.2289;3.6320;1.2474;0.0628;0.7393;0.2964
0000419899;8.0325;3.3639;1.4509;-0.0049;0.7509;0.2805
0000419908;7.9918;3.2130;1.2546;-0.0393;0.7552;0.2461
0000419917;7.7859;2.8180;1.1013;-0.0464;0.7573;0.2126
0000419926;7.7812;2.7007;1.0487;-0.0177;0.7593;0.1852
0000419935;7.4220;2.4948;1.0750;0.0153;0.7578;0.1704
0000419944;7.3861;2.5211;1.1205;0.0512;0.7470;0.1555
0000419953;7.3143;2.7318;1.2641;0.0588;0.7461;0.1390
0000419962;7.3981;3.0933;1.1588;0.0557;0.7334;0.1246
0000419971;7.4436;3.0263;1.1372;0.0229;0.7280;0.1262
0000419980;7.5369;3.0694;1.1420;-0.0071;0.7093;0.1131
0000419989;7.5657;3.1292;1.1899;-0.0514;0.7051;0.1123
0000419998;7.5585;2.9377;1.2258;-0.0853;0.6847;0.0947
0000420007;7.8338;2.6001;1.3168;-0.1164;0.6751;0.0770
0000420016;7.7931;2.2793;1.1157;-0.1073;0.6676;0.0645
0000420160;7.7428;1.9417;1.6783;0.0677;0.4275;-0.2951
0000420169;7.3741;2.1356;2.1404;0.1025;0.4291;-0.2729
0000420178;7.3957;2.8539;2.5618;0.1631;0.4261;-0.2358
0000420187;6.8091;3.6248;2.9090;0.2405;0.4146;-0.1679
0000420196;6.5481;4.6471;3.0789;0.3142;0.3921;-0.0769
0000420205;6.2034;5.4277;3.1316;0.3748;0.3529;0.0637
0000420214;5.9592;5.9137;3.1460;0.3945;0.3126;0.2117
0000420223;6.3135;6.0047;3.0885;0.3572;0.2830;0.3194
0000420232;6.7564;5.2888;2.8443;0.2713;0.2843;0.3918
0000420241;7.6926;4.6160;2.6791;0.1921;0.3099;0.4060
0000420250;8.2384;3.4907;2.7222;0.1306;0.3655;0.4021
0000420259;8.8562;2.9329;2.7126;0.1081;0.4254;0.3698
0000420268;8.6072;2.1763;2.6695;0.1059;0.5002;0.3164
0000420277;8.7364;2.0351;2.6432;0.0821;0.5752;0.2625
0000420286;8.6215;2.0830;2.6121;0.0308;0.6363;0.2200
0000420295;8.2217;2.1213;2.4828;-0.0330;0.6753;0.2062
0000420304;7.7931;2.2194;2.2075;-0.0823;0.7009;0.2105
0000420313;7.0318;2.4445;2.0614;-0.1246;0.6877;0.2285
0000420322;6.2321;2.6121;2.1332;-0.1639;0.6492;0.2369
0000420331;5.2672;2.8371;2.1165;-0.1888;0.5883;0.2384
0000420340;4.4580;2.9473;2.3224;-0.1791;0.4890;0.1980
0000420349;3.5698;3.1915;2.4397;-0.1660;0.3908;0.1443
0000420358;3.0742;3.3974;2.4014;-0.1483;0.2623;0.0730
0000420367;3.1651;3.7733;2.3631;-0.1368;0.1230;-0.0139
0000420376;3.3543;3.6368;2.1955;-0.1140;-0.0168;-0.0915
0000420385;4.0630;3.6512;2.3846;-0.0769;-0.1278;-0.1756
0000420394;4.6902;3.6727;2.3918;-0.0361;-0.2056;-0.2534
0000420403;5.7772;4.1324;2.3894;-0.0289;-0.2370;-0.3099
0000420412;6.1483;4.0893;2.4588;-0.0490;-0.2463;-0.3411
0000420421;6.6343;4.3120;2.3942;-0.0801;-0.2405;-0.3625
0000420430;6.9576;4.2066;2.3008;-0.1388;-0.1984;-0.3609
0000420439;6.8618;3.6536;2.2027;-0.1964;-0.1478;-0.3592
0000420448;6.9815;3.5243;2.1955;-0.2292;-0.1055;-0.3625
0000420457;6.9145;3.2010;2.0686;-0.2489;-0.0564;-0.3508
0000420466;6.7373;2.7725;1.9752;-0.2474;-0.0258;-0.3528
0000420475;6.7421;2.7964;1.8411;-0.2421;0.0037;-0.3503
0000420484;6.5218;2.7198;1.9010;-0.2333;0.0133;-0.3613
0000420493;6.3063;2.7725;1.6735;-0.2265;0.0135;-0.3769
0000420502;6.2393;2.9880;1.6616;-0.2228;0.0041;-0.3940
0000420511;5.6527;2.7677;1.5083;-0.2306;-0.0184;-0.4090
0000420520;5.5234;2.9425;1.3431;-0.2353;-0.0524;-0.4270
0000420529;5.3989;3.0430;1.4461;-0.2578;-0.0787;-0.4425
0000420538;5.2553;3.0071;1.2929;-0.2674;-0.1243;-0.4533
0000420547;5.0996;2.9257;1.2091;-0.2707;-0.1721;-0.4594
0000420556;5.1068;3.0215;1.1396;-0.2739;-0.2069;-0.4501
0000420565;5.1140;3.1292;1.1803;-0.2687;-0.2550;-0.4442
0000420574;5.0422;3.0335;1.1325;-0.2799;-0.2932;-0.4178
0000420583;5.5067;2.9329;0.9984;-0.3048;-0.3440;-0.3681
0000420592;5.7437;2.7438;0.7470;-0.3277;-0.3758;-0.2903
0000420601;5.9640;2.5953;0.6345;-0.3497;-0.4093;-0.2399
0000420610;5.8299;2.3176;0.6560;-0.3513;-0.4389;-0.2013
0000420619;5.3702;1.9848;0.6369;-0.3433;-0.4714;-0.1700
0000420628;5.3726;1.8483;0.6823;-0.3130;-0.5121;-0.1456
0000420637;5.2026;1.6616;0.6680;-0.2575;-0.5645;-0.1452
0000420646;5.1140;1.5467;0.6225;-0.1989;-0.6022;-0.1315
0000420655;4.9991;1.5754;0.4764;-0.1184;-0.6631;-0.1414
0000420664;5.0470;1.6712;0.4070;-0.0652;-0.6979;-0.1375
0000420673;5.2050;1.9609;0.4214;-0.0112;-0.7488;-0.1494
0000420682;5.1739;2.2769;0.3759;0.0145;-0.7721;-0.1390
0000420691;5.1068;2.3511;0.3783;0.0348;-0.8111;-0.1336
0000420700;5.3223;2.5690;0.3256;0.0501;-0.8252;-0.1132
0000420709;5.2218;2.7150;0.2418;0.0640;-0.8567;-0.1013
0000420718;5.6000;2.9066;0.2921;0.0693;-0.8637;-0.0743
0000420727;5.6719;3.0837;0.3304;0.0783;-0.8667;-0.0771
0000420736;5.6599;3.1747;0.4860;0.1057;-0.8671;-0.1118
0000420745;5.5043;3.0718;0.6033;0.1207;-0.8576;-0.1935
0000420754;5.4061;3.0215;0.4429;0.1134;-0.8310;-0.1996
0000420763;5.3056;2.5283;0.5315;0.1260;-0.8287;-0.2200
0000420772;5.2768;2.1572;0.5578;0.1769;-0.8163;-0.2033
0000420781;5.3247;2.0590;0.3998;0.2318;-0.8120;-0.1816
0000420790;5.4324;2.1644;0.3017;0.2954;-0.8130;-0.1655
0000420799;5.4157;2.2338;0.2801;0.3489;-0.8066;-0.1580
0000420808;5.1787;2.2338;0.4262;0.3826;-0.7907;-0.1511
0000420817;5.2385;2.6025;0.6440;0.4017;-0.7866;-0.1612
0000420905;6.2608;4.7405;4.1061;-0.1214;-0.4547;-0.8396
0000420914;5.1858;3.6512;4.5059;-0.1704;-0.4680;-0.8155
0000420923;4.6591;2.6815;4.7285;-0.1272;-0.5213;-0.7332
0000420932;4.6567;2.1620;4.5035;-0.0300;-0.5661;-0.5840
0000420941;5.1595;1.9034;4.1707;0.0613;-0.6023;-0.3786
0000420950;6.4596;2.0686;3.9816;0.1158;-0.6258;-0.1628
0000420959;7.7381;2.2314;3.8786;0.1330;-0.6043;0.0317
0000420968;8.8346;2.6480;3.7804;0.1119;-0.5670;0.1943
0000420977;9.5409;2.7797;3.5338;0.0769;-0.5255;0.2911
0000420986;9.8785;2.8491;3.4453;0.0145;-0.4783;0.3429
0000420995;9.5481;2.5666;3.3471;-0.0609;-0.4207;0.3516
0000421004;9.0884;2.3990;3.1053;-0.0902;-0.3728;0.3039
0000421013;8.5018;2.0327;2.9975;-0.0819;-0.3083;0.2354
0000421022;7.9751;1.9154;2.6312;-0.0414;-0.2690;0.1500
0000421031;7.8386;2.0016;2.2434;-0.0067;-0.2547;0.1051
0000421040;8.0613;2.1763;1.9920;0.0079;-0.2389;0.1061
0000421049;8.0086;2.2889;1.7933;0.0216;-0.2402;0.1474
0000421058;8.6095;2.8946;1.6879;0.0432;-0.2157;0.2046
0000421067;8.5784;3.0047;1.6951;0.0621;-0.1929;0.2810
0000421076;8.8107;3.3998;1.6712;0.0771;-0.1510;0.3468
0000421085;8.4874;3.5554;1.5826;0.0678;-0.0922;0.4057
0000421094;8.5832;3.6895;1.6281;0.0460;-0.0401;0.4398
0000421103;8.2672;3.5650;1.7142;0.0057;0.0059;0.4409
0000421112;8.0613;3.5554;1.7358;-0.0306;0.0354;0.4162
0000421121;7.6806;3.2777;1.8627;-0.0759;0.0510;0.3813
0000421130;7.5705;3.0718;1.8076;-0.1071;0.0318;0.3397
0000421139;7.0773;2.9640;1.8244;-0.1292;0.0029;0.3067
0000421148;6.9839;2.9353;1.8244;-0.1564;-0.0372;0.2722
0000421157;6.6822;2.8443;1.8723;-0.1807;-0.0879;0.2373
0000421166;6.6439;2.9137;1.7909;-0.2114;-0.1320;0.2140
0000421175;6.6535;2.7031;1.6712;-0.2214;-0.1840;0.1931
0000421184;6.6319;2.7198;1.5993;-0.2276;-0.2330;0.1744
0000421193;6.9216;2.6719;1.4581;-0.2169;-0.2691;0.1625
0000421202;6.9576;2.6384;1.3240;-0.2142;-0.2918;0.1515
0000421211;7.1922;2.6121;1.2713;-0.2008;-0.3256;0.1428
0000421220;7.1204;2.6935;1.1253;-0.1813;-0.3419;0.1215
0000421229;7.1275;2.5929;1.1444;-0.1697;-0.3468;0.1106
0000421238;7.2640;2.7557;1.0463;-0.1620;-0.3513;0.0903
0000421247;7.3765;2.8084;0.9720;-0.1545;-0.3572;0.0673
0000421256;7.4508;2.9113;1.0175;-0.1543;-0.3675;0.0510
0000421265;7.5130;2.9377;0.9792;-0.1644;-0.3553;0.0370
0000421274;7.4508;2.8946;0.9529;-0.1773;-0.3512;0.0169
0000421283;7.9272;3.1101;0.9290;-0.2034;-0.3448;0.0021
0000421292;7.8290;2.9975;1.0008;-0.2344;-0.3254;-0.0230
0000421301;7.9871;3.0885;1.0367;-0.2601;-0.3011;-0.0417
0000421310;7.9272;2.8970;1.0367;-0.2878;-0.2659;-0.0610
0000421319;7.8266;2.8108;1.0008;-0.2990;-0.2346;-0.0830
0000421328;7.9033;2.6719;0.9457;-0.3115;-0.1781;-0.0825
0000421337;7.9799;2.6863;0.9529;-0.2914;-0.1364;-0.0893
0000421346;8.1211;2.5402;0.8571;-0.2706;-0.0710;-0.0759
0000421355;8.3701;2.7102;0.8284;-0.2389;-0.0189;-0.0774
0000421364;8.5617;2.7007;0.7135;-0.2122;0.0512;-0.0550
0000421373;8.4396;2.7438;0.7470;-0.1845;0.1128;-0.0478
0000421382;8.6550;3.0119;0.8021;-0.1608;0.1871;-0.0330
0000421391;8.3534;2.9544;0.8523;-0.1527;0.2553;-0.0191
0000421400;8.3294;3.0622;0.8092;-0.1463;0.3220;-0.0060
0000421409;8.0589;2.9209;0.7470;-0.1296;0.3738;-0.0071
0000421418;7.8769;2.7557;0.6800;-0.1262;0.4278;-0.0025
0000421427;7.8626;2.5163;0.6369;-0.1104;0.4553;-0.0149
0000421436;7.4603;2.3894;0.5339;-0.0889;0.4738;-0.0225
0000421445;7.4723;2.4205;0.4477;-0.0608;0.4820;-0.0380
0000421454;7.3909;2.4062;0.3615;-0.0380;0.4883;-0.0340
0000421463;7.3981;2.4062;0.4334;-0.0191;0.4754;-0.0462
0000421472;7.2951;2.3631;0.3974;-0.0068;0.4656;-0.0558
0000421481;7.1563;2.3846;0.2251;0.0001;0.4539;-0.0586
0000421490;7.3023;2.5594;0.3376;0.0055;0.4373;-0.0685
0000421499;7.1443;2.5546;0.3519;0.0125;0.4145;-0.0747
0000421508;7.3885;2.8419;0.2346;0.0079;0.4032;-0.0715
0000421517;7.2640;2.7677;0.2945;0.0057;0.3770;-0.0790
0000421526;7.2281;2.9473;0.4836;-0.0055;0.3493;-0.0866
0000421535;7.4244;2.9592;0.5483;-0.0183;0.3320;-0.0834
0000421544;7.3694;2.8778;0.6369;-0.0217;0.3030;-0.0922
0000421553;7.3574;2.7581;0.6273;-0.0332;0.2932;-0.0977
0000421640;7.6567;3.6799;1.7238;0.0814;0.2968;-0.0883
0000421649;7.0964;4.0223;2.1739;0.0886;0.2682;-0.0185
0000421658;6.8809;4.2449;2.5642;0.0939;0.2300;0.0644
0000421667;6.3997;4.5586;3.0478;0.0806;0.1761;0.1579
0000421676;5.9209;4.4197;3.6440;0.0985;0.0663;0.2352
0000421685;5.6048;4.7908;4.2976;0.1512;-0.0638;0.3359
0000421694;5.3271;5.1308;4.4197;0.2578;-0.2086;0.4462
0000421703;4.9656;5.5067;3.7541;0.3758;-0.3223;0.5372
0000421712;4.8339;5.7221;3.4405;0.4165;-0.3937;0.6017
0000421721;4.6950;5.5091;3.7685;0.3862;-0.4962;0.6105
0000421730;5.4947;5.0398;3.5745;0.3632;-0.5993;0.6002
0000421739;6.8929;4.0558;2.9449;0.3409;-0.6305;0.5490
0000421748;8.3797;2.9856;2.8467;0.3316;-0.5989;0.4443
0000421757;9.7636;2.3894;2.6671;0.3616;-0.5149;0.3102
0000421766;10.6638;1.8340;2.4565;0.4094;-0.3974;0.1772
0000421775;11.1402;1.7166;2.2601;0.4355;-0.2494;0.0300
0000421784;11.1043;1.7957;2.1284;0.3968;-0.0558;-0.1151
0000421793;10.7500;2.0590;2.2170;0.3263;0.1140;-0.2417
0000421802;9.9838;2.2865;2.3727;0.2266;0.2586;-0.2983
0000421811;9.2991;2.6288;2.5163;0.1246;0.3592;-0.3143
0000421820;8.2815;2.6959;2.7150;0.0097;0.4393;-0.2848
0000421829;7.4531;2.5426;2.8252;-0.1122;0.5072;-0.2134
0000421838;6.8354;2.5402;3.1101;-0.1943;0.5336;-0.1346
0000421847;6.1842;2.3798;3.3279;-0.2309;0.5228;-0.0462
0000421856;5.6790;1.9537;3.5889;-0.2189;0.4790;0.0304
0000421865;5.0039;1.7980;3.3806;-0.2009;0.4241;0.0999
0000421874;4.4245;1.8675;3.3519;-0.1732;0.3427;0.1348
0000421883;4.0893;2.1069;3.2657;-0.1466;0.2570;0.1430
0000421892;3.8642;2.6288;3.3112;-0.1204;0.1667;0.1250
0000421901;3.7038;2.8874;3.2250;-0.0874;0.0730;0.0906
0000421910;4.1396;3.4189;3.1101;-0.0593;-0.0140;0.0233
0000421919;4.7405;3.5506;3.0263;-0.0304;-0.0935;-0.0586
0000421928;5.4253;3.4907;2.8132;-0.0088;-0.1568;-0.1455
0000421937;6.0406;3.3064;2.6001;-0.0013;-0.1892;-0.2140
0000421946;6.4548;2.8898;2.4397;0.0282;-0.2202;-0.2855
0000421955;6.5601;2.5067;2.2577;0.0679;-0.2345;-0.3361
0000421964;6.3422;2.3128;2.2913;0.1184;-0.2398;-0.3657
0000421973;6.2704;2.0016;2.1715;0.1756;-0.2467;-0.3989
0000421982;6.1699;2.0806;2.0327;0.2064;-0.2337;-0.4149
0000421991;6.1292;2.3966;1.8435;0.2364;-0.2312;-0.4437
0000422000;6.0047;2.7414;1.7262;0.2521;-0.2240;-0.4636
0000422009;5.9520;2.9042;1.7741;0.2550;-0.2172;-0.4748
0000422018;5.8945;3.2633;1.5083;0.2360;-0.2133;-0.4670
0000422027;6.0980;3.6272;1.4437;0.2058;-0.2237;-0.4574
0000422036;5.7509;3.6320;1.3982;0.1284;-0.2177;-0.4418
0000422045;5.8826;3.7565;1.3671;0.0498;-0.2042;-0.4198
0000422054;5.8921;3.7014;1.3623;-0.0224;-0.1955;-0.4108
0000422063;5.9831;3.6176;1.3791;-0.0862;-0.1837;-0.3864
0000422072;6.0478;3.3112;1.2019;-0.1402;-0.1749;-0.3613
0000422081;6.0669;2.8515;1.1516;-0.1839;-0.1641;-0.3291
0000422090;6.1052;2.5714;0.9050;-0.1998;-0.1569;-0.2927
0000422099;6.2034;2.4397;0.6608;-0.1993;-0.1492;-0.2546
0000422108;6.1435;2.2505;0.6129;-0.1824;-0.1435;-0.2192
0000422117;6.0094;2.1979;0.4405;-0.1523;-0.1516;-0.1811
0000422126;5.7964;2.1691;0.4070;-0.1252;-0.1723;-0.1336
0000422135;5.8012;2.1859;0.3089;-0.0993;-0.1904;-0.0917
0000422144;5.8083;2.3128;0.2538;-0.0887;-0.2116;-0.0449
0000422153;5.6623;2.3870;0.1915;-0.0646;-0.2445;-0.0060
0000422162;5.6264;2.5857;0.2251;-0.0671;-0.2770;0.0478
0000422171;5.7652;2.7581;0.2801;-0.0654;-0.3111;0.0991
0000422180;6.0166;2.8467;0.3759;-0.0625;-0.3440;0.1298
0000422189;6.2656;2.8299;0.4405;-0.0727;-0.3627;0.1607
0000422198;6.5170;2.7821;0.4717;-0.0901;-0.3696;0.1840
0000422207;6.9671;2.7509;0.3998;-0.0974;-0.3789;0.1962
0000422216;7.0557;2.5498;0.1269;-0.1112;-0.3750;0.2230
0000422225;6.9240;2.4373;-0.0431;-0.1019;-0.3852;0.2361
0000422234;6.5721;2.1404;-0.1556;-0.0926;-0.3858;0.2591
0000422243;6.1914;2.1739;-0.0742;-0.0640;-0.3972;0.2651
0000422252;5.6455;2.2745;-0.0359;-0.0366;-0.4090;0.2575
0000422261;5.4157;2.2769;0.0192;-0.0088;-0.4273;0.2485
0000422270;5.1858;2.5211;-0.0958;0.0308;-0.4706;0.2289
0000422279;4.9895;2.6001;-0.2203;0.0666;-0.5100;0.2164
0000422288;5.0182;2.7773;-0.3591;0.1086;-0.5540;0.1897
0000422374;4.6615;3.6919;1.1827;0.0670;-0.8804;-0.1436
0000422383;4.8076;4.2162;1.9872;0.0468;-0.9033;-0.1544
0000422392;5.7868;5.2553;3.0239;0.0814;-0.9542;-0.2093
0000422401;7.4555;7.1012;4.2234;0.2133;-0.9570;-0.3351
0000422410;9.2392;8.9998;4.3934;0.3912;-0.9020;-0.5694
0000422419;10.8601;10.3717;3.6344;0.3790;-0.7858;-0.8358
0000422428;11.7938;10.5417;3.3615;0.1434;-0.6110;-1.0541
0000422437;11.3246;8.7963;4.1970;-0.0946;-0.3279;-1.2636
0000422446;8.7340;5.8323;3.8259;-0.2839;-0.0751;-1.3182
0000422455;6.7014;3.0646;3.6943;-0.2914;0.0441;-1.1485
0000422464;5.4085;1.6257;3.7900;-0.1295;0.0398;-0.8851
0000422473;4.6160;0.8691;3.7469;0.0727;-0.0128;-0.5680
0000422482;4.5346;0.8236;3.4165;0.1781;-0.0757;-0.2297
0000422491;4.7166;0.8739;3.1819;0.1479;-0.1460;0.0874
0000422500;4.9536;0.4980;3.0239;0.0144;-0.2034;0.3299
0000422509;5.3032;0.1125;2.6312;-0.1410;-0.2823;0.4803
0000422518;5.5426;-0.4645;2.5809;-0.2395;-0.3738;0.5617
0000422527;5.9089;-0.8930;2.4493;-0.2749;-0.4930;0.5632
0000422536;6.0956;-1.0032;2.4780;-0.2685;-0.5941;0.5056
0000422545;6.3901;-0.9697;2.6863;-0.2258;-0.6506;0.3748
0000422554;6.9097;-0.4142;3.0047;-0.1540;-0.6857;0.1783
0000422563;7.6662;0.6560;3.1053;-0.0502;-0.6872;-0.0442
0000422572;8.2121;1.6951;3.1484;0.0254;-0.6719;-0.2501
0000422581;9.1746;3.0622;3.0861;0.0417;-0.6239;-0.4084
0000422590;10.0341;4.5346;2.9904;0.0366;-0.5476;-0.5201
0000422599;10.8338;5.6767;2.7246;-0.0326;-0.4430;-0.5597
0000422608;10.6949;5.7772;2.3750;-0.1396;-0.3305;-0.5513
0000422617;10.5273;5.7174;1.9417;-0.2890;-0.1899;-0.4595
0000422626;9.7037;4.9416;1.9010;-0.3990;-0.0622;-0.3231
0000422635;8.8035;3.8523;2.0853;-0.4241;0.0405;-0.1496
0000422644;8.0230;2.9951;2.2170;-0.3317;0.1011;0.0334
0000422653;7.1443;2.1979;2.1739;-0.2090;0.1507;0.1933
0000422662;6.5027;1.8890;2.1284;-0.0774;0.1596;0.2926
0000422671;6.1244;2.2936;2.3200;0.0152;0.1279;0.3652
0000422680;6.2249;2.5929;2.3703;0.0432;0.0730;0.4029
0000422689;6.0501;2.8299;2.3631;0.0432;0.0007;0.4122
0000422698;6.4739;3.2585;2.5977;0.0125;-0.0649;0.4033
0000422707;6.7229;3.6943;2.5091;-0.0333;-0.1267;0.3758
0000422716;6.9599;3.9313;2.4828;-0.1088;-0.1575;0.3371
0000422725;7.2832;3.8379;2.3200;-0.1837;-0.1841;0.3202
0000422734;7.5202;3.6679;2.1261;-0.2417;-0.1980;0.2976
0000422743;7.9080;3.4117;2.0207;-0.2946;-0.1933;0.2805
0000422752;8.0661;3.0119;2.0566;-0.3222;-0.1932;0.2478
0000422761;7.9727;2.4014;1.8531;-0.3401;-0.1776;0.2356
0000422770;7.8362;2.2529;1.8028;-0.3461;-0.1592;0.2274
0000422779;7.7548;2.0518;1.5730;-0.3315;-0.1442;0.2236
0000422788;7.6064;1.8866;1.6975;-0.3226;-0.1115;0.2244
0000422797;7.2305;1.6305;1.4676;-0.2844;-0.1015;0.2138
0000422806;7.0509;1.6664;1.3096;-0.2531;-0.0746;0.2132
0000422815;7.0964;1.7885;1.2665;-0.2082;-0.0613;0.1923
0000422824;7.0509;1.9609;1.1612;-0.1740;-0.0404;0.1667
0000422833;7.3287;2.1596;1.1516;-0.1431;-0.0246;0.1324
0000422842;7.5585;2.4229;1.1827;-0.1230;0.0057;0.1085
0000422851;7.7021;2.6193;1.1444;-0.1166;0.0460;0.0874
0000422860;7.8841;2.8180;1.0654;-0.1172;0.0873;0.0674
0000422869;8.2863;2.9951;0.9744;-0.1284;0.1416;0.0494
0000422878;8.1930;2.7916;0.9912;-0.1408;0.2056;0.0482
0000422887;8.2576;2.8539;0.8499;-0.1327;0.2575;0.0348
0000422896;8.0182;2.5570;0.8404;-0.1348;0.3180;0.0366
0000422905;8.0421;2.6600;0.8356;-0.1195;0.3695;0.0292
0000422914;7.8650;2.5594;0.6800;-0.0949;0.4313;0.0345
0000422923;7.8410;2.6576;0.7039;-0.0687;0.4792;0.0221
0000422932;7.6543;2.7366;0.5531;-0.0552;0.5257;0.0152
0000422941;7.4675;2.7294;0.5938;-0.0464;0.5578;0.0008
0000422950;7.3717;2.7605;0.4908;-0.0426;0.5954;-0.0139
0000422959;7.4603;2.7964;0.4405;-0.0408;0.6275;-0.0297
0000422968;7.5561;2.7629;0.1867;-0.0337;0.6534;-0.0438
0000422977;7.6662;2.6480;0.1844;-0.0204;0.6773;-0.0596
0000422986;7.5920;2.6576;0.1772;-0.0136;0.6969;-0.0693
0000422995;7.4651;2.5570;0.1891;0.0005;0.7104;-0.0763
0000423004;7.3430;2.4157;0.2107;0.0113;0.7164;-0.0641
0000423013;7.4124;2.3942;0.1508;0.0192;0.7173;-0.0610
0000423022;7.1682;2.4948;0.1077;0.0429;0.7053;-0.0569
0000423031;6.9192;2.3727;0.1915;0.0560;0.6963;-0.0466
0000423119;6.6846;3.2250;1.1037;0.0449;0.3854;-0.0763
0000423128;6.6463;3.3279;1.2665;0.0484;0.3428;-0.0444
0000423137;6.3901;3.2920;1.6712;0.0504;0.3016;0.0084
0000423146;6.2680;3.5051;2.4277;0.0753;0.2463;0.0671
0000423155;5.9424;3.7230;3.2705;0.0789;0.1872;0.1619
0000423164;5.5545;4.5083;3.8211;0.0877;0.0910;0.2677
0000423173;5.0206;4.9129;3.8642;0.1295;-0.0360;0.4074
0000423182;4.6352;5.2720;3.9504;0.1800;-0.1440;0.5680
0000423191;4.1539;5.1356;3.4069;0.2646;-0.2006;0.7085
0000423200;4.4269;4.6208;3.6871;0.3084;-0.2337;0.8120
0000423209;5.3678;4.0606;3.7876;0.3112;-0.2836;0.8604
0000423218;6.9528;3.2729;2.9664;0.3467;-0.3163;0.8763
0000423227;8.7532;2.5618;2.3224;0.3878;-0.2864;0.8517
0000423236;10.0221;2.2649;2.4493;0.4065;-0.2053;0.7706
0000423245;10.8098;2.4181;2.5833;0.4182;-0.1046;0.6231
0000423254;11.5065;2.9090;2.5857;0.4177;0.0340;0.4419
0000423263;11.6478;3.5267;2.6863;0.3714;0.1981;0.2401
0000423272;11.0373;3.8164;2.7605;0.3050;0.3463;0.0452
0000423281;10.4627;3.8547;2.9592;0.2133;0.4835;-0.0830
0000423290;9.3877;3.8020;2.9329;0.1315;0.5681;-0.1643
0000423299;8.2744;3.4381;3.0095;0.0630;0.6322;-0.1901
0000423308;7.2401;2.9281;3.0287;0.0075;0.6604;-0.1787
0000423317;6.4093;2.9281;3.1340;-0.0432;0.6495;-0.1555
0000423326;5.6551;2.6025;3.2082;-0.0758;0.6005;-0.1212
0000423335;5.1739;2.2386;3.2417;-0.0957;0.5380;-0.0999
0000423344;4.6424;2.2027;3.4333;-0.1114;0.4499;-0.0798
0000423353;4.3718;2.1835;3.4333;-0.1184;0.3649;-0.0741
0000423362;4.0845;2.1308;3.3351;-0.1256;0.2839;-0.0858
0000423371;4.0893;2.3176;3.1771;-0.1359;0.2062;-0.1235
0000423380;4.0677;2.4086;3.1843;-0.1559;0.1478;-0.1515
0000423389;4.2808;2.4301;3.2058;-0.1632;0.0946;-0.1816
0000423398;4.8554;2.4804;3.2585;-0.1510;0.0456;-0.2080
0000423407;5.7317;2.8252;3.1675;-0.1423;0.0305;-0.2190
0000423416;6.1316;2.8515;3.0119;-0.1082;0.0197;-0.2294
0000423425;6.7828;2.9760;2.7677;-0.0901;0.0340;-0.2360
0000423434;7.1419;3.0430;2.7150;-0.0918;0.0741;-0.2294
0000423443;7.2113;2.9808;2.4517;-0.0885;0.1171;-0.2365
0000423452;7.0868;2.7605;2.2721;-0.1010;0.1612;-0.2294
0000423461;6.9168;2.7629;2.3942;-0.1114;0.2066;-0.2260
0000423470;6.6176;2.7845;2.3631;-0.1002;0.2284;-0.2332
0000423479;6.2896;2.7461;2.1739;-0.0990;0.2483;-0.2305
0000423488;6.1028;2.9975;2.1620;-0.0898;0.2422;-0.2389
0000423497;5.5905;2.8706;2.2122;-0.0991;0.2385;-0.2413
0000423506;5.5569;3.1244;2.0734;-0.1006;0.2182;-0.2655
0000423515;5.4540;2.9760;1.9489;-0.1195;0.2002;-0.2762
0000423524;5.3127;2.9808;1.8699;-0.1418;0.1620;-0.2928
0000423533;5.2170;3.0358;1.7406;-0.1708;0.1367;-0.2915
0000423542;5.0470;3.0071;1.7813;-0.1948;0.0965;-0.2979
0000423551;4.9033;2.7964;1.7142;-0.2232;0.0721;-0.2935
0000423560;4.8459;2.7988;1.7382;-0.2437;0.0332;-0.2851
0000423569;5.0135;2.7509;1.7693;-0.2561;0.0020;-0.2738
0000423578;4.8698;2.7845;1.6831;-0.2562;-0.0322;-0.2590
0000423587;5.1020;2.8635;1.6137;-0.2487;-0.0715;-0.2514
0000423596;5.1595;2.6073;1.4437;-0.2435;-0.1039;-0.2249
0000423605;5.1284;2.6360;1.2163;-0.2374;-0.1370;-0.2072
0000423614;5.2888;2.4445;1.0822;-0.2336;-0.1711;-0.1812
0000423623;5.2864;2.4253;0.9625;-0.2181;-0.2094;-0.1624
0000423632;5.2457;2.2697;0.8954;-0.2161;-0.2332;-0.1315
0000423641;5.2433;2.2027;0.8691;-0.2012;-0.2781;-0.1045
0000423650;5.4396;2.1715;0.8619;-0.1853;-0.3122;-0.0729
0000423659;5.6336;2.1596;0.8739;-0.1557;-0.3505;-0.0373
0000423668;5.8347;2.1907;0.8284;-0.1232;-0.3928;0.0001
0000423677;5.9472;2.0877;0.6871;-0.1029;-0.4275;0.0378
0000423686;5.9783;2.0758;0.5842;-0.0807;-0.4600;0.0733
0000423695;6.2560;2.2386;0.5794;-0.0770;-0.4799;0.1162
0000423704;6.4404;2.3080;0.5315;-0.0682;-0.5175;0.1436
0000423713;6.2177;2.1859;0.4860;-0.0624;-0.5352;0.1696
0000423722;5.9831;2.1524;0.4932;-0.0417;-0.5700;0.1761
0000423731;5.7916;2.1213;0.4070;-0.0132;-0.5915;0.1823
0000423740;5.7557;2.1859;0.4118;0.0288;-0.6197;0.1700
0000423749;5.8275;2.2769;0.4788;0.0718;-0.6408;0.1697
0000423758;5.9185;2.3487;0.6416;0.1108;-0.6548;0.1635
0000423767;6.0525;2.4948;0.6488;0.1627;-0.6622;0.1620
0000423855;4.7740;2.9880;-0.0766;0.4189;-0.7521;-0.0021
0000423864;4.5921;3.6057;0.3089;0.4298;-0.8086;-0.0338
0000423873;4.4819;4.1180;0.5602;0.4487;-0.8677;-0.0775
0000423882;4.8698;5.1930;1.0534;0.4430;-0.9192;-0.1438
0000423891;5.5282;5.9472;2.0662;0.3914;-0.9370;-0.2130
0000423900;6.1004;6.5074;2.8994;0.3367;-0.9176;-0.3118
0000423909;6.6750;6.8618;3.2034;0.3147;-0.8946;-0.4443
0000423918;7.5178;7.0868;3.0909;0.3039;-0.8446;-0.5834
0000423927;8.6407;7.3837;3.0358;0.2986;-0.7970;-0.7285
0000423936;9.4308;7.1970;3.0406;0.2630;-0.7171;-0.8667
0000423945;9.4858;6.5218;2.9904;0.1880;-0.5653;-0.9823
0000423954;8.5305;5.3103;2.7198;0.0773;-0.3862;-1.0584
0000423963;7.2784;3.9313;3.0358;-0.0025;-0.2487;-1.0459
0000423972;6.2082;2.9090;2.9999;0.0023;-0.1557;-0.9058
0000423981;5.2696;2.0303;2.9808;0.1122;-0.1332;-0.7124
0000423990;4.7597;1.5467;3.1196;0.2244;-0.1386;-0.4576
0000423999;4.8698;1.4796;2.9975;0.2914;-0.1755;-0.1984
0000424008;4.9321;1.3503;2.8515;0.2762;-0.2070;0.0622
0000424017;5.3391;0.9984;2.7653;0.2122;-0.2443;0.2639
0000424026;6.1316;0.8045;2.6552;0.1115;-0.2543;0.4120
0000424035;6.7301;0.2418;2.5642;0.0394;-0.2561;0.4851
0000424044;7.3574;0.0982;2.6288;-0.0021;-0.2397;0.4951
0000424053;7.7716;-0.2418;2.5426;0.0119;-0.2210;0.4449
0000424062;8.4946;0.1580;2.7533;0.0600;-0.1880;0.3544
0000424071;8.6670;0.5842;2.9185;0.1123;-0.1476;0.2425
0000424080;8.9256;1.4389;3.1053;0.1776;-0.1017;0.1104
0000424089;8.7005;2.1715;3.1795;0.2162;-0.0537;-0.0137
0000424098;8.7604;3.0526;3.2106;0.2102;0.0012;-0.1115
0000424107;8.3845;3.6775;2.9904;0.1792;0.0421;-0.1701
0000424116;7.9966;4.0989;2.8467;0.1236;0.0745;-0.1990
0000424125;7.7357;4.1994;2.5570;0.0561;0.1119;-0.1893
0000424134;7.5274;3.9576;2.3511;0.0176;0.1095;-0.1665
0000424143;7.2544;3.4453;2.0135;0.0068;0.1159;-0.1151
0000424152;7.1323;3.0502;1.9489;0.0229;0.1142;-0.0781
0000424161;7.1706;2.8683;1.7238;0.0428;0.1295;-0.0236
0000424170;7.2712;2.7964;1.6424;0.0853;0.1302;0.0036
0000424179;7.2065;2.8084;1.6161;0.1132;0.1438;0.0322
0000424188;7.2425;3.0670;1.5323;0.1568;0.1637;0.0702
0000424197;7.1204;3.3375;1.6041;0.1687;0.1812;0.1144
0000424206;7.2999;3.8235;1.5634;0.1879;0.1921;0.1596
0000424215;7.1228;3.7972;1.6041;0.1833;0.1924;0.2034
0000424224;7.3287;4.0773;1.7119;0.1661;0.2060;0.2598
0000424233;7.4867;4.1539;1.6376;0.1356;0.2034;0.3118
0000424242;7.5633;4.2928;1.6113;0.1006;0.2026;0.3623
0000424251;7.8123;4.1875;1.6496;0.0596;0.1955;0.4012
0000424260;7.7596;3.9648;1.6113;0.0113;0.1953;0.4349
0000424269;7.8027;3.8140;1.5131;-0.0322;0.1897;0.4335
0000424278;7.5776;3.4237;1.3551;-0.0806;0.1917;0.4225
0000424287;7.5800;3.1388;1.3001;-0.1256;0.1813;0.3917
0000424296;7.5681;2.7653;1.2378;-0.1673;0.1777;0.3684
0000424305;7.4148;2.5738;1.0750;-0.1879;0.1563;0.3292
0000424314;7.4484;2.3774;0.9864;-0.1925;0.1529;0.3028
0000424323;7.2832;2.1332;0.9194;-0.1896;0.1412;0.2686
0000424332;7.0701;1.9249;0.8882;-0.1697;0.1232;0.2454
0000424341;7.1060;2.0016;0.9433;-0.1556;0.1191;0.2300
0000424350;7.3454;2.0399;0.9553;-0.1302;0.1035;0.2109
0000424359;7.3191;2.2817;0.8595;-0.1110;0.1031;0.2013
0000424368;7.2712;2.4277;0.8308;-0.1033;0.1034;0.1875
0000424377;7.1778;2.6504;0.8475;-0.0987;0.0997;0.1644
0000424386;7.3119;2.9353;0.9218;-0.1162;0.1083;0.1435
0000424395;7.5034;3.2633;0.8068;-0.1338;0.1067;0.1132
0000424404;7.3287;3.3615;0.8356;-0.1592;0.1092;0.0745
0000424413;7.2808;3.3495;0.7278;-0.1813;0.1226;0.0384
0000424422;7.1635;3.1508;0.6823;-0.2022;0.1186;-0.0077
0000424431;7.1539;3.0718;0.6488;-0.2230;0.1335;-0.0301
0000424440;7.0773;2.8874;0.5650;-0.2269;0.1359;-0.0488
0000424449;7.3023;2.7605;0.6536;-0.2236;0.1395;-0.0561
0000424458;7.2520;2.7294;0.6129;-0.2092;0.1468;-0.0561
0000424467;7.2377;2.6384;0.4764;-0.1976;0.1565;-0.0557
0000424476;7.5417;2.7605;0.5124;-0.1952;0.1863;-0.0393
0000424485;7.7452;2.8922;0.4429;-0.1869;0.2089;-0.0294
0000424494;7.5776;2.7629;0.4932;-0.1841;0.2342;-0.0250
0000424503;7.7668;2.9856;0.3926;-0.1845;0.2590;-0.0135
0000424512;7.9057;3.0646;0.3615;-0.1713;0.2880;-0.0121
0000424599;7.4005;2.6767;-0.0718;-0.0978;0.6006;-0.0438
0000424608;7.3717;2.5450;0.0670;-0.0982;0.6175;-0.0290
0000424617;7.3813;2.7270;-0.0120;-0.0823;0.6205;-0.0265
0000424626;7.3813;2.6959;0.0000;-0.0767;0.6336;-0.0215
0000424635;7.3646;2.7533;-0.0144;-0.0755;0.6354;-0.0298
0000424644;7.1204;2.4445;-0.0144;-0.0779;0.6443;-0.0352
0000424653;7.3119;2.7366;0.1700;-0.0814;0.6395;-0.0404
0000424662;7.3574;2.6935;0.1915;-0.0842;0.6370;-0.0492
0000424671;7.4555;2.7940;0.3496;-0.0849;0.6410;-0.0400
0000424680;7.4651;2.7438;0.4884;-0.0628;0.6370;-0.0412
0000424689;7.4388;2.6264;0.5507;-0.0298;0.6439;-0.0143
0000424698;7.5513;2.7102;0.6919;0.0021;0.6559;0.0073
0000424707;7.2329;2.8299;0.8164;0.0424;0.6619;0.0386
0000424716;7.4292;3.1460;1.1037;0.0733;0.6735;0.0822
0000424725;7.1132;3.2681;1.3455;0.0997;0.6789;0.1276
0000424734;6.9145;3.7637;1.8028;0.1027;0.6650;0.1949
0000424743;6.5721;4.0366;2.4804;0.0962;0.6346;0.2765
0000424752;6.4739;4.3383;2.6839;0.1224;0.5864;0.3792
0000424761;6.0789;4.5203;2.9951;0.1699;0.5291;0.4806
0000424770;5.5593;4.4197;3.3232;0.2425;0.4766;0.6061
0000424779;5.1906;4.6495;3.0909;0.3849;0.3982;0.7317
0000424788;4.6017;4.7262;2.7725;0.4923;0.3273;0.8743
0000424797;4.8100;4.7908;2.7102;0.5498;0.2125;0.9824
0000424806;5.3726;4.5107;2.3487;0.5373;0.1070;1.0476
0000424815;6.4811;3.9576;1.9872;0.5029;0.0205;1.0292
0000424824;7.7021;3.2753;1.7645;0.4700;-0.0065;0.9296
0000424833;8.8131;2.6863;1.7478;0.4555;-0.0029;0.7364
0000424842;9.6175;2.2889;1.6759;0.4497;0.0342;0.5073
0000424851;10.0293;2.1428;1.5993;0.4222;0.0861;0.2886
0000424860;9.7037;2.1093;1.4150;0.3854;0.1388;0.0733
0000424869;9.3996;2.2984;1.4605;0.3166;0.2090;-0.0705
0000424878;8.7532;2.3296;1.4341;0.2426;0.2557;-0.1637
0000424887;8.1714;2.2410;1.4030;0.1669;0.3150;-0.1953
0000424896;7.5082;2.1141;1.7789;0.1006;0.3738;-0.1824
0000424905;7.3622;2.4086;2.1069;0.0586;0.4108;-0.1454
0000424914;7.3646;2.5522;2.5570;0.0153;0.4551;-0.0966
0000424923;7.6638;2.9233;2.7533;-0.0181;0.4891;-0.0470
0000424932;7.4579;3.2130;3.0742;-0.0410;0.5307;-0.0181
0000424941;7.4077;3.8642;3.2968;-0.0786;0.5688;0.0124
0000424950;7.2568;4.1803;3.3399;-0.1356;0.5975;0.0358
0000424959;6.8690;4.1635;3.4357;-0.2126;0.6263;0.0514
0000424968;6.9456;4.1061;3.1987;-0.2741;0.6422;0.0624
0000424977;6.8043;3.8882;2.9257;-0.3336;0.6643;0.0867
0000424986;6.5194;3.2609;2.6288;-0.3603;0.6742;0.1045
0000424995;6.5050;3.0813;2.3822;-0.3696;0.6744;0.1287
0000425004;6.3422;2.8395;2.2338;-0.3589;0.6643;0.1408
0000425013;6.2010;2.6959;2.0087;-0.3313;0.6456;0.1424
0000425022;6.2369;2.9449;1.9178;-0.2733;0.6171;0.1057
0000425031;6.0358;3.0813;2.0399;-0.2241;0.5849;0.0437
0000425040;6.0980;3.3471;2.0039;-0.1860;0.5494;-0.0183
0000425049;6.1603;3.3495;1.9728;-0.1692;0.5137;-0.0854
0000425058;6.1100;3.3088;1.8411;-0.1511;0.4828;-0.1557
0000425067;6.1699;3.4596;1.8004;-0.1410;0.4501;-0.2225
0000425076;5.9711;3.2920;1.8435;-0.1387;0.4286;-0.2818
0000425085;5.9975;3.3615;1.6855;-0.1431;0.4128;-0.3339
0000425094;5.9664;3.4141;1.6640;-0.1693;0.4117;-0.3585
0000425103;6.0908;3.3303;1.5610;-0.1843;0.4020;-0.3740
0000425112;5.8706;3.1963;1.4653;-0.2178;0.3994;-0.3645
0000425121;6.1603;3.2801;1.4198;-0.2473;0.3961;-0.3464
0000425130;6.0238;3.0119;1.3743;-0.2832;0.3906;-0.3300
0000425139;5.7796;2.7629;1.1971;-0.3064;0.3854;-0.3038
0000425148;5.9687;2.8012;1.1301;-0.3182;0.3683;-0.2954
0000425157;5.8538;2.7031;0.9840;-0.3228;0.3469;-0.2960
0000425166;5.6743;2.6456;1.0439;-0.3303;0.3293;-0.3042
0000425175;5.6719;2.6169;0.8787;-0.3167;0.2991;-0.3132
0000425184;5.6838;2.6169;0.8212;-0.3128;0.2727;-0.3130
0000425193;5.6216;2.5953;0.5962;-0.2960;0.2329;-0.3148
0000425202;5.5378;2.7533;0.7901;-0.3120;0.1875;-0.2956
0000425211;5.3654;2.5115;0.6704;-0.2980;0.1368;-0.2771
0000425220;5.2984;2.5498;0.5842;-0.2928;0.0921;-0.2491
0000425229;5.2864;2.5474;0.3041;-0.2797;0.0208;-0.2122
0000425238;5.0542;2.3774;0.2418;-0.2549;-0.0493;-0.1685
0000425247;4.9967;2.3655;0.1867;-0.2196;-0.1239;-0.1287
0000425256;4.9847;2.2434;0.0622;-0.1780;-0.2005;-0.1022
0000425405;5.2792;4.0007;1.0175;0.4257;-0.6583;0.0282
0000425414;5.2912;4.4963;1.5610;0.4169;-0.6896;-0.0189
0000425423;5.7892;5.1715;1.8651;0.4010;-0.7308;-0.0714
0000425432;6.1459;5.7892;2.4780;0.4021;-0.7798;-0.1636
0000425441;6.9432;6.5242;3.0143;0.4170;-0.8082;-0.2955
0000425450;7.5489;7.2281;3.1460;0.4010;-0.7997;-0.4732
0000425459;8.2720;7.7716;3.5003;0.3084;-0.7488;-0.6692
0000425468;8.2552;7.2137;3.6344;0.1467;-0.6658;-0.8474
0000425477;7.4148;6.0621;3.6607;0.0073;-0.5720;-1.0116
0000425486;6.6295;4.5610;3.6129;-0.0629;-0.4784;-1.1034
0000425495;5.5665;2.9161;3.4955;-0.0691;-0.4162;-1.1266
0000425504;4.9799;1.9130;3.2154;-0.0282;-0.4008;-1.0225
0000425513;4.8147;1.2689;3.1316;0.0390;-0.4254;-0.8346
0000425522;5.1451;0.9816;3.0263;0.1144;-0.4683;-0.5961
0000425531;5.5569;0.8068;3.0287;0.1394;-0.4898;-0.3255
0000425540;6.4835;1.1396;2.9784;0.1359;-0.5137;-0.0913
0000425549;7.0964;1.1636;2.9090;0.0919;-0.5143;0.0969
0000425558;7.7285;1.2091;2.7725;0.0522;-0.5199;0.2102
0000425567;8.0325;0.9553;2.6384;0.0344;-0.5147;0.2549
0000425576;8.0828;1.1301;2.7222;0.0257;-0.4879;0.2577
0000425585;8.0565;1.3264;2.5139;0.0453;-0.4498;0.2012
0000425594;8.0062;1.8627;2.5881;0.0850;-0.4008;0.0998
0000425603;7.7333;2.4301;2.4445;0.1263;-0.3465;-0.0266
0000425612;7.6830;3.0382;2.2913;0.1496;-0.3079;-0.1328
0000425621;7.7788;3.9648;2.2553;0.1454;-0.2665;-0.1931
0000425630;7.8482;4.3646;2.1237;0.1386;-0.2334;-0.2005
0000425639;7.8889;4.5729;1.9872;0.0909;-0.1847;-0.1442
0000425648;7.7668;4.5681;1.7286;0.0452;-0.1367;-0.0754
0000425657;7.8099;4.3024;1.6017;0.0160;-0.0961;0.0151
0000425666;7.5441;3.8020;1.5562;-0.0145;-0.0402;0.1163
0000425675;7.4316;3.6176;1.7071;-0.0132;-0.0148;0.1865
0000425684;7.3717;3.3974;1.8196;-0.0063;0.0173;0.2603
0000425693;7.2281;3.2178;2.0087;0.0269;0.0217;0.3036
0000425702;7.2401;3.1173;2.1596;0.0429;0.0292;0.3403
0000425711;7.0581;3.3255;2.3583;0.0465;0.0124;0.3576
0000425720;7.0629;3.4500;2.3200;0.0171;-0.0113;0.3794
0000425729;6.9073;3.5961;2.3439;-0.0253;-0.0448;0.3893
0000425738;7.0844;3.5267;2.2841;-0.0726;-0.0830;0.3940
0000425747;6.9623;3.3112;2.1237;-0.1198;-0.1212;0.3730
0000425756;6.8977;3.1292;1.9297;-0.1544;-0.1559;0.3480
0000425765;7.0366;3.0526;1.7957;-0.1775;-0.1801;0.3329
0000425774;6.9623;2.8012;1.6233;-0.1887;-0.2073;0.3219
0000425783;7.0366;2.5929;1.4868;-0.1903;-0.2224;0.3107
0000425792;7.0078;2.5283;1.5131;-0.1840;-0.2353;0.3003
0000425801;7.3526;2.5019;1.2258;-0.1829;-0.2270;0.2914
0000425810;7.5776;2.5235;1.2186;-0.1811;-0.2212;0.2734
0000425819;7.4986;2.4373;1.1827;-0.1753;-0.2041;0.2662
0000425828;7.4268;2.4014;1.0582;-0.1777;-0.1804;0.2491
0000425837;7.5896;2.4732;0.9625;-0.1699;-0.1502;0.2268
0000425846;7.6088;2.4157;0.9098;-0.1756;-0.1136;0.2036
0000425855;7.7572;2.4157;0.8619;-0.1784;-0.0747;0.1745
0000425864;7.8410;2.4708;0.7542;-0.1788;-0.0374;0.1416
0000425873;7.8985;2.3942;0.7853;-0.1733;0.0085;0.1207
0000425882;8.0685;2.5379;0.7757;-0.1572;0.0557;0.0933
0000425891;8.0062;2.5570;0.7230;-0.1515;0.0979;0.0773
0000425900;7.8386;2.7031;0.7590;-0.1339;0.1303;0.0616
0000425909;7.8697;2.7294;0.7901;-0.1215;0.1552;0.0509
0000425918;7.7835;2.8323;0.6656;-0.1155;0.1839;0.0433
0000425927;7.6207;2.9281;0.5339;-0.1119;0.2072;0.0389
0000425936;7.6231;3.0047;0.5602;-0.1046;0.2210;0.0306
0000425945;7.7213;2.9592;0.5626;-0.1136;0.2514;0.0270
0000425954;7.8793;3.0167;0.5866;-0.1152;0.2691;0.0128
0000425963;7.6375;2.7102;0.5124;-0.1255;0.2976;0.0003
0000425972;8.0996;2.8587;0.4621;-0.1212;0.3320;-0.0197
0000425981;8.1307;2.6815;0.4429;-0.1186;0.3733;-0.0377
0000425990;8.1523;2.6695;0.3089;-0.1051;0.4066;-0.0654
0000425999;8.1139;2.5139;0.1580;-0.0937;0.4522;-0.0754
0000426008;7.9296;2.4995;0.1053;-0.0733;0.4938;-0.0910
0000426017;8.1092;2.6552;0.0168;-0.0490;0.5375;-0.1005
0000426026;7.9847;2.4924;0.0694;-0.0285;0.5786;-0.0961
0000426035;8.0254;2.5067;0.0263;-0.0073;0.6143;-0.0987
0000426044;7.6926;2.4373;-0.2155;0.0203;0.6455;-0.0986
0000426053;7.7165;2.5905;-0.1413;0.0356;0.6671;-0.0943
0000426062;7.6495;2.7270;-0.0718;0.0457;0.6696;-0.0893
0000426150;7.2640;2.6647;0.8284;-0.0987;0.5097;-0.2196
0000426159;7.2856;2.6193;0.9840;-0.0817;0.5085;-0.2032
0000426168;7.2209;2.8922;1.2210;-0.0641;0.5029;-0.1760
0000426177;7.1802;3.3279;1.9034;-0.0476;0.4874;-0.1390
0000426186;6.7756;3.6583;2.5474;-0.0624;0.4518;-0.0719
0000426195;6.4332;4.2282;2.8730;-0.0749;0.3985;0.0377
0000426204;6.0573;4.6807;2.6863;-0.0578;0.3316;0.1527
0000426213;5.7652;4.8123;2.8371;-0.0517;0.3054;0.2565
0000426222;5.7221;4.5705;3.2034;-0.0498;0.2915;0.3254
0000426231;6.0071;4.3551;3.3208;-0.0116;0.2787;0.3560
0000426240;6.3135;4.4652;3.4644;0.0614;0.2630;0.3804
0000426249;6.5577;4.8483;3.2968;0.1338;0.2598;0.4366
0000426258;6.3279;5.1284;3.1939;0.2182;0.2534;0.5269
0000426267;6.5817;5.3295;2.9137;0.2750;0.2329;0.6301
0000426276;6.9528;5.0206;2.6456;0.2397;0.2244;0.7388
0000426285;7.8171;4.3622;2.4229;0.1725;0.2090;0.7806
0000426294;8.6287;3.3758;2.2338;0.1118;0.2214;0.7365
0000426303;9.4164;2.5450;2.2194;0.0927;0.2718;0.6101
0000426312;9.4834;1.9034;2.1859;0.0985;0.3348;0.4283
0000426321;9.2440;1.6807;1.9632;0.0830;0.4135;0.2305
0000426330;8.8035;1.6209;1.9465;0.0377;0.4762;0.0452
0000426339;7.7476;1.4748;2.0686;-0.0378;0.5337;-0.0890
0000426348;7.0366;1.6448;2.2913;-0.0989;0.5600;-0.1863
0000426357;6.3638;1.8914;2.5522;-0.1539;0.5648;-0.2110
0000426366;5.9065;1.9154;2.7677;-0.1803;0.5597;-0.1812
0000426375;5.4061;1.9130;2.9784;-0.1775;0.5345;-0.1350
0000426384;4.9416;1.9968;3.2130;-0.1741;0.5008;-0.0484
0000426393;4.8315;2.1739;3.2848;-0.1567;0.4626;0.0301
0000426402;4.7309;2.2458;3.4117;-0.1300;0.4078;0.0846
0000426411;4.4963;2.3750;3.8307;-0.1001;0.3512;0.1175
0000426420;4.5873;2.6528;3.8379;-0.0654;0.2884;0.1057
0000426429;4.4221;2.9281;3.7302;-0.0424;0.2270;0.0617
0000426438;4.4891;3.0550;3.7661;-0.0348;0.1759;0.0017
0000426447;4.7956;3.0215;3.5961;-0.0270;0.1311;-0.0592
0000426456;5.0709;2.9904;3.3160;-0.0081;0.0873;-0.1244
0000426465;5.4372;2.9329;3.2106;0.0055;0.0630;-0.1672
0000426474;5.8227;2.8443;2.7845;0.0232;0.0457;-0.2117
0000426483;5.9759;2.7126;2.6671;0.0296;0.0546;-0.2312
0000426492;6.2441;2.7342;2.5067;0.0480;0.0484;-0.2519
0000426501;6.3135;2.6025;2.4684;0.0526;0.0675;-0.2505
0000426510;6.4380;2.7318;2.2577;0.0550;0.0753;-0.2517
0000426519;6.3063;2.8706;2.2098;0.0560;0.0855;-0.2405
0000426528;6.2728;2.9544;2.2601;0.0565;0.0938;-0.2409
0000426537;5.9376;2.8683;2.1332;0.0460;0.1195;-0.2384
0000426546;5.9903;3.3519;2.2146;0.0310;0.1310;-0.2519
0000426555;5.8203;3.2274;2.1596;0.0127;0.1347;-0.2654
0000426562;5.8634;3.4117;2.1548;-0.0300;0.1332;-0.2565
0000426570;5.9448;3.3351;2.2745;-0.0866;0.1312;-0.2397
0000426578;5.7557;3.2537;2.2314;-0.1366;0.1272;-0.2296
0000426586;5.7820;3.1627;2.2410;-0.1849;0.1216;-0.1972
0000426594;5.8251;3.0574;2.1284;-0.2298;0.1271;-0.1747
0000426602;5.7988;2.8252;2.1261;-0.2563;0.1298;-0.1514
0000426610;5.7916;2.7605;2.1404;-0.2737;0.1278;-0.1371
0000426618;5.8897;2.5929;2.1931;-0.2779;0.1271;-0.1294
0000426626;6.0501;2.6624;2.2098;-0.2783;0.1319;-0.1127
0000426634;6.1866;2.5570;2.2290;-0.2739;0.1430;-0.1059
0000426642;6.1818;2.5905;2.1596;-0.2562;0.1482;-0.0970
0000426650;6.1004;2.7102;2.1500;-0.2395;0.1563;-0.0994
0000426658;6.2297;2.7653;2.0710;-0.2382;0.1687;-0.0894
0000426666;6.3446;2.9449;1.9704;-0.2411;0.1725;-0.0833
0000426674;6.1148;2.8683;1.9130;-0.2487;0.1855;-0.0803
0000426682;6.0741;2.8276;1.7214;-0.2451;0.1917;-0.0791
0000426690;5.9376;2.9760;1.6807;-0.2374;0.1908;-0.0841
0000426698;5.6192;2.7916;1.5634;-0.2405;0.1855;-0.0902
0000426706;5.3822;2.9904;1.6185;-0.2398;0.1681;-0.1112
0000426714;5.1787;2.9473;1.7190;-0.2422;0.1527;-0.1215
0000426722;4.9632;3.1196;1.5538;-0.2483;0.1211;-0.1375
0000426730;4.8100;3.3639;1.4964;-0.2494;0.0833;-0.1580
0000426738;4.5610;3.3423;1.5155;-0.2643;0.0414;-0.1829
0000426746;4.5562;3.3615;1.4078;-0.2779;-0.0079;-0.2114
0000426754;4.3981;3.3064;1.4653;-0.2826;-0.0574;-0.2297
0000426762;4.3239;3.2657;1.4916;-0.2908;-0.1138;-0.2545
0000426770;4.1659;3.1580;1.5203;-0.2854;-0.1843;-0.2782
