time;acc_x;acc_y;acc_z;gyro_x;gyro_y;gyro_z
0000644351;-1.8914;-6.0741;4.8171;0.0281;-0.1188;-0.3039
0000644359;-2.3296;-5.9975;4.6926;-0.0133;-0.1047;-0.2663
0000644366;-2.7198;-6.0980;4.7046;-0.0457;-0.1005;-0.2349
0000644374;-2.9951;-6.0118;4.6687;-0.0657;-0.1081;-0.1951
0000644383;-3.1675;-5.9304;4.7046;-0.0879;-0.0978;-0.1300
0000644391;-3.3088;-6.0406;4.5753;-0.0849;-0.1046;-0.0797
0000644403;-3.2944;-6.2656;4.4891;-0.0889;-0.1118;0.0029
0000644411;-3.3040;-6.6391;4.5131;-0.0763;-0.1230;0.0564
0000644479;-1.9178;-6.1770;4.5250;0.0706;-0.2328;0.2637
0000644487;-1.9010;-6.3231;4.4173;0.0671;-0.2334;0.2399
0000644495;-1.8220;-6.3039;4.3622;0.0638;-0.2245;0.2154
0000644507;-1.7741;-6.1268;4.2377;0.0514;-0.2184;0.1600
0000644515;-1.9441;-6.2680;4.2856;0.0336;-0.2193;0.1279
0000644526;-2.2122;-6.2800;4.0845;0.0192;-0.2097;0.0910
0000644534;-2.3200;-6.3470;4.1851;0.0189;-0.2092;0.0777
0000644546;-2.5714;-6.3494;4.2234;0.0316;-0.2124;0.0719
0000644554;-2.8371;-6.5170;4.2329;0.0470;-0.2181;0.0657
0000644565;-2.8228;-6.4212;4.1204;0.0706;-0.2154;0.0553
0000644573;-2.7031;-6.4667;4.0342;0.0797;-0.2001;0.0646
0000644581;-2.6240;-6.3351;3.9145;0.0978;-0.1969;0.0565
0000644593;-2.3008;-6.2489;3.8092;0.1026;-0.1772;0.0585
0000644601;-2.3655;-6.1339;3.7182;0.1061;-0.1671;0.0549
0000644612;-2.1835;-5.8993;3.6559;0.0907;-0.1536;0.0333
0000644620;-2.0973;-5.6240;3.6536;0.0715;-0.1351;0.0213
0000644632;-2.3200;-5.7174;3.6751;0.0378;-0.1155;0.0085
0000644640;-2.3798;-5.6695;3.6296;0.0215;-0.1079;0.0015
0000644651;-2.5019;-5.6982;3.5123;-0.0143;-0.0847;-0.0091
0000644659;-2.4181;-5.7892;3.4955;-0.0281;-0.0835;-0.0330
0000644667;-2.4086;-5.8945;3.5745;-0.0366;-0.0695;-0.0474
0000644679;-2.2458;-5.8179;3.3495;-0.0558;-0.0337;-0.0771
0000644687;-2.1811;-6.0573;3.2465;-0.0697;-0.0061;-0.0867
0000644753;-2.8371;-5.5785;3.0526;-0.1749;0.1218;-0.1186
0000644761;-2.9161;-5.5450;3.0502;-0.1889;0.1135;-0.1238
0000644773;-2.6600;-5.0709;3.3088;-0.1939;0.1138;-0.1123
0000644781;-2.7461;-5.1260;3.2920;-0.1990;0.1192;-0.1043
0000644792;-2.5450;-5.1930;3.3399;-0.2132;0.1368;-0.0839
0000644800;-2.4972;-5.2864;3.3758;-0.2109;0.1551;-0.0654
0000644812;-2.4636;-5.5258;3.4453;-0.2148;0.2009;-0.0207
0000644820;-2.3439;-5.7892;3.4477;-0.2122;0.2164;-0.0052
0000644828;-2.4110;-5.9831;3.2777;-0.2050;0.2487;0.0103
0000644839;-2.4062;-6.0861;3.1149;-0.1816;0.2753;0.0318
0000644847;-2.5690;-5.9568;2.8228;-0.1691;0.2926;0.0518
0000644859;-2.6001;-5.6192;2.5498;-0.1836;0.3044;0.0710
0000644867;-2.9568;-5.1763;2.4349;-0.2000;0.2956;0.0893
0000644878;-3.7445;-4.7190;2.6887;-0.2186;0.2781;0.1592
0000644886;-4.5849;-4.2138;4.0247;-0.1759;0.1876;0.2386
0000644898;-7.0366;-5.7628;5.6360;0.0429;-0.0903;0.4497
0000644906;-7.3191;-7.6351;6.5912;0.1781;-0.1828;0.5428
0000644914;-6.7876;-9.3805;7.4986;0.3511;-0.1843;0.6464
0000644925;-6.1148;-10.9774;7.1347;0.6599;-0.2125;0.8078
0000644933;-5.3032;-11.5424;6.5050;0.8636;-0.2197;0.8952
0000644945;-4.3167;-11.2863;5.5043;1.1165;-0.1131;0.9894
0000644953;-3.0622;-9.0860;4.8554;1.2574;-0.0155;0.9685
0000645021;-2.6743;0.7781;5.0278;-0.1066;0.1780;0.3127
0000645029;-3.7709;-1.1325;5.6216;-0.2747;0.1159;0.2898
0000645041;-4.2569;-5.1930;5.6719;-0.4561;-0.0132;0.2270
0000645049;-4.5729;-7.3813;5.4516;-0.4858;-0.1026;0.2525
0000645060;-4.2545;-9.6007;5.2577;-0.4310;-0.1939;0.3268
0000645068;-3.0981;-10.1035;5.0757;-0.3335;-0.2647;0.3702
0000645076;-1.9489;-9.3661;5.0206;-0.2241;-0.3048;0.3655
0000645088;-0.1604;-7.7620;4.9728;-0.1095;-0.2773;0.2903
0000645096;0.5435;-6.6128;5.0973;-0.0590;-0.2316;0.2349
0000645107;0.6919;-5.5833;5.1715;-0.0236;-0.1675;0.1988
0000645115;0.3160;-5.2074;5.3367;-0.0217;-0.1339;0.1876
0000645127;-0.9026;-5.4300;5.4875;-0.0818;-0.1236;0.1929
0000645135;-1.2426;-5.5905;5.5115;-0.1299;-0.1280;0.2190
0000645146;-1.7645;-6.1339;5.4348;-0.1588;-0.1732;0.2787
0000645154;-2.0375;-6.6846;5.4229;-0.1561;-0.1880;0.3226
0000645162;-2.0830;-7.1898;5.3606;-0.1344;-0.2182;0.3515
0000645174;-2.1883;-7.4915;5.3534;-0.0778;-0.2250;0.3481
0000645182;-2.2817;-7.6591;5.2505;-0.0317;-0.2253;0.3012
0000645193;-2.5570;-7.7021;5.2122;0.0358;-0.1933;0.1912
0000645201;-2.7797;-7.4603;5.0422;0.1015;-0.1757;0.0865
0000645213;-2.8611;-7.2568;4.9632;0.1659;-0.1322;-0.0870
0000645221;-3.0718;-7.1204;4.8171;0.2062;-0.1255;-0.1899
0000645289;-2.4588;-5.2625;4.4388;0.0402;-0.0394;-0.4771
0000645297;-2.4493;-5.5043;4.4005;0.0185;-0.0699;-0.4618
0000645309;-2.3607;-5.8538;4.3048;0.0015;-0.1074;-0.4357
0000645317;-2.5498;-6.4715;4.3838;0.0007;-0.1314;-0.4064
0000645325;-2.3846;-6.4596;4.4508;0.0137;-0.1492;-0.3918
0000645336;-2.2386;-6.3422;4.1875;0.0280;-0.1668;-0.3565
0000645344;-2.1308;-6.4572;4.1324;0.0366;-0.1683;-0.3207
0000645356;-2.0279;-6.2465;4.1180;0.0609;-0.1621;-0.2856
0000645364;-1.9201;-5.9065;4.0438;0.0739;-0.1611;-0.2671
0000645375;-1.8890;-5.7245;3.9744;0.0894;-0.1400;-0.2425
0000645383;-2.1548;-5.8275;3.8882;0.1061;-0.1316;-0.2228
0000645395;-2.0279;-5.4827;3.8044;0.1180;-0.1283;-0.2092
0000645403;-2.3008;-5.5689;3.7350;0.1300;-0.1240;-0.2044
0000645414;-2.5474;-5.9855;3.7086;0.1495;-0.1362;-0.2080
0000645422;-2.3248;-5.8059;3.6033;0.1723;-0.1455;-0.2128
0000645430;-2.3990;-5.9520;3.5458;0.1908;-0.1378;-0.2109
0000645442;-2.3655;-6.1507;3.4931;0.2141;-0.1220;-0.2101
0000645450;-2.2482;-6.0334;3.4668;0.2258;-0.1120;-0.1841
0000645461;-2.3870;-6.0430;3.2848;0.2475;-0.1156;-0.1533
0000645469;-2.3870;-6.0382;3.3208;0.2591;-0.1063;-0.1303
0000645481;-2.4062;-5.9017;3.2417;0.2771;-0.0893;-0.0989
0000645489;-2.4588;-5.9592;3.3279;0.2846;-0.0641;-0.0737
0000645557;-2.8012;-6.4069;3.0574;0.4784;0.0430;-0.0600
0000645565;-2.7701;-6.1004;3.0119;0.5083;0.0354;-0.0729
0000645573;-2.7701;-6.3207;3.1460;0.5367;0.0344;-0.0875
0000645585;-2.9066;-6.3614;3.3184;0.5481;0.0393;-0.0978
0000645593;-2.7366;-6.0908;3.3375;0.5437;0.0330;-0.0994
0000645604;-2.8108;-5.9448;3.5817;0.5227;0.0199;-0.1102
0000645612;-2.5594;-5.5115;3.6679;0.4958;0.0141;-0.1092
0000645624;-2.4684;-5.2840;3.8499;0.4612;0.0003;-0.1152
0000645632;-2.5594;-5.2146;3.8858;0.4189;0.0140;-0.1082
0000645643;-2.5450;-5.2601;3.4261;0.3793;0.0613;-0.1138
0000645651;-2.8204;-5.3989;3.0406;0.3695;0.0866;-0.1294
0000645663;-2.9521;-5.9065;2.6552;0.4001;0.1108;-0.1709
0000645671;-3.2633;-6.3542;2.3846;0.4413;0.1394;-0.2097
0000645679;-3.3375;-6.7732;2.2553;0.5075;0.1556;-0.2565
0000645690;-3.7733;-7.6088;1.9752;0.6102;0.1625;-0.3246
0000645698;-4.0055;-8.0804;1.8220;0.6973;0.1580;-0.3797
0000645710;-4.4484;-8.4252;2.1141;0.8202;0.1168;-0.4636
0000645718;-5.2265;-8.2289;4.2928;0.8243;0.0546;-0.5369
0000645730;-8.2097;-5.2026;5.0350;0.5931;-0.0048;-0.7160
0000645738;-8.2863;-3.0861;4.2114;0.5409;-0.0997;-0.8977
0000645750;-6.3183;-2.2434;5.6934;0.4302;-0.2305;-0.9268
0000645758;-4.8818;-2.6049;7.0461;0.2601;-0.2230;-0.8723
0000645766;-4.2617;-2.5690;7.3454;0.0478;-0.2296;-0.8755
0000645834;0.9864;-11.3006;4.3311;-0.4210;0.4166;-0.5802
0000645842;0.6440;-11.6885;4.0654;-0.2551;0.3481;-0.5203
0000645853;-0.2729;-12.0261;3.9073;0.0207;0.2192;-0.3908
0000645861;-0.7733;-11.8441;4.2665;0.1949;0.1780;-0.3160
0000645873;-0.7757;-8.9543;5.3965;0.4074;0.0833;-0.2514
0000645881;-1.0702;-7.2089;5.5809;0.4656;0.0241;-0.2663
0000645892;-1.5107;-5.2481;5.6934;0.4704;0.0417;-0.3860
0000645900;-1.8627;-3.9935;5.8323;0.4329;0.0857;-0.5107
0000645908;-2.4014;-3.4955;5.8730;0.3704;0.1236;-0.6606
0000645920;-2.4157;-4.4053;5.5522;0.2591;0.0958;-0.8370
0000645928;-1.8890;-5.3056;5.1906;0.2214;0.0242;-0.8962
0000645939;-1.1660;-6.5457;4.9775;0.2014;-0.0317;-0.8948
0000645947;-0.8787;-7.0054;4.9177;0.2005;-0.0167;-0.8500
0000645959;-0.7446;-7.0270;4.8937;0.2446;0.0189;-0.7662
0000645967;-1.3312;-6.8498;4.9416;0.2675;0.0292;-0.7141
0000645978;-1.9513;-6.2345;4.8602;0.2597;0.0218;-0.6564
0000645986;-2.2386;-5.7245;4.8004;0.2301;0.0069;-0.6338
0000645998;-3.0933;-5.5067;4.6567;0.1708;0.0003;-0.5708
0000646006;-3.5650;-5.6264;4.6855;0.1426;-0.0080;-0.5167
0000646014;-3.9935;-5.5929;4.6519;0.1158;-0.0425;-0.4438
0000646026;-4.7285;-6.0908;4.8243;0.0753;-0.0814;-0.2690
0000646034;-4.8914;-5.9089;4.8674;0.0456;-0.0991;-0.0951
0000646102;-1.4102;-6.0693;4.4460;-0.3488;-0.1755;0.6732
0000646110;-1.5155;-6.1627;4.2832;-0.3592;-0.1512;0.6567
0000646121;-1.9058;-6.6056;4.1492;-0.3408;-0.1488;0.5897
0000646129;-1.9896;-6.7229;4.1611;-0.3328;-0.1522;0.5317
0000646141;-2.2745;-6.9623;4.0701;-0.2999;-0.1792;0.4318
0000646149;-2.4110;-6.9935;4.0270;-0.2702;-0.2021;0.3781
0000646157;-2.5857;-7.2425;4.0199;-0.2318;-0.2317;0.3242
0000646168;-2.6384;-7.3358;4.0103;-0.1741;-0.2365;0.2757
0000646176;-2.5546;-7.3574;3.9792;-0.1364;-0.2257;0.2541
0000646188;-2.4708;-7.1611;3.8523;-0.0799;-0.2204;0.2312
0000646196;-2.3870;-6.9216;3.7278;-0.0713;-0.2100;0.2121
0000646207;-2.1979;-6.6272;3.7685;-0.0480;-0.1965;0.1841
0000646215;-2.1931;-6.5769;3.7804;-0.0481;-0.1712;0.1733
0000646227;-2.0518;-6.3159;3.7948;-0.0438;-0.1379;0.1577
0000646235;-2.0877;-6.2680;3.7852;-0.0449;-0.1116;0.1430
0000646246;-2.0806;-6.3853;3.6296;-0.0590;-0.0814;0.1234
0000646254;-2.1883;-6.3063;3.6703;-0.0648;-0.0670;0.0963
0000646262;-2.2075;-6.3015;3.6536;-0.0845;-0.0506;0.0787
0000646274;-2.3367;-6.3015;3.6129;-0.0979;-0.0421;0.0561
0000646282;-2.5019;-6.4236;3.5243;-0.1151;-0.0345;0.0446
0000646294;-2.3607;-6.1842;3.4309;-0.1383;-0.0253;0.0334
0000646302;-2.2027;-6.1052;3.4046;-0.1696;-0.0160;0.0281
0000646370;-2.9640;-5.9664;3.2920;-0.3040;0.0621;0.1030
0000646378;-2.9999;-5.9256;3.2896;-0.3195;0.0610;0.1258
0000646389;-3.0215;-5.7868;3.3088;-0.3479;0.0541;0.1402
0000646397;-3.0622;-5.6934;3.2394;-0.3557;0.0486;0.1522
0000646409;-2.7869;-5.3654;3.2777;-0.3882;0.0530;0.1712
0000646417;-2.8850;-5.3534;3.2537;-0.4070;0.0538;0.1727
0000646425;-2.9688;-5.3965;3.2298;-0.4157;0.0486;0.1743
0000646436;-3.0311;-5.4899;3.3064;-0.4474;0.0408;0.1772
0000646444;-3.2250;-5.6383;3.3447;-0.4550;0.0179;0.1695
0000646456;-3.2585;-5.6767;3.2609;-0.4766;0.0099;0.1744
0000646464;-2.9999;-5.6120;3.2322;-0.4935;0.0184;0.1877
0000646475;-2.9975;-5.7652;3.1532;-0.5167;0.0393;0.2192
0000646483;-2.9664;-5.6503;3.1029;-0.5288;0.0719;0.2506
0000646495;-2.9281;-5.5162;2.9521;-0.5661;0.1098;0.2956
0000646503;-3.0909;-5.5761;2.8371;-0.5993;0.1266;0.3308
0000646511;-3.2298;-5.2098;2.7390;-0.6142;0.1316;0.3607
0000646522;-3.2920;-4.9608;2.6432;-0.6568;0.1244;0.3989
0000646530;-3.4213;-4.7142;2.5953;-0.6824;0.1022;0.4198
0000646542;-3.9169;-4.6328;2.4517;-0.7577;0.0746;0.4399
0000646550;-3.9097;-4.5274;2.5235;-0.8068;0.0413;0.4450
0000646562;-5.1619;-4.5059;5.2648;-0.7585;-0.0738;0.4856
0000646570;-7.0701;-6.2656;5.8586;-0.5360;-0.1793;0.5724
0000646638;1.2354;-6.0406;4.4197;0.8996;0.0222;0.4596
0000646646;1.6664;-3.7134;4.5226;0.8043;0.1896;0.3545
0000646654;1.3671;-1.8579;4.7621;0.6691;0.3377;0.3211
0000646665;-0.0192;-0.2466;5.0613;0.4542;0.4755;0.3720
0000646673;-0.9840;0.4621;5.0542;0.2397;0.4878;0.4311
0000646685;-1.9872;0.6584;4.8985;-0.1099;0.3520;0.4016
0000646693;-2.9568;-0.8045;5.2984;-0.3388;0.2442;0.3673
0000646704;-3.5602;-2.9975;5.4947;-0.5786;0.0729;0.3601
0000646712;-3.8954;-4.9321;5.4564;-0.6891;-0.0649;0.3849
0000646720;-3.8762;-6.7924;5.5976;-0.7405;-0.1803;0.4474
0000646732;-3.0071;-8.6239;5.5785;-0.6961;-0.3058;0.5661
0000646740;-2.3343;-8.7388;5.5952;-0.6347;-0.3421;0.6061
0000646751;-0.6201;-7.8841;5.5306;-0.5419;-0.3421;0.5825
0000646759;0.2107;-7.4412;5.5593;-0.4891;-0.2914;0.5397
0000646771;0.8212;-6.8738;5.3893;-0.4178;-0.2077;0.4891
0000646779;0.5339;-6.5050;5.2529;-0.3797;-0.1632;0.4755
0000646790;-0.3280;-6.5673;5.0637;-0.3463;-0.1170;0.4867
0000646798;-0.9122;-6.6822;5.0230;-0.3131;-0.1144;0.4848
0000646810;-1.7023;-6.8929;4.9775;-0.2673;-0.0915;0.4850
0000646818;-2.0710;-6.8618;4.8818;-0.2289;-0.0815;0.4782
0000646826;-2.6671;-7.0342;4.8602;-0.1745;-0.0835;0.4519
0000646838;-3.0382;-6.9576;5.0733;-0.0966;-0.0883;0.3901
0000646846;-3.4261;-7.1730;5.1044;-0.0470;-0.0830;0.3138
0000646914;-2.2314;-5.8897;4.5633;0.1628;-0.0815;-0.5379
0000646922;-1.9848;-5.6312;4.4843;0.1744;-0.0706;-0.5494
0000646933;-2.1069;-5.7078;4.3263;0.1665;-0.0626;-0.5280
0000646941;-2.2505;-5.7748;4.2210;0.1563;-0.0640;-0.4904
0000646953;-2.2529;-5.6264;4.2306;0.1414;-0.0937;-0.4415
0000646961;-2.4038;-5.8682;4.1659;0.1355;-0.1183;-0.4034
0000646972;-2.4014;-5.9280;4.0821;0.1194;-0.1418;-0.3435
0000646980;-2.4181;-5.9783;4.0438;0.1138;-0.1819;-0.3146
0000646988;-2.4900;-5.7652;4.2306;0.1114;-0.2036;-0.2926
0000647000;-2.3056;-5.7844;4.3120;0.1026;-0.2285;-0.2839
0000647008;-2.5091;-5.9280;4.1851;0.0925;-0.2282;-0.2715
0000647019;-2.3200;-5.8251;4.0869;0.0915;-0.2361;-0.2651
0000647027;-2.1907;-5.9807;4.0486;0.0850;-0.2257;-0.2384
0000647039;-2.1763;-6.0406;3.9433;0.0933;-0.2156;-0.2009
0000647047;-2.1117;-5.9664;3.7900;0.1116;-0.2089;-0.1789
0000647058;-1.9896;-5.8730;3.7397;0.1244;-0.1957;-0.1512
0000647066;-2.2913;-6.0094;3.6703;0.1450;-0.1907;-0.1358
0000647078;-2.4900;-6.1842;3.6919;0.1753;-0.2049;-0.1139
0000647086;-2.5091;-6.3087;3.6176;0.1907;-0.2180;-0.1010
0000647094;-2.3320;-6.2728;3.5554;0.2148;-0.2305;-0.0918
0000647106;-2.0973;-6.3207;3.5626;0.2458;-0.2430;-0.0593
0000647114;-2.1524;-6.5314;3.6296;0.2679;-0.2431;-0.0409
0000647182;-2.4660;-5.7964;2.9951;0.5165;-0.0089;-0.0124
0000647190;-2.7007;-5.9113;2.8754;0.5319;0.0179;-0.0437
0000647202;-2.6959;-5.7988;2.9281;0.5481;0.0604;-0.0759
0000647210;-2.5738;-5.7628;2.8970;0.5496;0.0870;-0.0949
0000647221;-2.8036;-5.9017;3.0239;0.5317;0.1156;-0.1070
0000647229;-2.7845;-5.8059;3.1053;0.5181;0.1279;-0.1187
0000647237;-2.9808;-5.9209;3.2154;0.4990;0.1319;-0.1204
0000647249;-2.9113;-5.7988;3.3543;0.4571;0.1346;-0.1180
0000647257;-3.0071;-5.6144;3.4692;0.4298;0.1351;-0.1198
0000647268;-2.8563;-5.5522;3.2753;0.3864;0.1464;-0.1320
0000647276;-2.4181;-5.2433;3.0095;0.3772;0.1720;-0.1387
0000647288;-2.3008;-5.6336;2.5331;0.3834;0.1943;-0.1636
0000647296;-2.1332;-5.8107;2.2362;0.4159;0.2141;-0.1936
0000647307;-2.7701;-6.6798;2.0087;0.4858;0.2815;-0.2415
0000647315;-2.9760;-7.1778;1.8627;0.5621;0.3144;-0.2825
0000647323;-3.1340;-7.3526;1.4844;0.6490;0.3212;-0.3223
0000647335;-3.6727;-7.9727;1.8172;0.7578;0.2980;-0.3956
0000647343;-4.6208;-7.8721;3.9744;0.7582;0.2312;-0.4651
0000647354;-6.9360;-5.1188;4.4293;0.5712;0.1096;-0.6374
0000647362;-7.4005;-3.5338;3.8978;0.4944;0.0300;-0.8095
0000647374;-5.9640;-1.7957;7.3095;0.2807;-0.0991;-0.9927
0000647382;-5.4181;-1.3192;8.8346;-0.0282;-0.1235;-1.0865
0000647450;0.4405;-12.4235;4.3670;-0.7686;0.7155;-0.6947
0000647458;-0.6057;-13.5584;3.9911;-0.5592;0.6753;-0.5830
0000647470;-2.1332;-14.1785;3.8427;-0.1507;0.4069;-0.3317
0000647478;-2.3391;-14.2072;4.4867;0.0886;0.2689;-0.1603
0000647486;-3.1508;-13.4099;5.1787;0.2646;0.1939;-0.0998
0000647497;-2.4373;-9.4116;5.3199;0.4498;-0.0036;-0.0356
0000647505;-2.6145;-7.2185;5.4540;0.5253;-0.0858;-0.0397
0000647517;-2.0542;-4.1515;5.8873;0.5424;-0.0853;-0.1475
0000647525;-1.9848;-3.0071;6.0166;0.4804;-0.0404;-0.2577
0000647536;-1.6137;-2.3367;5.7509;0.3555;-0.0087;-0.4227
0000647544;-0.9697;-3.3902;5.3534;0.2487;-0.0031;-0.4639
0000647556;-0.6967;-5.0111;5.1140;0.1470;-0.0208;-0.4459
0000647564;-0.3974;-5.7844;4.8243;0.0899;-0.0041;-0.4233
0000647575;-0.5171;-6.5817;4.8267;0.0600;0.0344;-0.3706
0000647583;-0.7207;-6.6655;4.8698;0.0605;0.0444;-0.3525
0000647591;-0.7661;-6.3829;4.8937;0.0705;0.0530;-0.3408
0000647603;-0.8835;-5.7748;4.7333;0.0532;0.0703;-0.3483
0000647611;-1.1325;-5.7197;4.4939;0.0258;0.0989;-0.3601
0000647623;-1.4772;-5.4396;4.4293;-0.0240;0.1375;-0.3757
0000647631;-2.1979;-5.4372;4.4867;-0.0725;0.1584;-0.3764
0000647643;-2.8180;-5.3415;4.5394;-0.1320;0.1627;-0.3439
0000647651;-3.6799;-5.3008;4.4580;-0.1601;0.1342;-0.3091
0000647719;-3.3950;-6.7205;4.3311;-0.3762;-0.0793;0.4852
0000647727;-3.3184;-7.0581;4.1587;-0.3556;-0.1026;0.5079
0000647735;-3.0502;-7.0629;4.0989;-0.3313;-0.1224;0.5160
0000647747;-2.6767;-6.8785;4.1252;-0.2948;-0.1595;0.4834
0000647755;-2.3774;-6.6702;4.1946;-0.2751;-0.1775;0.4553
0000647767;-2.1907;-6.7229;4.2138;-0.2551;-0.1972;0.3973
0000647775;-2.0423;-6.7038;4.0677;-0.2510;-0.2110;0.3607
0000647787;-1.9178;-6.4811;4.1372;-0.2481;-0.2181;0.3092
0000647795;-2.1668;-6.5003;4.2042;-0.2429;-0.2216;0.2734
0000647806;-2.4038;-6.4045;4.1372;-0.2361;-0.2466;0.2234
0000647814;-2.7198;-6.3255;4.1587;-0.2306;-0.2538;0.1955
0000647826;-2.8467;-6.5074;4.1731;-0.2177;-0.2774;0.1448
0000647834;-2.9568;-6.6415;4.1132;-0.2106;-0.2978;0.1037
0000647842;-2.6288;-6.7636;3.9528;-0.1974;-0.2972;0.0802
0000647853;-2.5666;-6.9408;3.9409;-0.1860;-0.2745;0.0786
0000647861;-2.4517;-7.0940;3.9433;-0.1727;-0.2562;0.0843
0000647873;-2.2697;-6.8211;3.9600;-0.1635;-0.2293;0.0881
0000647881;-2.1452;-6.6032;3.9097;-0.1605;-0.1982;0.0861
0000647892;-2.1524;-6.1842;3.8355;-0.1711;-0.1671;0.0861
0000647900;-2.1261;-5.9113;3.8379;-0.1927;-0.1412;0.0853
0000647912;-2.5331;-5.9544;3.9217;-0.2226;-0.1206;0.0813
0000647920;-2.5355;-5.8227;3.8810;-0.2409;-0.1242;0.0770
0000647988;-2.5546;-6.2225;3.3327;-0.4060;-0.0189;0.1010
0000647996;-2.7174;-6.2656;3.4046;-0.4229;0.0044;0.1126
0000648004;-2.6432;-6.2273;3.2322;-0.4279;0.0209;0.1134
0000648016;-2.7581;-5.9927;3.1244;-0.4371;0.0414;0.1218
0000648024;-2.8683;-6.0717;3.2825;-0.4383;0.0513;0.1246
0000648035;-3.0143;-6.1076;3.0191;-0.4401;0.0556;0.1331
0000648043;-3.1220;-6.1411;3.0119;-0.4347;0.0461;0.1367
0000648055;-3.2178;-6.1842;3.1891;-0.4251;0.0372;0.1364
0000648063;-3.3279;-6.2584;3.2609;-0.4050;0.0260;0.1338
0000648074;-3.4692;-6.3375;3.1747;-0.3833;0.0108;0.1314
0000648082;-3.4069;-6.4428;3.0837;-0.3672;-0.0036;0.1279
0000648090;-3.6081;-6.3614;3.1891;-0.3508;-0.0169;0.1310
0000648102;-3.3495;-6.4212;3.1484;-0.3284;-0.0529;0.1208
0000648110;-3.3375;-6.3662;3.1101;-0.3090;-0.0771;0.1067
0000648121;-3.0646;-6.0861;3.1699;-0.3003;-0.1022;0.0927
0000648129;-2.7701;-5.8778;3.1340;-0.2996;-0.0926;0.0887
0000648141;-2.6073;-5.9113;3.0406;-0.3030;-0.0749;0.0893
0000648149;-2.5259;-5.8682;3.0358;-0.3134;-0.0406;0.1017
0000648161;-2.5019;-5.8562;2.9209;-0.3347;0.0004;0.1119
0000648169;-2.4780;-5.6910;2.8060;-0.3540;0.0389;0.1311
0000648177;-2.6552;-5.6120;2.7557;-0.3734;0.0673;0.1524
0000648189;-2.5905;-5.3534;2.4445;-0.4010;0.0922;0.1831
0000648197;-2.9880;-5.3846;2.4660;-0.4317;0.1030;0.2096
0000648265;-8.0613;-7.7716;6.7062;-0.0621;-0.3260;0.4527
0000648273;-8.4731;-10.5273;5.5067;0.0572;-0.2276;0.6311
0000648285;-6.2249;-12.9838;4.5969;0.1744;-0.3323;0.6690
0000648293;-3.8164;-11.4994;4.8387;0.3114;-0.5153;0.6179
0000648305;-2.0135;-9.9766;6.2106;0.6061;-0.4529;0.5736
0000648313;-2.5259;-10.2879;6.0478;0.8264;-0.2807;0.6067
0000648325;-2.5355;-8.7939;5.4037;1.0384;-0.1604;0.6339
0000648333;-1.8387;-6.8331;4.9416;1.0541;-0.1609;0.5504
0000648341;-0.6321;-4.6256;4.7645;0.9819;-0.1400;0.4398
0000648353;0.5148;-2.4756;4.6519;0.8104;-0.0157;0.3155
0000648361;0.6752;-1.5802;4.5059;0.6539;0.0730;0.2478
0000648373;-0.1724;-0.9074;4.3838;0.4020;0.1745;0.2301
0000648381;-0.6273;-0.7326;4.2186;0.2473;0.1442;0.2094
0000648392;-1.8675;-1.1037;4.4987;0.0525;0.1179;0.1593
0000648400;-2.2817;-3.1795;4.7597;-0.0679;0.0735;0.1067
0000648408;-2.9305;-5.1691;4.7238;-0.1182;0.0055;0.0763
0000648420;-3.7781;-8.0254;4.8435;-0.0758;-0.0578;0.1174
0000648428;-3.8690;-9.3470;4.7764;0.0187;-0.0959;0.1480
0000648440;-3.3734;-10.0820;4.5107;0.2101;-0.1318;0.1624
0000648448;-2.8443;-9.1219;4.3072;0.3408;-0.1647;0.1104
0000648516;-2.0494;-4.5466;5.0422;0.1545;-0.0737;0.0324
0000648524;-2.0111;-4.9895;5.0685;0.0997;-0.1120;0.0802
0000648536;-2.1308;-5.6719;5.3486;0.0326;-0.1371;0.1632
0000648544;-2.2051;-6.2465;5.3774;0.0180;-0.1600;0.2034
0000648556;-2.2242;-7.1299;5.2672;0.0252;-0.1785;0.2373
0000648564;-2.4253;-7.5657;5.2265;0.0508;-0.1827;0.2344
0000648572;-2.2122;-7.7979;5.0661;0.0903;-0.1929;0.2042
0000648584;-2.0901;-7.8290;4.9632;0.1684;-0.1980;0.1155
0000648592;-1.7837;-7.6662;4.8937;0.2390;-0.1947;0.0380
0000648604;-1.6688;-7.4747;4.6591;0.3353;-0.1755;-0.0404
0000648612;-1.7573;-7.2305;4.5538;0.4016;-0.1427;-0.0694
0000648624;-2.2697;-7.0126;4.4652;0.4987;-0.1058;-0.0994
0000648632;-2.4804;-6.6080;4.3718;0.5601;-0.0793;-0.1227
0000648644;-2.9999;-6.1746;4.3910;0.6069;-0.0613;-0.1655
0000648652;-3.3974;-5.8155;4.2904;0.6153;-0.0581;-0.2034
0000648660;-3.8403;-5.6575;4.3407;0.6191;-0.0602;-0.2593
0000648672;-3.9696;-5.2337;4.4221;0.5947;-0.0781;-0.3660
0000648680;-4.1037;-5.1236;4.4460;0.5702;-0.1055;-0.4321
0000648692;-3.9241;-5.1020;4.5346;0.5196;-0.1561;-0.5291
0000648700;-3.7278;-5.2840;4.4843;0.4747;-0.1888;-0.5720
0000648712;-2.8491;-5.5689;4.5035;0.4322;-0.2352;-0.5978
0000648720;-2.4924;-5.9089;4.4412;0.4170;-0.2527;-0.5961
0000648788;-2.5139;-5.9831;4.0630;0.4791;-0.2430;-0.3880
0000648796;-2.5546;-5.9879;4.2401;0.4691;-0.2582;-0.3722
0000648808;-2.4421;-5.6407;4.1731;0.4574;-0.2599;-0.3483
0000648816;-2.4325;-5.7174;4.2569;0.4415;-0.2497;-0.3246
0000648824;-2.4948;-5.7533;4.0917;0.4337;-0.2382;-0.3211
0000648836;-2.2075;-5.6383;4.0247;0.4199;-0.2258;-0.3015
0000648844;-2.2338;-5.8969;4.0103;0.4246;-0.2212;-0.2940
0000648856;-2.4277;-6.1076;3.8523;0.4243;-0.1944;-0.2715
0000648864;-2.1835;-6.0908;3.8331;0.4313;-0.1825;-0.2585
0000648876;-2.2003;-6.1603;3.6679;0.4441;-0.1661;-0.2478
0000648884;-2.2529;-6.2417;3.6871;0.4518;-0.1475;-0.2276
0000648896;-2.3272;-6.0238;3.5865;0.4702;-0.1375;-0.2124
0000648904;-2.3032;-6.0214;3.5410;0.4792;-0.1383;-0.2049
0000648916;-2.3391;-5.8131;3.4381;0.4979;-0.1443;-0.1891
0000648924;-2.4277;-5.9137;3.5195;0.5016;-0.1378;-0.1683
0000648932;-2.3367;-5.7652;3.4381;0.5064;-0.1311;-0.1503
0000648944;-2.6264;-5.8490;3.3519;0.5176;-0.1208;-0.1208
0000648952;-2.5905;-5.6312;3.2729;0.5148;-0.1152;-0.0986
0000648964;-2.5738;-5.5761;3.2178;0.5068;-0.1123;-0.0855
0000648972;-2.8084;-5.6407;3.3040;0.5031;-0.1034;-0.0790
0000648984;-2.6480;-5.5665;3.3710;0.4926;-0.0878;-0.0771
0000648992;-2.4349;-5.5809;3.3184;0.4756;-0.0592;-0.0694
0000649060;-2.9999;-5.7006;3.3710;0.4525;-0.0588;-0.0961
0000649068;-2.8994;-5.6383;3.2944;0.4655;-0.0893;-0.1019
0000649080;-2.6743;-5.7581;3.3519;0.4806;-0.0444;-0.1216
0000649088;-2.7509;-5.7916;3.2561;0.4930;-0.0072;-0.1202
0000649096;-2.6624;-5.4396;3.0239;0.5165;-0.0003;-0.1283
0000649108;-2.7414;-5.6719;2.7869;0.5608;-0.0011;-0.1700
0000649116;-2.6863;-5.6024;2.5450;0.5879;0.0080;-0.2170
0000649128;-3.2513;-5.9831;2.4349;0.6382;0.0921;-0.2697
0000649136;-3.6488;-6.3877;2.2673;0.6714;0.1140;-0.3172
0000649148;-4.0486;-6.5529;1.9441;0.7337;0.0826;-0.4073
0000649156;-4.2162;-6.7445;1.9465;0.7810;0.0742;-0.4770
0000649168;-4.5897;-6.8785;2.4948;0.8271;0.0125;-0.5573
0000649176;-5.4372;-6.7086;4.9249;0.7738;-0.0962;-0.6031
0000649184;-6.9145;-4.7453;5.1020;0.6027;-0.1577;-0.6816
0000649196;-7.0198;-1.9441;3.7086;0.4700;-0.2272;-0.8761
0000649204;-5.1978;-1.3384;4.9967;0.3910;-0.2782;-0.9194
0000649216;-2.9113;-2.7318;6.3638;0.1609;-0.2284;-0.8667
0000649224;-2.5115;-3.1220;6.3566;-0.0147;-0.1748;-0.8627
0000649236;-3.7278;-2.2553;6.9456;-0.3573;-0.1086;-0.9240
0000649244;-3.8882;-1.4820;7.7069;-0.5983;-0.0554;-0.9414
0000649256;-3.0406;-3.0430;6.3853;-0.8074;-0.0220;-0.9072
0000649264;-1.5371;-5.1715;5.4253;-0.8123;0.0562;-0.8246
0000649330;-1.4509;-8.0804;4.8315;0.1511;0.0997;-0.0665
0000649338;-1.3192;-6.8139;5.0661;0.2013;0.0536;-0.0578
0000649346;-1.2737;-5.5737;5.2122;0.2002;0.0661;-0.0761
0000649358;-2.0207;-4.2521;5.2744;0.1632;0.1167;-0.1845
0000649367;-2.1739;-4.0031;5.3175;0.1030;0.1372;-0.2911
0000649380;-2.6073;-5.0589;5.0566;0.0063;0.1074;-0.4399
0000649389;-2.5570;-6.3183;4.9464;-0.0132;0.0357;-0.5096
0000649402;-1.8028;-7.2353;5.0757;0.0057;-0.0048;-0.5245
0000649411;-1.3958;-7.7835;4.9775;0.0538;0.0055;-0.4863
0000649424;-1.0582;-7.7357;4.9081;0.1359;0.0242;-0.4386
0000649433;-0.9050;-7.3334;4.7932;0.1864;0.0222;-0.4247
0000649442;-0.8906;-6.9599;4.8842;0.1990;0.0308;-0.4265
0000649455;-1.1157;-6.1603;4.7836;0.1925;0.0441;-0.4644
0000649464;-1.6113;-5.6407;4.7740;0.1689;0.0293;-0.4971
0000649477;-2.4277;-5.0159;4.8770;0.0986;0.0049;-0.5292
0000649486;-3.0239;-4.6424;4.9919;0.0224;-0.0269;-0.5031
0000649499;-3.4117;-4.0103;5.0661;-0.1005;-0.0652;-0.3826
0000649508;-3.4979;-4.0630;5.0829;-0.1901;-0.0754;-0.2334
0000649521;-3.3639;-4.5969;4.8435;-0.3340;-0.0671;0.0233
0000649530;-2.8970;-5.0518;4.7142;-0.4177;-0.0421;0.1904
0000649543;-2.6863;-5.3917;4.3670;-0.5201;-0.0157;0.3663
0000649552;-2.5905;-5.6575;4.2593;-0.5616;-0.0180;0.4313
0000649561;-3.1292;-6.2273;4.2521;-0.5907;-0.0160;0.4763
0000649631;-2.5115;-7.2927;4.2569;-0.3000;-0.2382;0.4195
0000649640;-2.0734;-6.8929;4.1946;-0.2691;-0.2509;0.3802
0000649653;-1.9154;-6.5410;4.1803;-0.2318;-0.2469;0.3071
0000649662;-1.8986;-6.4620;4.1827;-0.2178;-0.2465;0.2557
0000649675;-2.1261;-6.5769;4.2353;-0.2140;-0.2260;0.1996
0000649684;-2.1955;-6.5386;4.1013;-0.2136;-0.2178;0.1819
0000649697;-2.2290;-6.3446;4.1970;-0.2101;-0.2118;0.1568
0000649706;-2.4229;-6.4428;4.2713;-0.2045;-0.2069;0.1371
0000649719;-2.3607;-6.3015;4.0342;-0.1957;-0.1899;0.1264
0000649728;-2.4469;-6.2393;3.9409;-0.2028;-0.1645;0.1244
0000649737;-2.3391;-6.1794;3.8642;-0.2041;-0.1576;0.1204
0000649750;-2.2697;-6.0118;3.8547;-0.2224;-0.1403;0.1152
0000649759;-2.0901;-5.9113;3.7733;-0.2449;-0.1176;0.1119
0000649772;-2.3487;-5.8514;3.7278;-0.2726;-0.1019;0.0902
0000649781;-2.2793;-5.8945;3.6368;-0.2907;-0.0874;0.0779
0000649794;-2.5474;-5.8778;3.5458;-0.3251;-0.0750;0.0616
0000649803;-2.6025;-5.8514;3.3854;-0.3499;-0.0675;0.0540
0000649816;-2.7773;-5.8179;3.2585;-0.3786;-0.0530;0.0466
0000649825;-2.6025;-5.8826;3.2298;-0.3873;-0.0461;0.0436
0000649838;-2.6935;-6.0717;3.1340;-0.4013;-0.0322;0.0422
0000649847;-2.7701;-6.0932;3.1340;-0.4114;-0.0132;0.0576
0000649856;-2.8563;-6.1435;3.0215;-0.4064;-0.0065;0.0530
0000649928;-2.6600;-5.8299;2.9808;-0.4640;0.0585;0.0882
0000649937;-2.7174;-5.5929;3.1005;-0.4712;0.0846;0.1063
0000649950;-2.8802;-5.7317;3.1460;-0.4628;0.0953;0.1307
0000649959;-2.9113;-5.9137;3.1436;-0.4620;0.0969;0.1330
0000649971;-2.9209;-5.8586;3.3160;-0.4699;0.0966;0.1428
0000649980;-2.7031;-5.8634;3.2346;-0.4636;0.0973;0.1455
0000649993;-2.7054;-5.9879;3.2825;-0.4501;0.0993;0.1555
0000650002;-2.5139;-6.0478;3.2226;-0.4458;0.1168;0.1613
0000650011;-2.6073;-6.2225;2.7150;-0.4561;0.1278;0.1813
0000650023;-2.8132;-5.6838;2.3415;-0.4726;0.1535;0.2286
0000650032;-3.0742;-5.1547;2.3727;-0.4984;0.1728;0.2886
0000650045;-4.1779;-4.6400;3.0765;-0.5191;0.1442;0.3922
0000650054;-5.7581;-4.7333;4.3622;-0.4310;-0.0147;0.4983
0000650066;-7.5369;-7.2449;5.2433;-0.2912;-0.1384;0.6787
0000650075;-7.4531;-9.6750;6.4476;-0.1591;-0.1495;0.8649
0000650088;-6.3518;-11.4730;6.2632;0.1724;-0.2828;1.0834
0000650097;-5.0398;-11.8705;5.7030;0.3768;-0.3325;1.1582
0000650106;-4.2737;-12.0261;5.5115;0.5796;-0.3050;1.2224
0000650118;-2.3032;-9.3254;4.8866;0.7875;-0.2234;1.1723
0000650127;-0.4693;-6.5170;4.7262;0.8123;-0.1230;1.0100
0000650196;-3.4692;-3.9361;5.2385;-0.5097;0.0254;0.3965
0000650205;-3.9720;-6.0406;5.2002;-0.5656;-0.0614;0.3790
0000650217;-3.8882;-8.3270;4.9201;-0.5412;-0.1539;0.3737
0000650226;-3.5793;-9.3901;4.8914;-0.4643;-0.2017;0.3904
0000650239;-2.1596;-9.0621;4.6256;-0.2923;-0.2289;0.3746
0000650248;-1.2210;-7.8243;4.6376;-0.1904;-0.2313;0.3166
0000650260;-0.5195;-6.5577;4.7908;-0.1198;-0.1807;0.2333
0000650269;-0.3639;-5.9352;4.8195;-0.0843;-0.1324;0.1820
0000650278;-0.7685;-5.5091;4.8937;-0.0877;-0.0926;0.1464
0000650291;-1.1588;-5.1906;5.0566;-0.1332;-0.0733;0.1326
0000650300;-1.6137;-5.3702;5.0422;-0.1687;-0.0866;0.1407
0000650312;-1.9201;-5.6910;5.0637;-0.2329;-0.1108;0.1877
0000650321;-1.8603;-5.8107;4.9416;-0.2690;-0.1206;0.2377
0000650334;-2.0087;-6.1363;5.1954;-0.3062;-0.1392;0.3163
0000650343;-2.1261;-6.4308;5.1356;-0.3126;-0.1591;0.3532
0000650355;-2.2625;-6.8738;5.1739;-0.3030;-0.1935;0.3741
0000650364;-2.2625;-6.9743;5.1188;-0.2781;-0.2030;0.3529
0000650377;-2.2625;-7.0892;4.9153;-0.2201;-0.2044;0.2621
0000650386;-2.0183;-7.1658;4.8650;-0.1783;-0.2024;0.1744
0000650395;-1.9465;-7.1251;4.6160;-0.1103;-0.1892;0.1066
0000650407;-1.9968;-6.9576;4.4341;-0.0341;-0.1331;0.0368
0000650416;-2.0590;-6.6319;4.3598;0.0204;-0.1021;-0.0084
0000650485;-2.9640;-5.1404;4.7070;-0.0441;-0.1071;-0.2750
0000650494;-2.7629;-5.2601;4.6280;-0.0818;-0.1276;-0.3127
0000650506;-2.3559;-5.7150;4.5131;-0.1168;-0.1387;-0.3259
0000650515;-2.1763;-5.9424;4.3574;-0.1243;-0.1488;-0.3066
0000650528;-2.0063;-6.2058;4.3335;-0.1282;-0.1518;-0.2663
0000650537;-1.9680;-6.0645;4.4077;-0.1286;-0.1486;-0.2317
0000650549;-2.0925;-6.0597;4.2377;-0.1268;-0.1525;-0.1716
0000650558;-1.9728;-5.8323;4.2282;-0.1194;-0.1615;-0.1356
0000650567;-2.3894;-5.8706;4.1803;-0.1227;-0.1647;-0.1045
0000650580;-2.4421;-5.6862;4.0606;-0.1279;-0.1833;-0.0771
0000650589;-2.4349;-5.7724;4.1994;-0.1248;-0.2084;-0.0778
0000650601;-2.6097;-5.7964;4.0989;-0.1278;-0.2140;-0.0755
0000650610;-2.4301;-5.9209;4.1851;-0.1232;-0.2146;-0.0910
0000650623;-2.2745;-6.1842;3.9433;-0.1034;-0.2209;-0.0890
0000650632;-2.4205;-6.5984;3.8283;-0.0622;-0.2210;-0.0899
0000650644;-2.4421;-6.7995;3.8499;-0.0057;-0.2012;-0.0842
0000650653;-2.4541;-6.7995;3.7206;0.0326;-0.1780;-0.0801
0000650666;-2.5235;-6.7876;3.7852;0.0886;-0.1595;-0.0809
0000650675;-2.3798;-6.4667;3.7469;0.1144;-0.1439;-0.0693
0000650687;-2.2098;-6.1651;3.6224;0.1510;-0.1444;-0.0593
0000650696;-2.2362;-6.1124;3.5147;0.1852;-0.1448;-0.0416
0000650705;-2.1093;-6.2393;3.5721;0.2052;-0.1326;-0.0262
0000650774;-2.8563;-6.0262;3.0742;0.5007;0.0600;-0.0332
0000650783;-2.9281;-5.9113;3.1316;0.5163;0.0770;-0.0484
0000650795;-2.9736;-5.6144;3.0933;0.5281;0.0925;-0.0909
0000650804;-2.9664;-5.6671;3.1532;0.5323;0.1075;-0.1158
0000650817;-2.6097;-5.5857;3.3255;0.5221;0.1114;-0.1351
0000650826;-2.7557;-5.6647;3.3375;0.5121;0.1073;-0.1483
0000650838;-2.7270;-5.6455;3.4117;0.4910;0.1222;-0.1495
0000650847;-2.6073;-5.6096;3.4117;0.4774;0.1131;-0.1514
0000650856;-2.4924;-5.4205;3.3998;0.4570;0.1168;-0.1447
0000650869;-2.4493;-5.6216;3.2657;0.4393;0.1391;-0.1372
0000650878;-2.7222;-5.8849;3.0670;0.4415;0.1410;-0.1346
0000650890;-2.8659;-6.1842;2.8252;0.4489;0.1795;-0.1451
0000650899;-3.1268;-6.5266;2.6432;0.4807;0.1881;-0.1765
0000650912;-3.3710;-6.8666;2.3320;0.5375;0.2166;-0.2310
0000650921;-3.3734;-7.0485;2.1332;0.5922;0.2145;-0.2840
0000650933;-3.9337;-7.3454;2.8276;0.6387;0.1688;-0.3504
0000650942;-5.0925;-6.7373;4.9416;0.5664;0.1394;-0.4069
0000650951;-6.6966;-4.5993;4.6615;0.4042;0.0973;-0.5187
0000650964;-6.1818;-2.6432;4.2401;0.2964;-0.0293;-0.7445
0000650973;-4.2186;-2.5546;5.5929;0.1601;-0.0975;-0.7865
0000650985;-3.4117;-3.0311;6.6726;-0.1023;-0.0701;-0.8005
0000650994;-3.7445;-2.2817;6.9192;-0.3512;-0.0148;-0.8569
0000651063;-1.1803;-11.9471;3.9504;-0.3611;0.3909;-0.4089
0000651072;-1.8555;-12.2535;3.8882;-0.1639;0.2842;-0.2946
0000651084;-2.9880;-11.6622;4.2760;0.0917;0.1641;-0.1715
0000651093;-2.6767;-9.2273;4.7621;0.2262;0.0308;-0.0923
0000651106;-2.1835;-6.0597;5.0159;0.3056;-0.1011;-0.0778
0000651115;-2.1045;-4.5442;5.2194;0.2928;-0.0979;-0.1222
0000651124;-2.0782;-3.3088;5.2648;0.2285;-0.0556;-0.1791
0000651136;-2.1237;-3.0023;5.2194;0.1171;-0.0268;-0.2944
0000651145;-1.8771;-4.0031;4.9943;0.0337;-0.0509;-0.3499
0000651158;-1.3216;-5.7413;4.7669;-0.0472;-0.0746;-0.3728
0000651167;-1.2354;-6.8929;4.9321;-0.0636;-0.0854;-0.3732
0000651179;-0.8739;-7.4699;4.8842;-0.0324;-0.0653;-0.3312
0000651188;-1.0463;-7.6136;4.7836;0.0085;-0.0565;-0.2908
0000651201;-1.1229;-7.0533;4.9512;0.0534;-0.0565;-0.2762
0000651210;-1.1803;-6.4452;5.0063;0.0477;-0.0430;-0.2891
0000651222;-1.3479;-5.8706;4.9632;0.0294;-0.0128;-0.3186
0000651231;-1.5610;-5.4157;4.9392;0.0092;0.0104;-0.3533
0000651240;-1.8986;-5.2026;4.8961;-0.0189;0.0309;-0.3659
0000651253;-2.6240;-5.0302;4.8746;-0.0580;0.0285;-0.3528
0000651262;-2.8084;-4.8866;4.7166;-0.0897;0.0072;-0.3281
0000651274;-3.0885;-4.6376;4.6352;-0.1502;-0.0222;-0.2473
0000651283;-3.2250;-4.7692;4.4700;-0.2013;-0.0229;-0.1512
0000651352;-3.3232;-6.7397;4.1372;-0.4250;-0.0253;0.4648
0000651361;-3.3160;-6.6008;4.2186;-0.4130;-0.0823;0.4680
0000651372;-2.9329;-6.4021;4.3191;-0.4074;-0.1320;0.4501
0000651381;-2.8132;-6.4428;4.3407;-0.4000;-0.1729;0.4222
0000651395;-2.3511;-6.3614;4.3215;-0.3709;-0.2164;0.3738
0000651404;-2.5067;-6.4284;4.2976;-0.3575;-0.2341;0.3404
0000651413;-2.2434;-6.4620;4.2353;-0.3461;-0.2518;0.2948
0000651426;-2.2194;-6.4308;4.2186;-0.3333;-0.2546;0.2384
0000651435;-2.1476;-6.3351;4.1396;-0.3264;-0.2533;0.2061
0000651447;-2.4924;-6.6966;4.1875;-0.3096;-0.2365;0.1808
0000651456;-2.5546;-6.5912;4.1468;-0.2924;-0.2284;0.1704
0000651469;-2.3296;-6.6176;4.1156;-0.2794;-0.2022;0.1725
0000651478;-2.4373;-6.5481;4.0031;-0.2653;-0.1879;0.1761
0000651490;-2.4972;-6.5362;3.9073;-0.2550;-0.1593;0.1741
0000651499;-2.5331;-6.3877;3.8164;-0.2467;-0.1581;0.1703
0000651511;-2.5881;-6.0454;3.8762;-0.2475;-0.1346;0.1691
0000651519;-2.5426;-5.9544;3.8810;-0.2505;-0.1251;0.1623
0000651527;-2.4732;-5.8419;3.6631;-0.2525;-0.1199;0.1624
0000651538;-2.5355;-5.8682;3.6296;-0.2882;-0.1067;0.1605
0000651546;-2.4517;-5.7988;3.6895;-0.3047;-0.1006;0.1577
