time;acc_x;acc_y;acc_z;gyro_x;gyro_y;gyro_z
0000568727;-5.2050;-7.9440;3.6129;0.2533;-0.1276;0.4361
0000568735;-4.4412;-7.5178;3.5243;0.3182;-0.2078;0.4326
0000568742;-3.6823;-7.0509;3.5698;0.3503;-0.2346;0.4104
0000568750;-2.5091;-6.5936;3.4309;0.3609;-0.2154;0.3671
0000568759;-1.3144;-5.9376;3.3662;0.3591;-0.1857;0.2868
0000568767;-0.8092;-5.5115;3.2968;0.3439;-0.1356;0.2046
0000568779;-1.0104;-5.2098;3.2992;0.3176;-0.0805;0.1219
0000568787;-1.3503;-4.9057;3.6248;0.3015;-0.0482;0.1120
0000568795;-2.1261;-5.0374;3.8451;0.2942;-0.0476;0.1222
0000568806;-2.8299;-5.3630;4.1037;0.3018;-0.0854;0.1459
0000568814;-3.3184;-5.6647;4.3287;0.3106;-0.1315;0.1599
0000568826;-3.3423;-5.8586;4.3503;0.3224;-0.1831;0.1588
0000568834;-3.1747;-5.9496;4.3766;0.3243;-0.2098;0.1314
0000568845;-2.6528;-5.8634;4.4365;0.3263;-0.2376;0.0753
0000568853;-2.4086;-5.8299;4.4532;0.3131;-0.2479;0.0398
0000568865;-2.2625;-5.7796;4.5203;0.2871;-0.2661;-0.0212
0000568873;-2.3607;-6.0214;4.5370;0.2670;-0.2639;-0.0485
0000568881;-2.5139;-6.0382;4.5418;0.2403;-0.2513;-0.0701
0000568892;-2.4804;-5.9999;4.6160;0.2180;-0.2497;-0.1038
0000568900;-2.5355;-6.1866;4.6783;0.2066;-0.2577;-0.1332
0000568968;-2.2051;-6.0406;4.4748;0.0041;-0.2565;0.0254
0000568976;-2.4373;-6.1196;4.2306;-0.0029;-0.2494;0.0309
0000568987;-2.5905;-6.1363;4.1659;0.0151;-0.2265;0.0059
0000568995;-2.9808;-6.2082;4.0342;0.0249;-0.1965;-0.0292
0000569007;-3.3184;-6.3734;3.9241;0.0484;-0.1640;-0.1120
0000569015;-3.3662;-6.2584;3.8906;0.0640;-0.1545;-0.1747
0000569026;-3.8810;-6.2489;3.7517;0.0899;-0.1512;-0.2401
0000569034;-3.8571;-5.9017;3.8259;0.1009;-0.1647;-0.2959
0000569042;-3.8211;-5.4684;3.7948;0.1038;-0.1740;-0.3487
0000569054;-3.6488;-5.2601;3.8858;0.0935;-0.1713;-0.4215
0000569062;-3.2370;-4.9847;3.8523;0.0648;-0.1549;-0.4547
0000569073;-3.1532;-5.2744;3.6966;0.0477;-0.1424;-0.4928
0000569081;-2.9233;-5.3510;3.5506;0.0405;-0.1665;-0.5069
0000569093;-2.7222;-5.6383;3.5338;0.0402;-0.1884;-0.5045
0000569101;-2.8228;-6.0142;3.4860;0.0456;-0.2085;-0.4918
0000569112;-2.7198;-6.0047;3.5410;0.0380;-0.2302;-0.4367
0000569120;-2.7102;-6.0334;3.5506;0.0457;-0.2610;-0.4005
0000569128;-2.6647;-6.0094;3.5386;0.0398;-0.2814;-0.3535
0000569140;-2.5115;-5.8323;3.5362;0.0401;-0.3098;-0.2972
0000569148;-2.6887;-5.5689;3.4860;0.0332;-0.3265;-0.2705
0000569159;-2.7198;-5.3367;3.5099;0.0200;-0.3451;-0.2459
0000569167;-2.6073;-5.3032;3.3686;0.0072;-0.3537;-0.2293
0000569235;-2.5546;-6.5122;3.1939;-0.0510;-0.3329;-0.1041
0000569243;-2.4181;-6.2177;3.1484;-0.0442;-0.3092;-0.0930
0000569254;-2.3846;-6.3375;3.2106;-0.0169;-0.2899;-0.0835
0000569262;-2.4349;-6.2776;3.1532;0.0015;-0.2577;-0.0705
0000569274;-2.4205;-6.2608;3.1340;0.0225;-0.2338;-0.0558
0000569282;-2.3463;-6.2944;3.0694;0.0354;-0.2156;-0.0372
0000569290;-2.4708;-6.2680;2.9377;0.0613;-0.2021;-0.0181
0000569301;-2.2458;-6.3231;2.9784;0.0894;-0.1761;0.0049
0000569309;-2.3032;-6.2920;2.8898;0.1230;-0.1613;0.0041
0000569321;-2.2146;-6.3446;2.7461;0.1575;-0.1071;0.0113
0000569329;-2.1883;-6.5194;2.7126;0.1779;-0.0533;0.0238
0000569340;-2.0686;-6.2513;2.5953;0.2210;-0.0045;0.0188
0000569348;-2.2122;-6.1938;2.5714;0.2373;0.0476;0.0224
0000569360;-2.4852;-5.8514;2.5067;0.2610;0.0965;0.0085
0000569368;-2.4517;-5.6144;2.7222;0.2658;0.1175;-0.0013
0000569376;-2.6767;-5.7748;2.7078;0.2587;0.1374;-0.0089
0000569387;-2.8874;-5.4660;2.8252;0.2245;0.1368;-0.0071
0000569395;-3.2633;-5.5857;2.9425;0.1936;0.1041;-0.0013
0000569407;-3.6607;-5.5737;3.0287;0.1382;0.0338;0.0201
0000569415;-3.4620;-5.4947;3.1340;0.0943;-0.0236;0.0372
0000569427;-3.5817;-5.3247;3.2801;0.0377;-0.0969;0.0492
0000569435;-3.3830;-5.3917;3.1843;0.0125;-0.1388;0.0452
0000569503;-6.0741;-5.4899;4.5945;0.0572;0.0109;-0.3813
0000569511;-6.2537;-4.0055;4.2234;0.0289;-0.0320;-0.5741
0000569522;-3.8188;-4.6017;5.3582;-0.0300;-0.1535;-0.7671
0000569530;-1.7047;-5.7078;5.7269;-0.0935;-0.1147;-0.7930
0000569538;-0.6680;-6.1339;6.0262;-0.1435;0.0084;-0.8050
0000569550;-3.0789;-5.0422;6.5553;-0.3894;0.2269;-0.9338
0000569558;-4.8100;-4.0677;7.1563;-0.5971;0.2579;-1.0389
0000569569;-4.5179;-3.2322;7.2544;-0.8299;0.1296;-1.1153
0000569577;-2.8515;-4.2832;6.1244;-0.9112;0.0408;-1.0567
0000569589;-0.3735;-8.0302;4.5179;-0.8240;0.1150;-0.8131
0000569597;0.4884;-9.8881;4.0270;-0.6355;0.3088;-0.6506
0000569608;0.7733;-11.1785;3.2274;-0.2825;0.5047;-0.4734
0000569616;-1.1684;-12.0069;3.1340;-0.0484;0.6336;-0.4327
0000569628;-4.5538;-12.8210;3.7493;0.1881;0.6319;-0.5877
0000569636;-6.0023;-12.7755;4.3574;0.3079;0.5624;-0.7794
0000569644;-6.7516;-11.7053;4.9177;0.4265;0.4936;-0.9174
0000569655;-6.1483;-7.9847;5.2313;0.5720;0.3423;-0.8753
0000569663;-5.5617;-6.3087;5.5545;0.5818;0.2683;-0.8206
0000569675;-4.2258;-4.0366;5.2577;0.4819;0.1624;-0.7304
0000569683;-3.4141;-3.1627;4.8961;0.3756;0.0938;-0.6724
0000569695;-2.2553;-2.7461;4.5322;0.2040;0.0402;-0.6099
0000569703;-1.1684;-4.0031;4.3215;0.0914;0.0245;-0.5678
0000569771;-2.1500;-6.4476;5.0877;0.0397;0.0417;-0.3114
0000569779;-2.4134;-6.2513;5.1667;0.0028;0.0131;-0.3455
0000569787;-2.4062;-6.0454;5.2529;-0.0298;-0.0416;-0.3704
0000569798;-2.0446;-6.0885;5.0613;-0.0641;-0.1055;-0.3469
0000569806;-1.6185;-6.3183;5.1380;-0.0625;-0.1267;-0.3183
0000569818;-0.9649;-6.5170;5.0637;-0.0404;-0.1190;-0.2380
0000569826;-0.6847;-6.2584;5.0637;-0.0242;-0.0929;-0.1835
0000569837;-0.9792;-6.5242;4.8818;-0.0289;-0.0565;-0.1547
0000569845;-1.0223;-6.4715;4.6926;-0.0520;-0.0329;-0.1431
0000569857;-1.4676;-6.6750;4.6040;-0.0973;-0.0081;-0.1492
0000569865;-1.7478;-6.6487;4.4245;-0.1232;0.0051;-0.1356
0000569876;-2.6145;-6.7852;4.2784;-0.1370;0.0276;-0.0894
0000569884;-2.9066;-6.8450;4.2377;-0.1350;0.0337;-0.0334
0000569892;-3.4620;-7.0629;4.2760;-0.1175;0.0445;0.0512
0000569904;-3.8642;-7.0581;4.1922;-0.0666;0.0233;0.1813
0000569912;-3.7397;-6.9192;4.1707;-0.0256;0.0124;0.2594
0000569923;-3.9193;-6.9647;4.0390;0.0128;0.0103;0.3343
0000569931;-3.8235;-6.9887;4.1180;0.0414;-0.0024;0.3559
0000569943;-4.1228;-7.0078;4.0127;0.0810;-0.0233;0.3706
0000569951;-4.0270;-7.0222;4.2306;0.0999;-0.0340;0.3714
0000569963;-3.8642;-7.0222;4.2880;0.1268;-0.0797;0.3453
0000569971;-3.8714;-7.1946;4.1970;0.1280;-0.1194;0.3108
0000569979;-3.6129;-7.0174;4.2952;0.1374;-0.1577;0.2703
0000570047;-2.7222;-6.8474;4.3335;0.1701;-0.3440;0.0157
0000570055;-2.4972;-6.7516;4.2904;0.1739;-0.3471;0.0060
0000570066;-2.2338;-6.6822;4.2737;0.1817;-0.3456;0.0115
0000570074;-2.4062;-6.7301;4.2114;0.1781;-0.3317;0.0233
0000570086;-2.1524;-6.5577;4.1803;0.1783;-0.3220;0.0360
0000570094;-2.1476;-6.4212;4.1372;0.1708;-0.2984;0.0526
0000570106;-2.0997;-6.3327;4.0486;0.1567;-0.2743;0.0552
0000570114;-2.3559;-6.5050;3.8475;0.1458;-0.2551;0.0586
0000570122;-2.2482;-6.4452;3.8403;0.1326;-0.2361;0.0562
0000570133;-2.2122;-6.5122;3.6943;0.1075;-0.2209;0.0620
0000570141;-2.2936;-6.5218;3.5841;0.0837;-0.2097;0.0803
0000570153;-2.3774;-6.5290;3.4931;0.0733;-0.1853;0.1014
0000570161;-2.2769;-6.2728;3.4788;0.0628;-0.1651;0.1038
0000570172;-2.5690;-6.3087;3.3423;0.0434;-0.1549;0.0962
0000570180;-2.2984;-6.1387;3.2346;0.0177;-0.1331;0.0939
0000570192;-2.2697;-6.1124;3.0981;0.0043;-0.1128;0.0723
0000570200;-2.1069;-5.8442;3.0909;-0.0112;-0.0798;0.0584
0000570208;-2.1404;-5.9352;3.0215;-0.0256;-0.0529;0.0376
0000570219;-2.2122;-6.0621;2.7845;-0.0524;-0.0172;0.0236
0000570227;-2.4636;-6.0382;2.7869;-0.0644;0.0043;0.0320
0000570239;-2.7198;-5.9879;2.8276;-0.0790;0.0414;0.0562
0000570247;-2.6600;-5.8634;2.8323;-0.0847;0.0461;0.0679
0000570311;-2.8395;-6.3614;3.2920;-0.1575;-0.0614;0.1026
0000570319;-2.6264;-6.3566;3.3519;-0.1451;-0.0790;0.0990
0000570331;-2.2817;-6.4739;3.3662;-0.1216;-0.0605;0.1135
0000570339;-1.9609;-6.2728;3.2585;-0.1059;-0.0216;0.1310
0000570350;-2.0542;-6.3303;3.0287;-0.0986;0.0207;0.1391
0000570358;-2.3463;-6.0406;2.9784;-0.1062;0.0429;0.1428
0000570366;-2.4445;-5.7533;2.7725;-0.1282;0.0626;0.1455
0000570378;-2.8922;-5.2936;2.4565;-0.1715;0.0725;0.1663
0000570386;-3.1795;-5.2744;2.4014;-0.2129;0.0689;0.1891
0000570397;-3.2944;-4.8123;2.5618;-0.2639;0.0588;0.2601
0000570405;-3.5410;-4.9033;3.6033;-0.2482;0.0349;0.3163
0000570417;-5.0805;-6.7109;6.5864;-0.0021;0.0027;0.4616
0000570425;-7.4699;-8.2887;4.3551;0.1896;0.0282;0.6588
0000570436;-6.3734;-10.8098;4.1515;0.2751;-0.0278;0.8294
0000570444;-3.8283;-10.8840;4.2425;0.3299;-0.0758;0.9078
0000570452;-1.7430;-8.4108;4.0725;0.4197;-0.0449;0.9046
0000570464;-0.7661;-5.8251;4.0270;0.4245;0.1190;0.8108
0000570472;-1.3312;-5.4923;4.8507;0.4636;0.2132;0.7763
0000570483;-3.4237;-5.4684;5.4468;0.5785;0.3048;0.8331
0000570491;-4.1755;-5.1811;5.2720;0.6118;0.3235;0.8781
0000570503;-4.7812;-3.9433;4.4676;0.5116;0.2978;0.8823
0000570511;-4.7525;-2.8347;4.2569;0.3720;0.2891;0.8340
0000570574;-2.9185;-6.7086;5.2433;-0.3989;0.0075;0.4525
0000570582;-2.3128;-6.7924;5.0063;-0.3890;-0.0139;0.4201
0000570590;-1.7071;-6.4141;4.8650;-0.3866;-0.0088;0.3978
0000570602;-1.3767;-6.0525;4.9249;-0.3853;0.0117;0.3917
0000570610;-1.2929;-5.7940;4.9368;-0.4013;0.0121;0.4024
0000570621;-1.0870;-5.3199;5.0877;-0.4679;0.0203;0.4469
0000570629;-0.8619;-4.9297;5.0733;-0.5108;0.0152;0.4778
0000570641;-0.9481;-4.9392;5.3295;-0.5926;0.0039;0.5388
0000570649;-1.0989;-5.2289;5.4205;-0.6408;-0.0226;0.5794
0000570660;-1.1588;-5.4899;5.5138;-0.6860;-0.0833;0.6386
0000570668;-1.3192;-5.7269;5.5282;-0.7085;-0.1260;0.6752
0000570676;-1.4653;-5.9017;5.4061;-0.7105;-0.1728;0.7001
0000570688;-1.4844;-6.3614;5.4588;-0.7025;-0.2340;0.7189
0000570696;-1.3743;-6.7493;5.3678;-0.6835;-0.2613;0.7095
0000570707;-1.1349;-7.0150;5.1595;-0.6520;-0.2533;0.6909
0000570715;-1.2115;-7.2113;4.9344;-0.6178;-0.2346;0.6670
0000570727;-1.5802;-7.3909;4.7309;-0.5396;-0.2217;0.6113
0000570735;-1.9393;-7.5034;4.7381;-0.4843;-0.2128;0.5470
0000570746;-2.2913;-7.1706;4.8961;-0.4004;-0.1800;0.4354
0000570754;-2.3176;-6.8690;4.8794;-0.3447;-0.1392;0.3499
0000570766;-2.4684;-6.5074;4.7190;-0.2634;-0.0618;0.2113
0000570774;-2.7749;-6.2991;4.7740;-0.2161;-0.0313;0.1198
0000570782;-2.8084;-6.1100;4.6950;-0.1863;0.0024;0.0249
0000570846;-2.2649;-5.8658;4.1372;-0.0919;-0.0037;-0.3452
0000570854;-2.3248;-5.8873;4.1779;-0.0730;-0.0179;-0.3480
0000570866;-2.3774;-5.9687;4.1827;-0.0690;-0.0422;-0.3324
0000570874;-2.3104;-5.7676;4.0773;-0.0721;-0.0685;-0.3086
0000570885;-2.1907;-5.4612;4.1970;-0.0731;-0.1176;-0.2789
0000570893;-2.3822;-5.6360;4.1108;-0.0806;-0.1323;-0.2441
0000570905;-2.1739;-5.3463;4.2425;-0.1033;-0.1724;-0.2068
0000570913;-2.4684;-5.3630;4.3215;-0.1124;-0.1829;-0.1880
0000570924;-2.3391;-5.3534;4.3886;-0.1302;-0.1997;-0.1581
0000570932;-2.0446;-5.0949;4.3335;-0.1387;-0.1948;-0.1423
0000570944;-1.9776;-5.6982;4.2306;-0.1482;-0.1744;-0.1228
0000570952;-2.0925;-5.7533;4.0749;-0.1440;-0.1633;-0.1067
0000570960;-2.0494;-5.9520;4.0414;-0.1208;-0.1580;-0.1037
0000570971;-2.0470;-5.8634;3.9480;-0.1018;-0.1199;-0.1003
0000570979;-2.1548;-5.9568;3.9025;-0.0858;-0.0979;-0.1009
0000570991;-2.3224;-5.8442;3.8786;-0.0485;-0.0959;-0.1114
0000570999;-2.5139;-5.9975;3.8834;-0.0261;-0.0939;-0.1155
0000571010;-2.6025;-6.0956;3.8762;0.0148;-0.0895;-0.1295
0000571018;-2.4732;-6.0765;3.8595;0.0413;-0.0845;-0.1440
0000571030;-2.7078;-6.4093;3.6679;0.0925;-0.0738;-0.1565
0000571038;-2.6719;-6.2369;3.5674;0.1308;-0.0847;-0.1683
0000571101;-2.4660;-6.2082;3.6057;0.2915;-0.0971;-0.2494
0000571109;-2.4924;-6.2130;3.5985;0.3055;-0.0807;-0.2430
0000571117;-2.3535;-6.1962;3.5578;0.3156;-0.0666;-0.2338
0000571129;-2.4086;-6.2249;3.5793;0.3311;-0.0289;-0.2325
0000571137;-2.3128;-6.1435;3.4860;0.3463;-0.0145;-0.2325
0000571148;-2.3918;-6.0932;3.5410;0.3448;0.0025;-0.2249
0000571156;-2.4732;-5.9089;3.6488;0.3445;0.0013;-0.2313
0000571168;-2.6959;-5.7868;3.7062;0.3371;-0.0032;-0.2342
0000571176;-2.8970;-5.9592;3.6488;0.3289;-0.0032;-0.2338
0000571187;-2.8371;-5.9256;3.7158;0.3263;-0.0141;-0.2290
0000571195;-2.7701;-6.0861;3.6895;0.3279;-0.0155;-0.2212
0000571207;-2.7940;-6.0358;3.4764;0.3475;-0.0326;-0.2186
0000571215;-2.6983;-5.6479;3.3830;0.3500;-0.0497;-0.2325
0000571223;-2.8754;-5.9616;3.3088;0.3447;-0.0480;-0.2422
0000571234;-3.1412;-6.2656;3.3088;0.3579;-0.0473;-0.2571
0000571242;-3.2370;-6.2297;3.0694;0.3640;-0.0678;-0.2486
0000571254;-3.4477;-6.2537;2.9401;0.3885;-0.1214;-0.2483
0000571262;-3.3950;-6.1986;2.8946;0.4080;-0.1668;-0.2674
0000571273;-3.5698;-6.2130;2.9257;0.4317;-0.2305;-0.2826
0000571281;-3.6871;-6.5242;2.9305;0.4495;-0.2494;-0.2991
0000571293;-3.7110;-6.4883;3.0023;0.4740;-0.2803;-0.2951
0000571301;-3.5434;-6.3997;2.7366;0.4906;-0.3279;-0.3059
0000571309;-3.0670;-6.0382;2.5594;0.5091;-0.3881;-0.3228
0000571373;-5.0973;-0.4070;5.8419;-0.1178;-0.5974;-0.5187
0000571381;-1.7334;-0.9385;6.6607;-0.2683;-0.5630;-0.5909
0000571393;-0.1269;-5.0039;5.0470;-0.4425;-0.3281;-0.5387
0000571401;-0.3615;-5.9520;5.3965;-0.4910;-0.2590;-0.4751
0000571412;-1.8723;-5.2744;6.3949;-0.6845;-0.2113;-0.4423
0000571420;-2.6264;-5.1380;6.6080;-0.8015;-0.1723;-0.4439
0000571432;-1.5802;-6.0382;5.7245;-0.8443;-0.0492;-0.4547
0000571440;-0.8452;-7.2065;4.8363;-0.7514;0.1319;-0.4565
0000571452;0.1604;-8.8801;3.7852;-0.5003;0.4378;-0.5127
0000571460;-0.2227;-9.9383;3.6272;-0.3219;0.6087;-0.5601
0000571471;-2.2003;-10.5489;3.2441;-0.1122;0.7429;-0.6944
0000571479;-3.8642;-10.8266;3.2920;0.0211;0.7276;-0.8011
0000571487;-5.0494;-10.6949;3.7565;0.1340;0.6570;-0.8695
0000571499;-5.5474;-8.8418;4.4891;0.2870;0.5067;-0.8808
0000571507;-5.2625;-7.2951;4.8100;0.3235;0.4030;-0.8609
0000571518;-4.6878;-6.0932;4.8818;0.3091;0.2783;-0.8207
0000571526;-3.7972;-5.2529;4.9752;0.2654;0.2073;-0.7819
0000571538;-2.8994;-4.5107;5.1092;0.1845;0.1544;-0.7735
0000571546;-2.3008;-5.2098;4.9201;0.1167;0.1444;-0.7568
0000571610;-1.2665;-7.0030;5.4420;0.1600;0.0754;-0.5726
0000571618;-1.1420;-6.5625;5.5234;0.1572;0.0616;-0.5774
0000571626;-1.1325;-6.2297;5.6455;0.1508;0.0544;-0.5586
0000571638;-1.4485;-6.0238;5.7940;0.1286;0.0308;-0.5243
0000571646;-1.4437;-5.7221;5.8658;0.0965;0.0301;-0.4844
0000571657;-1.4246;-5.3127;5.6623;0.0468;0.0185;-0.4040
0000571665;-1.5251;-5.2912;5.4779;-0.0049;0.0087;-0.3190
0000571677;-1.7621;-5.2289;5.3319;-0.0769;-0.0200;-0.1966
0000571685;-2.0016;-5.6383;5.2122;-0.1328;-0.0330;-0.1132
0000571696;-2.0997;-5.9352;5.1188;-0.2082;-0.0336;0.0100
0000571704;-2.3559;-6.2872;5.0350;-0.2501;-0.0418;0.0823
0000571716;-2.6432;-6.6319;4.8842;-0.3111;-0.0533;0.1864
0000571724;-3.1699;-6.9504;4.8291;-0.3361;-0.0540;0.2650
0000571732;-3.0670;-7.0126;4.9560;-0.3357;-0.0529;0.3323
0000571743;-3.3327;-7.0797;5.0182;-0.3080;-0.0589;0.4315
0000571751;-3.1891;-7.0773;4.8602;-0.2887;-0.0514;0.4928
0000571763;-2.8659;-6.8163;4.7262;-0.2581;-0.0452;0.5339
0000571771;-2.5259;-6.8809;4.6280;-0.2446;-0.0310;0.5444
0000571782;-2.3343;-6.9983;4.4796;-0.2217;-0.0187;0.5433
0000571790;-2.1093;-6.9552;4.3167;-0.2057;-0.0253;0.5276
0000571802;-2.1021;-7.1587;4.2928;-0.1811;-0.0205;0.4770
0000571810;-2.1069;-7.0988;4.4245;-0.1671;-0.0280;0.4243
0000571874;-2.4157;-7.0102;4.4819;-0.0203;-0.1340;0.1443
0000571882;-2.3727;-6.6990;4.4388;-0.0111;-0.1324;0.1407
0000571890;-2.4205;-6.6535;4.4197;-0.0185;-0.1284;0.1371
0000571902;-2.1165;-6.3207;4.3407;-0.0163;-0.1400;0.1219
0000571910;-2.2362;-6.4643;4.4508;-0.0225;-0.1296;0.1010
0000571921;-2.0063;-6.4021;4.3120;-0.0208;-0.1151;0.0810
0000571929;-1.9465;-6.6990;4.3215;-0.0297;-0.1030;0.0655
0000571941;-2.1907;-6.9288;4.1659;-0.0354;-0.0743;0.0542
0000571949;-2.0686;-6.7876;4.1228;-0.0398;-0.0625;0.0577
0000571960;-2.0853;-6.6750;4.0917;-0.0425;-0.0410;0.0629
0000571968;-2.4660;-6.7493;4.0031;-0.0434;-0.0421;0.0629
0000571976;-2.6001;-6.6463;3.8499;-0.0481;-0.0297;0.0620
0000571988;-2.9185;-6.5266;3.8954;-0.0596;-0.0329;0.0397
0000571996;-2.7318;-6.4260;3.8116;-0.0782;-0.0412;0.0208
0000572007;-2.8323;-6.4356;3.8858;-0.0887;-0.0460;0.0183
0000572015;-2.7916;-6.4021;3.8595;-0.1034;-0.0476;0.0233
0000572027;-2.8587;-6.2991;3.5578;-0.1243;-0.0414;0.0422
0000572035;-2.8228;-6.4069;3.5841;-0.1573;-0.0434;0.0420
0000572046;-2.7533;-5.9400;3.6990;-0.1795;-0.0432;0.0705
0000572054;-2.8850;-5.8442;3.6344;-0.1981;-0.0406;0.0825
0000572066;-2.8204;-5.7126;3.5913;-0.2349;-0.0392;0.0966
0000572074;-2.7342;-6.1028;3.2896;-0.2730;-0.0342;0.1178
0000572082;-2.7414;-5.8610;3.3423;-0.3016;-0.0240;0.1250
0000572145;-1.8435;-6.3566;3.4285;-0.4591;0.1190;0.1860
0000572153;-1.9154;-6.2752;3.5147;-0.4594;0.1657;0.2065
0000572165;-2.2098;-6.3422;3.5051;-0.4640;0.2069;0.2178
0000572173;-2.6073;-6.1531;3.5362;-0.4702;0.2129;0.2126
0000572184;-3.2585;-6.3063;3.6344;-0.4763;0.1864;0.2096
0000572192;-3.4093;-6.3398;3.6296;-0.4692;0.1533;0.2024
0000572204;-3.5937;-5.8514;3.4429;-0.4550;0.1050;0.2185
0000572212;-3.9720;-5.7341;3.4668;-0.4419;0.0681;0.2394
0000572220;-4.0127;-5.6360;3.2106;-0.4479;0.0410;0.2601
0000572231;-3.9792;-5.5067;3.3686;-0.4644;-0.0173;0.2742
0000572239;-4.1851;-5.7102;4.1372;-0.4469;-0.0496;0.2999
0000572251;-5.6503;-7.4412;6.5338;-0.2365;-0.0987;0.3784
0000572259;-7.4029;-8.9807;4.8387;-0.0534;-0.1302;0.4918
0000572270;-6.5721;-11.2719;4.0941;0.0489;-0.2350;0.6003
0000572278;-3.9816;-11.5017;4.3144;0.1144;-0.2621;0.6639
0000572290;-0.7398;-7.2640;3.5937;0.2193;-0.0646;0.5951
0000572298;0.1173;-5.5115;2.9808;0.1510;0.0492;0.4750
0000572309;0.0120;-4.1013;3.6751;0.0374;0.1027;0.2847
0000572317;-1.1420;-3.2657;4.6711;-0.0099;0.1655;0.2697
0000572325;-2.8323;-2.8371;5.1858;-0.0192;0.1847;0.3664
0000572337;-4.1635;-4.3670;5.3630;-0.0695;0.0735;0.5068
0000572345;-4.3359;-5.5450;5.5617;-0.0958;0.0197;0.6395
0000572412;-1.8148;-5.6383;4.5514;-0.1031;0.0946;0.5697
0000572420;-1.7262;-5.1284;4.3718;-0.1380;0.1215;0.5581
0000572432;-2.0614;-5.3391;4.4676;-0.2020;0.1268;0.5393
0000572440;-2.1691;-5.4468;4.4532;-0.2274;0.1150;0.5204
0000572451;-2.3750;-6.0094;4.4604;-0.2547;0.1244;0.5091
0000572459;-2.2458;-6.2393;4.4101;-0.2583;0.1224;0.4940
0000572467;-2.3415;-6.4308;4.2880;-0.2543;0.1288;0.4879
0000572479;-2.4995;-6.7516;4.3096;-0.2161;0.1160;0.5013
0000572487;-2.3583;-6.5529;4.3024;-0.1845;0.0991;0.5205
0000572498;-2.3487;-6.3662;4.2617;-0.1644;0.0693;0.5275
0000572506;-2.2673;-6.2728;4.4005;-0.1539;0.0406;0.5264
0000572518;-2.0590;-5.7988;4.4556;-0.1667;0.0265;0.5299
0000572526;-1.9537;-5.4755;4.4460;-0.1857;0.0189;0.5263
0000572537;-2.1715;-5.4923;4.6112;-0.2152;0.0089;0.5073
0000572545;-2.2434;-5.4324;4.6998;-0.2446;0.0080;0.4972
0000572553;-2.0997;-5.2744;4.7716;-0.2631;0.0031;0.4743
0000572565;-2.3750;-5.9472;4.7812;-0.2955;0.0059;0.4655
0000572573;-2.2098;-6.2632;4.6208;-0.2964;-0.0011;0.4482
0000572584;-1.9680;-6.4883;4.5179;-0.2907;-0.0039;0.4421
0000572592;-1.8866;-6.6487;4.5753;-0.2777;-0.0072;0.4259
0000572604;-1.8794;-6.6104;4.6759;-0.2674;-0.0115;0.3957
0000572612;-1.9465;-6.7133;4.7381;-0.2729;-0.0139;0.3880
0000572680;-2.9090;-6.3973;4.9560;-0.2418;-0.0632;0.3154
0000572688;-2.9113;-6.2393;4.9297;-0.2393;-0.0540;0.2610
0000572696;-3.0311;-6.2704;4.8459;-0.2258;-0.0460;0.1931
0000572708;-3.1675;-6.2608;4.6687;-0.2117;-0.0409;0.0953
0000572716;-2.8706;-6.0908;4.5921;-0.2109;-0.0282;0.0317
0000572728;-2.8611;-6.2345;4.5586;-0.2030;-0.0226;-0.0481
0000572736;-2.8108;-6.1675;4.5490;-0.1994;-0.0208;-0.0806
0000572748;-2.6719;-6.1387;4.5179;-0.1845;-0.0232;-0.1126
0000572756;-2.5259;-6.0813;4.5083;-0.1941;-0.0076;-0.1178
0000572768;-2.6264;-5.9783;4.3646;-0.1916;0.0103;-0.1187
0000572776;-2.8395;-6.0118;4.3958;-0.1836;0.0095;-0.1295
0000572787;-2.5211;-5.5809;4.3431;-0.1911;0.0036;-0.1327
0000572795;-2.7318;-5.5378;4.4269;-0.1944;-0.0107;-0.1439
0000572807;-2.8443;-5.4396;4.4388;-0.2004;-0.0348;-0.1510
0000572815;-2.7533;-5.3678;4.4484;-0.2122;-0.0641;-0.1568
0000572823;-2.4732;-5.4205;4.4963;-0.2197;-0.0886;-0.1472
0000572835;-2.4110;-5.5545;4.3886;-0.2465;-0.0970;-0.1194
0000572843;-2.4181;-5.6551;4.3742;-0.2685;-0.1147;-0.0950
0000572855;-2.5426;-5.7796;4.2904;-0.2870;-0.1428;-0.0333
0000572863;-2.4660;-5.8610;4.3718;-0.3038;-0.1556;0.0061
0000572875;-2.4157;-5.5617;4.4388;-0.3180;-0.1788;0.0326
0000572883;-2.6624;-5.8203;4.2760;-0.3178;-0.1981;0.0333
0000572951;-2.4756;-6.1292;4.1803;-0.2806;-0.1604;0.0264
0000572959;-2.4541;-6.0358;4.1420;-0.2579;-0.1573;0.0234
0000572971;-2.3918;-5.9544;4.0438;-0.2330;-0.1565;0.0089
0000572979;-2.6671;-6.1292;4.1611;-0.2142;-0.1492;0.0008
0000572987;-2.8180;-6.2513;4.0821;-0.1851;-0.1584;-0.0185
0000572999;-2.6217;-6.2249;4.0989;-0.1447;-0.1510;-0.0450
0000573007;-2.6911;-6.3422;4.0462;-0.1026;-0.1515;-0.0729
0000573019;-2.5450;-6.4428;3.8834;-0.0458;-0.1284;-0.1038
0000573027;-2.5259;-6.5769;3.7517;-0.0113;-0.1127;-0.1211
0000573039;-2.5259;-6.5984;3.7589;0.0518;-0.0853;-0.1475
0000573047;-2.4445;-6.4907;3.7038;0.0942;-0.0761;-0.1671
0000573059;-2.7581;-6.6702;3.6248;0.1438;-0.0609;-0.1663
0000573067;-2.5283;-6.3805;3.6392;0.1684;-0.0640;-0.1673
0000573079;-2.6073;-6.5266;3.4955;0.2156;-0.0737;-0.1699
0000573087;-2.6911;-6.4021;3.4979;0.2502;-0.0810;-0.1645
0000573095;-2.5618;-6.2656;3.3040;0.2754;-0.0834;-0.1551
0000573107;-2.6073;-6.2632;3.4500;0.3172;-0.0825;-0.1612
0000573115;-2.6935;-6.2728;3.2801;0.3404;-0.0749;-0.1640
0000573127;-2.7485;-6.0286;3.3064;0.3615;-0.0566;-0.1568
0000573135;-2.6983;-5.8371;3.3758;0.3744;-0.0360;-0.1496
0000573147;-2.6695;-5.5905;3.3088;0.3794;-0.0160;-0.1482
0000573155;-2.4708;-5.3534;3.3399;0.3833;-0.0123;-0.1508
0000573223;-2.9880;-5.9735;3.3998;0.2435;-0.0222;-0.0994
0000573231;-2.9880;-5.8802;3.3615;0.2342;-0.0296;-0.0954
0000573243;-2.9640;-6.0813;3.3639;0.2357;-0.0400;-0.0918
0000573251;-3.1173;-6.2489;3.2585;0.2402;-0.0485;-0.0957
0000573259;-3.0191;-6.3877;3.2825;0.2515;-0.0513;-0.0995
0000573271;-2.9712;-6.3422;3.2082;0.2677;-0.0536;-0.1019
0000573279;-3.0670;-6.3446;3.0670;0.2858;-0.0478;-0.0994
0000573291;-2.9999;-6.3925;2.9664;0.3126;-0.0492;-0.1083
0000573299;-3.0287;-6.4165;2.9425;0.3352;-0.0474;-0.1214
0000573311;-2.9616;-6.6080;3.1005;0.3589;-0.0313;-0.1447
0000573319;-3.2992;-6.6439;3.9169;0.3576;-0.0250;-0.1585
0000573331;-4.4843;-4.7573;5.0781;0.2566;-0.0422;-0.2032
0000573339;-5.8945;-3.5530;4.0438;0.1569;-0.0657;-0.2912
0000573351;-4.1563;-2.6240;4.7621;0.0889;-0.1439;-0.4758
0000573359;-2.5498;-3.9409;5.3391;-0.0201;-0.1146;-0.5393
0000573367;-1.5778;-5.3247;4.4796;-0.0837;-0.0352;-0.5540
0000573379;-1.6951;-6.2608;3.5123;-0.1014;-0.0169;-0.5236
0000573387;-1.8316;-6.8259;4.1659;-0.1033;-0.0436;-0.4867
0000573399;-2.3200;-7.2065;5.4947;-0.1503;-0.0759;-0.4355
0000573407;-3.1699;-6.5457;5.5210;-0.2165;-0.1136;-0.4527
0000573419;-3.8020;-5.4803;5.7772;-0.3170;-0.1316;-0.5320
0000573427;-3.6224;-5.2936;6.0478;-0.3816;-0.0994;-0.5761
0000573496;-2.6887;-7.1108;4.9536;-0.0516;0.0858;-0.3762
0000573503;-2.8060;-6.9336;4.9728;-0.0075;0.0851;-0.3445
0000573515;-2.3128;-6.4452;4.7333;0.0414;0.0573;-0.2871
0000573523;-2.0877;-6.3303;4.4700;0.0616;0.0381;-0.2602
0000573531;-2.0590;-6.4596;4.4221;0.0564;0.0430;-0.2372
0000573543;-2.0949;-6.3446;4.3120;0.0517;0.0558;-0.2394
0000573551;-2.1811;-6.3327;4.2401;0.0446;0.0739;-0.2591
0000573563;-2.4972;-6.2321;4.1492;0.0309;0.0798;-0.3194
0000573571;-2.3343;-6.0525;4.0893;0.0055;0.0689;-0.3511
0000573583;-2.5091;-6.0932;4.1611;-0.0282;0.0416;-0.3734
0000573591;-2.1979;-6.0358;4.1779;-0.0496;0.0104;-0.3580
0000573603;-1.8747;-5.8945;4.2210;-0.1051;-0.0009;-0.3027
0000573611;-1.9704;-5.9328;4.1803;-0.1483;-0.0069;-0.2665
0000573623;-2.2075;-5.9256;4.2928;-0.2096;0.0000;-0.2214
0000573631;-2.3200;-6.0071;4.4053;-0.2429;-0.0105;-0.2016
0000573639;-2.4756;-6.0478;4.3670;-0.2747;-0.0117;-0.1779
0000573651;-2.4038;-5.9807;4.4412;-0.3084;-0.0115;-0.1503
0000573659;-2.4181;-6.1363;4.3431;-0.3272;-0.0037;-0.1314
0000573671;-2.3966;-6.3039;4.2689;-0.3456;-0.0044;-0.1190
0000573679;-2.2936;-6.3542;4.3407;-0.3569;-0.0072;-0.1045
0000573691;-2.2601;-6.3877;4.3239;-0.3664;-0.0127;-0.0987
0000573699;-2.3942;-6.5410;4.4939;-0.3717;-0.0215;-0.0949
0000573768;-2.5211;-7.1108;4.6352;-0.2991;-0.0686;-0.0052
0000573777;-2.6217;-7.2520;4.7549;-0.2687;-0.0771;-0.0019
0000573790;-2.4445;-7.2209;4.6926;-0.2414;-0.0850;0.0131
0000573799;-2.2817;-7.2496;4.7477;-0.2166;-0.0906;0.0188
0000573808;-2.2338;-7.1778;4.7309;-0.1960;-0.0859;0.0199
0000573821;-2.2913;-7.1970;4.7022;-0.1604;-0.0914;0.0152
0000573830;-2.1644;-7.1012;4.6400;-0.1440;-0.0850;0.0124
0000573843;-2.1715;-7.1347;4.8243;-0.1168;-0.0867;-0.0001
0000573852;-2.0159;-6.8714;4.8123;-0.0985;-0.0866;-0.0111
0000573865;-1.9369;-6.8666;4.7860;-0.0925;-0.0714;-0.0293
0000573874;-1.7957;-6.7038;4.8147;-0.0877;-0.0578;-0.0472
0000573887;-1.7358;-6.5362;4.7046;-0.0919;-0.0342;-0.0726
0000573896;-1.8244;-6.5673;4.7357;-0.0979;-0.0196;-0.0930
0000573909;-1.6496;-6.5050;4.6926;-0.1046;0.0135;-0.1192
0000573918;-1.6400;-6.3303;4.5657;-0.1075;0.0337;-0.1464
0000573931;-1.7142;-6.1435;4.5083;-0.1255;0.0584;-0.1713
0000573940;-1.7478;-5.9903;4.5155;-0.1486;0.0717;-0.1767
0000573949;-2.3727;-6.1555;4.4556;-0.1643;0.0722;-0.1804
0000573962;-2.7414;-6.1603;4.4819;-0.1994;0.0529;-0.1716
0000573971;-3.3136;-6.4093;4.3718;-0.2350;0.0278;-0.1368
0000573984;-3.7206;-6.2944;4.5011;-0.2646;-0.0364;-0.0778
0000573993;-3.8188;-6.4548;4.5538;-0.2854;-0.0726;-0.0229
0000574062;-2.7869;-6.9240;4.3024;-0.2694;-0.1729;0.2224
0000574071;-2.6767;-6.8019;4.4173;-0.2699;-0.1863;0.2304
0000574084;-2.9066;-6.8714;4.4365;-0.2749;-0.2056;0.2493
0000574093;-2.8730;-6.9935;4.4724;-0.2844;-0.2108;0.2633
0000574106;-2.5594;-6.7852;4.3838;-0.2886;-0.2270;0.2719
0000574115;-2.3798;-6.6894;4.3886;-0.2916;-0.2266;0.2690
0000574124;-2.2386;-6.6128;4.2784;-0.2930;-0.2266;0.2457
0000574137;-2.4229;-6.8522;4.1683;-0.3048;-0.2170;0.2336
0000574146;-2.4301;-6.6798;4.1444;-0.3151;-0.2121;0.2205
0000574159;-2.7150;-6.7301;4.2784;-0.3138;-0.2238;0.1915
0000574168;-2.6576;-6.8307;4.2521;-0.3095;-0.2265;0.1736
0000574184;-2.8611;-6.9360;4.1444;-0.2773;-0.2330;0.1804
0000574193;-2.8467;-6.8474;4.1132;-0.2766;-0.2306;0.1891
0000574206;-2.6743;-6.5290;4.1635;-0.2683;-0.2292;0.1917
0000574215;-2.7725;-6.5003;4.2593;-0.2630;-0.2260;0.1881
0000574227;-2.6049;-6.3494;4.1228;-0.2670;-0.2125;0.1873
0000574236;-2.6193;-6.2273;4.0079;-0.2811;-0.2004;0.1829
0000574245;-2.4157;-6.1148;3.9840;-0.2907;-0.1932;0.1799
0000574314;-2.6528;-6.0525;3.8140;-0.4057;-0.1108;0.1992
0000574323;-2.8252;-6.0741;3.8188;-0.4128;-0.1042;0.2029
0000574335;-2.7198;-6.0286;3.7302;-0.4169;-0.0829;0.2172
0000574344;-2.9401;-6.2393;3.7134;-0.4098;-0.0831;0.2234
0000574357;-2.7533;-5.8562;3.6966;-0.4146;-0.0738;0.2341
0000574366;-2.7102;-5.8897;3.6464;-0.4205;-0.0610;0.2348
0000574378;-2.7270;-5.8371;3.7110;-0.4278;-0.0624;0.2281
0000574387;-2.6336;-5.8514;3.6440;-0.4273;-0.0630;0.2177
0000574396;-2.6169;-5.8323;3.6512;-0.4374;-0.0512;0.2146
0000574409;-2.5929;-6.0573;3.5913;-0.4374;-0.0329;0.2084
0000574418;-2.5857;-6.1746;3.6895;-0.4287;-0.0242;0.2025
0000574430;-2.4062;-5.7413;3.5937;-0.4211;0.0131;0.1970
0000574439;-2.3942;-5.9568;3.6607;-0.4165;0.0274;0.1880
0000574452;-2.4229;-5.6719;3.6344;-0.4154;0.0554;0.1743
0000574461;-2.4229;-5.6048;3.4644;-0.4189;0.0669;0.1645
0000574473;-2.4421;-5.5186;3.5985;-0.4278;0.0873;0.1629
0000574482;-2.3655;-5.4516;3.4477;-0.4449;0.1123;0.1623
0000574495;-2.4421;-5.3151;3.2801;-0.4791;0.1372;0.1684
0000574504;-2.6384;-5.2625;3.1987;-0.4992;0.1499;0.1796
0000574513;-3.1220;-5.5617;3.5099;-0.5129;0.1395;0.2054
0000574525;-4.0773;-6.6224;4.5466;-0.4764;0.0469;0.2310
0000574534;-4.9847;-7.6112;5.2553;-0.3893;-0.0604;0.2470
0000574603;-1.4389;-4.1803;3.9385;-0.0861;0.3564;0.6448
0000574612;-2.0853;-3.8642;4.1396;-0.1797;0.3737;0.6688
0000574624;-3.0622;-3.8116;4.0031;-0.3313;0.3821;0.7601
0000574633;-3.4524;-4.0654;4.0462;-0.4461;0.3376;0.8535
0000574646;-4.1156;-4.8028;4.4365;-0.5650;0.2392;0.9887
0000574655;-4.5035;-5.5306;4.4221;-0.6091;0.1496;1.0708
0000574664;-4.4843;-6.2680;4.5849;-0.6214;0.0682;1.1141
0000574676;-4.2306;-6.8666;4.6831;-0.6179;-0.0192;1.1068
0000574685;-3.6344;-7.0581;4.7142;-0.6017;-0.0630;1.0507
0000574698;-3.0526;-7.1515;4.8076;-0.5836;-0.0572;0.9398
0000574707;-2.6504;-7.0820;4.6639;-0.5830;-0.0302;0.8632
0000574719;-2.2242;-6.5697;4.5873;-0.5914;0.0097;0.7691
0000574728;-2.0925;-6.4548;4.6471;-0.6015;0.0388;0.7088
0000574741;-2.1428;-6.0478;4.8052;-0.6310;0.0746;0.6576
0000574750;-2.2865;-5.9280;4.7501;-0.6522;0.0887;0.6392
0000574759;-2.5929;-5.9328;4.7980;-0.6764;0.0858;0.6189
0000574771;-2.7198;-6.2537;4.8100;-0.6919;0.0636;0.5979
0000574780;-2.6528;-6.5338;4.8123;-0.6961;0.0376;0.5845
0000574793;-2.7414;-6.8043;4.7309;-0.6797;0.0044;0.5582
0000574802;-2.5618;-6.9408;4.7333;-0.6692;-0.0128;0.5332
0000574814;-2.5283;-7.2281;4.6328;-0.6359;-0.0318;0.4963
0000574823;-2.2913;-7.1012;4.5897;-0.6233;-0.0389;0.4696
0000574890;-2.3080;-6.3183;4.3503;-0.5674;0.0230;0.3118
0000574899;-2.3463;-6.2106;4.3742;-0.5732;0.0290;0.3079
0000574908;-2.5402;-6.3255;4.3718;-0.5886;0.0273;0.3067
0000574920;-2.4038;-6.1435;4.1994;-0.6077;0.0288;0.3094
0000574929;-2.6695;-6.2608;4.2617;-0.6189;0.0184;0.3168
0000574942;-2.6121;-6.1770;4.2665;-0.6440;0.0184;0.3364
0000574951;-2.4110;-6.2441;4.2569;-0.6608;0.0101;0.3460
0000574963;-2.3798;-6.2920;4.3670;-0.6879;0.0053;0.3647
0000574972;-2.3200;-6.2106;4.4508;-0.7055;0.0176;0.3869
0000574985;-2.3224;-6.2632;4.3838;-0.7189;0.0105;0.4036
0000574994;-2.3104;-6.2632;4.3503;-0.7289;0.0124;0.4114
0000575006;-2.3152;-6.3183;4.3910;-0.7258;0.0188;0.4121
0000575015;-2.2769;-6.3853;4.3455;-0.7229;0.0236;0.4062
0000575024;-2.1620;-6.3542;4.3215;-0.7112;0.0365;0.4008
0000575037;-2.1165;-6.3327;4.1755;-0.6960;0.0542;0.3877
0000575046;-2.3224;-6.4883;4.2018;-0.6779;0.0666;0.3734
0000575058;-2.2769;-6.5673;4.0821;-0.6550;0.0825;0.3561
0000575067;-2.3104;-6.5936;4.0725;-0.6281;0.0954;0.3371
0000575080;-2.5211;-6.6319;4.1037;-0.5955;0.1112;0.3191
0000575089;-2.5570;-6.6152;4.1037;-0.5670;0.1151;0.2928
0000575101;-2.5714;-6.5003;3.9576;-0.5325;0.1154;0.2713
0000575110;-2.6001;-6.6631;3.9648;-0.5039;0.1106;0.2405
0000575119;-2.5833;-6.6080;3.9887;-0.4796;0.1154;0.2169
0000575186;-2.7749;-6.1938;4.0989;-0.4149;0.0857;0.0847
0000575195;-2.8515;-6.2489;4.2066;-0.4193;0.0869;0.0925
0000575207;-2.7773;-6.1411;4.1084;-0.4323;0.0765;0.0985
0000575216;-2.6695;-6.1076;4.1468;-0.4439;0.0697;0.0982
0000575229;-2.6456;-6.0047;4.1372;-0.4600;0.0714;0.1087
0000575238;-2.7342;-5.9472;4.0989;-0.4740;0.0758;0.1212
0000575250;-2.6408;-5.9520;4.0725;-0.4947;0.0658;0.1283
0000575259;-2.8252;-5.9951;4.0917;-0.5028;0.0632;0.1432
0000575268;-2.6767;-5.8634;4.2353;-0.5089;0.0642;0.1608
0000575281;-2.6743;-5.9209;4.0797;-0.5196;0.0458;0.1664
0000575290;-2.6600;-6.0478;4.0270;-0.5312;0.0324;0.1647
0000575302;-2.7557;-6.3135;3.9768;-0.5313;0.0187;0.1677
0000575311;-2.9185;-6.3255;3.9768;-0.5356;0.0153;0.1716
0000575324;-2.9473;-6.5146;3.9552;-0.5285;-0.0011;0.1624
0000575333;-3.2825;-6.6990;4.0007;-0.5193;-0.0204;0.1522
0000575345;-3.1987;-6.6535;4.0630;-0.5096;-0.0385;0.1403
0000575354;-3.2441;-6.7493;4.0414;-0.4986;-0.0482;0.1392
0000575363;-3.0909;-6.6343;4.1013;-0.4907;-0.0670;0.1290
0000575376;-3.2753;-6.6535;4.0965;-0.4746;-0.1034;0.1014
0000575385;-3.2585;-6.8043;4.2066;-0.4742;-0.1139;0.0953
0000575397;-3.3208;-6.8115;4.2737;-0.4667;-0.1344;0.0785
0000575406;-3.1244;-6.7157;4.2641;-0.4714;-0.1379;0.0719
0000575473;-2.1739;-6.4907;4.4652;-0.4519;-0.1676;0.0464
0000575482;-2.2458;-6.5098;4.5226;-0.4482;-0.1486;0.0476
0000575494;-2.2577;-6.2991;4.4963;-0.4572;-0.1272;0.0518
0000575503;-2.4253;-6.3015;4.6376;-0.4587;-0.1390;0.0542
0000575516;-2.4253;-6.1507;4.5729;-0.4730;-0.1376;0.0755
0000575525;-2.5402;-6.2201;4.6543;-0.4902;-0.1422;0.0767
0000575534;-2.4157;-5.9568;4.6567;-0.5153;-0.1334;0.0855
0000575546;-2.1237;-5.9520;4.5035;-0.5304;-0.1310;0.1013
0000575555;-2.2482;-5.9448;4.4365;-0.5474;-0.1098;0.1195
0000575568;-2.2242;-5.9568;4.2832;-0.5709;-0.0835;0.1314
0000575577;-2.1069;-5.9113;4.3766;-0.5864;-0.0512;0.1452
0000575589;-2.3942;-6.0286;4.2856;-0.5991;-0.0234;0.1595
0000575598;-2.6073;-6.1435;4.1803;-0.6095;-0.0281;0.1559
0000575611;-2.7102;-6.1986;4.2258;-0.6235;-0.0230;0.1565
0000575620;-2.8204;-6.3758;4.0079;-0.6261;-0.0377;0.1519
0000575631;-3.2058;-6.5218;3.9768;-0.6319;-0.0350;0.1479
0000575640;-3.0861;-6.6918;3.9289;-0.6371;-0.0489;0.1314
0000575649;-3.2226;-6.7109;3.9265;-0.6503;-0.0469;0.1286
0000575663;-3.1053;-6.8833;3.8978;-0.6536;-0.0753;0.1254
0000575672;-3.0335;-6.8139;3.9672;-0.6436;-0.0889;0.1170
0000575685;-2.6647;-6.8570;3.8283;-0.6310;-0.0746;0.1086
0000575694;-3.0071;-7.1682;3.6823;-0.6057;-0.0819;0.0870
0000575762;-2.6001;-7.1012;3.4477;-0.3034;-0.0850;0.0330
0000575771;-2.5690;-7.0342;3.5075;-0.2582;-0.0879;0.0534
0000575784;-2.8491;-7.1730;3.4069;-0.2209;-0.0881;0.0586
0000575793;-2.5762;-6.8426;3.4165;-0.1955;-0.0869;0.0722
0000575802;-2.4636;-6.7995;3.3830;-0.1727;-0.0626;0.0795
0000575814;-2.5714;-6.7732;3.2968;-0.1415;-0.0465;0.0958
0000575823;-2.6815;-6.7397;3.5530;-0.1336;-0.0362;0.0829
0000575836;-2.6600;-6.7900;3.3758;-0.1210;-0.0127;0.0906
0000575845;-2.7725;-6.8067;3.4812;-0.1083;-0.0117;0.0890
0000575857;-2.8922;-6.9647;3.3998;-0.1025;-0.0012;0.1100
0000575866;-2.7031;-6.8953;3.4381;-0.0994;0.0192;0.1408
0000575879;-2.6839;-6.8498;3.2298;-0.0823;-0.0047;0.1599
0000575888;-2.6887;-6.7397;3.1819;-0.0699;0.0027;0.1876
0000575900;-2.7390;-6.7109;3.1795;-0.0450;-0.0087;0.2021
0000575909;-2.8108;-6.6319;3.3136;-0.0293;-0.0177;0.2246
0000575918;-2.8419;-6.4763;3.4907;-0.0209;-0.0242;0.2313
0000575931;-3.1149;-6.2991;3.3662;-0.0037;-0.0280;0.2405
0000575940;-3.1101;-6.2201;3.4716;0.0035;-0.0316;0.2373
0000575952;-3.1747;-5.7916;4.0079;-0.0064;-0.0393;0.2209
0000575961;-3.3040;-5.3175;4.4053;-0.0289;-0.0616;0.2000
0000575974;-3.9863;-4.5562;4.8674;-0.0954;-0.0621;0.1219
0000575983;-4.3527;-3.9768;4.9775;-0.1747;-0.0570;0.0136
0000576051;-1.4988;-8.7197;4.3024;-0.4683;-0.0622;-0.0766
0000576060;-1.6137;-9.0692;4.1396;-0.4221;-0.0361;-0.0489
0000576073;-2.0039;-8.8490;4.1061;-0.3467;0.0080;-0.0284
0000576082;-2.3511;-8.3390;4.0725;-0.2907;0.0064;-0.0266
0000576091;-2.6839;-7.8554;4.0247;-0.2601;-0.0061;-0.0209
0000576103;-2.6671;-7.3191;3.9672;-0.2257;-0.0230;-0.0193
0000576112;-2.5762;-6.7157;4.2689;-0.2221;-0.0035;-0.0115
0000576125;-2.4588;-5.9209;4.2808;-0.2659;0.0578;-0.0027
0000576134;-2.6647;-5.8490;4.2258;-0.3194;0.0883;0.0027
0000576146;-2.7940;-5.5593;4.3239;-0.4000;0.0911;0.0393
0000576155;-2.9592;-5.6096;4.3646;-0.4583;0.0806;0.0642
0000576168;-2.7102;-5.9496;4.3263;-0.5259;0.0520;0.1196
0000576177;-2.5714;-6.2249;4.3407;-0.5833;0.0556;0.1771
0000576189;-2.3152;-6.6511;4.4341;-0.6249;0.0617;0.2372
0000576198;-2.4349;-6.9145;4.3359;-0.6478;0.0702;0.2766
0000576207;-2.3750;-6.9959;4.3191;-0.6432;0.0735;0.2975
0000576220;-2.4253;-7.0868;4.3263;-0.6463;0.0758;0.3228
0000576229;-2.6073;-7.1347;4.4341;-0.6395;0.0605;0.3258
0000576241;-2.4253;-6.6152;4.6400;-0.6558;0.0341;0.3397
0000576250;-2.5019;-6.4548;4.6232;-0.6769;0.0337;0.3573
0000576263;-2.5929;-6.1459;4.6543;-0.7033;0.0153;0.3734
0000576272;-2.5762;-6.1268;4.5562;-0.7241;0.0111;0.3780
0000576340;-2.4780;-6.9528;4.5011;-0.7153;0.0031;0.3652
0000576349;-2.4972;-6.9432;4.5466;-0.7165;-0.0211;0.3607
0000576358;-2.3655;-6.6894;4.7285;-0.7202;-0.0309;0.3493
0000576371;-2.0518;-6.6942;4.7812;-0.7196;-0.0329;0.3453
0000576380;-1.8459;-6.4691;4.6855;-0.7184;-0.0300;0.3352
0000576392;-1.7717;-6.4572;4.6424;-0.7200;-0.0171;0.3178
0000576401;-1.7837;-6.3470;4.7262;-0.7210;-0.0024;0.2980
0000576414;-1.7837;-6.3183;4.6615;-0.7161;0.0155;0.2557
0000576423;-1.8842;-6.1148;4.6208;-0.7189;0.0196;0.2294
0000576435;-2.0399;-6.0023;4.7501;-0.7222;0.0125;0.1811
0000576444;-2.3655;-6.1076;4.7070;-0.7216;0.0101;0.1577
0000576453;-2.1859;-5.9209;4.6424;-0.7290;0.0115;0.1394
0000576466;-2.6600;-6.0214;4.5633;-0.7288;0.0157;0.1363
0000576475;-2.6049;-5.8227;4.5753;-0.7433;0.0274;0.1452
0000576487;-2.6839;-5.7461;4.3838;-0.7651;0.0298;0.1861
0000576496;-2.9209;-5.9113;4.3862;-0.7767;0.0253;0.2209
0000576509;-2.9329;-5.8419;4.4053;-0.8188;0.0171;0.2809
0000576518;-3.3327;-5.9855;4.4077;-0.8359;0.0083;0.3308
0000576530;-3.6248;-6.2608;4.4484;-0.8460;-0.0157;0.4203
0000576539;-3.5386;-6.3590;4.4053;-0.8347;-0.0304;0.4854
0000576548;-3.5961;-6.5074;4.3862;-0.8182;-0.0616;0.5285
0000576561;-3.2441;-6.5721;4.2689;-0.7967;-0.0869;0.5657
0000576570;-2.9353;-6.5577;4.3479;-0.7813;-0.0970;0.5712
0000576638;-2.5115;-6.0932;4.0294;-0.9244;-0.1198;0.5129
0000576647;-2.6671;-5.9759;4.0486;-0.9441;-0.1158;0.5204
0000576660;-2.6695;-6.1244;3.9241;-0.9606;-0.1053;0.5339
0000576669;-2.7246;-6.3494;3.8618;-0.9703;-0.1063;0.5311
0000576681;-2.9999;-6.4643;3.8762;-0.9685;-0.1095;0.5224
0000576690;-2.7773;-6.4500;3.8738;-0.9495;-0.1232;0.5004
0000576703;-2.9185;-6.6750;3.8906;-0.9297;-0.1332;0.4706
0000576712;-2.9113;-6.5697;3.8427;-0.9010;-0.1556;0.4539
0000576721;-2.9832;-6.7325;3.7709;-0.8693;-0.1696;0.4373
0000576733;-2.8036;-6.9168;3.8044;-0.8231;-0.1668;0.4117
0000576742;-2.7270;-6.7277;3.8738;-0.7979;-0.1511;0.4002
0000576755;-2.6145;-6.6679;3.8044;-0.7565;-0.1330;0.3718
0000576764;-2.3942;-6.4955;3.7637;-0.7405;-0.1162;0.3524
0000576776;-2.4062;-6.4308;3.6129;-0.7161;-0.0927;0.3220
0000576785;-2.4948;-6.4835;3.6559;-0.6892;-0.0825;0.2923
0000576798;-2.4708;-6.2130;3.5841;-0.6756;-0.0659;0.2597
0000576807;-2.5259;-6.2991;3.5147;-0.6732;-0.0486;0.2458
0000576819;-2.5235;-6.2513;3.4596;-0.6606;-0.0321;0.2298
0000576828;-2.7390;-6.2584;3.4453;-0.6562;-0.0264;0.2152
0000576837;-2.6193;-6.1962;3.4477;-0.6480;-0.0159;0.2152
0000576850;-2.9137;-6.0669;3.5338;-0.6458;0.0001;0.2181
0000576859;-2.8611;-5.8323;3.4213;-0.6376;0.0112;0.2238
0000576927;-2.7198;-6.0454;3.3136;-0.6015;0.0705;0.2554
0000576936;-2.4708;-6.3686;3.2394;-0.5985;0.0979;0.2555
0000576949;-2.4612;-6.0861;3.2417;-0.5717;0.1300;0.2547
0000576958;-2.4373;-6.1028;3.1963;-0.5625;0.1569;0.2553
0000576970;-2.5546;-6.1603;3.0981;-0.5656;0.1720;0.2671
0000576979;-2.6791;-5.9975;3.0861;-0.5662;0.1807;0.2655
0000576988;-2.7390;-5.6886;2.9185;-0.5698;0.1998;0.2777
0000577001;-3.0454;-5.4444;2.8419;-0.5925;0.2072;0.2923
0000577010;-2.9808;-5.0925;2.7126;-0.6270;0.2097;0.3048
0000577022;-3.5362;-4.7405;2.7892;-0.6812;0.1944;0.3214
0000577031;-4.1300;-4.8483;3.8211;-0.6809;0.1463;0.3756
0000577044;-5.8371;-7.6112;5.0230;-0.5864;-0.0181;0.5169
0000577053;-5.6743;-9.2799;5.0398;-0.5621;-0.0080;0.6207
0000577065;-4.5777;-10.8386;5.1236;-0.5172;0.0246;0.8295
0000577074;-3.3255;-9.3781;5.1882;-0.3545;0.0007;0.9470
0000577088;-2.9066;-8.2337;5.0015;-0.1591;0.0441;0.9878
0000577097;-3.1508;-7.8434;5.0685;-0.0866;0.0494;0.9862
0000577106;-2.2984;-6.4356;5.0829;-0.0749;0.0584;0.9502
0000577119;-1.4916;-4.3646;4.9009;-0.1727;0.1308;0.8803
0000577128;-1.2929;-3.1987;4.7740;-0.2715;0.1844;0.8499
0000577140;-1.8747;-2.7485;4.7501;-0.4351;0.2036;0.8122
0000577149;-2.1787;-2.8730;4.5633;-0.5701;0.1805;0.7838
0000577218;-2.0806;-7.8027;4.2641;-0.7564;-0.0604;0.4646
0000577227;-1.9632;-7.6686;4.1252;-0.7035;-0.0474;0.4434
0000577239;-1.6281;-7.0054;4.0917;-0.6562;-0.0104;0.4242
0000577248;-1.9872;-6.8091;4.1563;-0.6257;0.0032;0.4282
0000577257;-2.0806;-6.3015;4.1396;-0.6229;0.0180;0.4441
0000577270;-2.4828;-6.1100;4.2569;-0.6261;0.0052;0.4575
0000577279;-2.4134;-6.1699;4.2569;-0.6530;-0.0033;0.4635
0000577291;-2.4277;-6.2776;4.2210;-0.6738;-0.0207;0.4595
0000577300;-2.2410;-6.2321;4.2593;-0.6847;-0.0302;0.4610
0000577313;-2.3942;-6.4620;4.2449;-0.6861;-0.0425;0.4715
0000577322;-2.2769;-6.3255;4.3167;-0.6907;-0.0304;0.4730
0000577334;-2.4972;-6.4763;4.3718;-0.6873;-0.0306;0.4736
0000577343;-2.5379;-6.5984;4.4532;-0.6852;-0.0425;0.4596
0000577352;-2.4636;-6.4859;4.4891;-0.6787;-0.0376;0.4458
0000577365;-2.4397;-6.3566;4.4987;-0.6804;-0.0266;0.4142
0000577374;-2.2721;-6.1675;4.4460;-0.6795;-0.0107;0.3809
0000577386;-2.3104;-6.1076;4.3814;-0.6897;0.0169;0.3531
0000577395;-2.3942;-5.9807;4.2593;-0.6897;0.0404;0.3344
0000577408;-2.3559;-5.9089;4.1515;-0.7004;0.0649;0.3127
0000577417;-2.1165;-5.8466;4.1994;-0.7124;0.0838;0.3132
0000577429;-2.1308;-5.8227;3.9863;-0.7258;0.1006;0.3219
0000577438;-2.2314;-5.9879;3.9049;-0.7313;0.1088;0.3279
0000577507;-2.3870;-6.2417;4.3144;-0.8224;0.0482;0.4623
0000577514;-2.5402;-6.3422;4.2713;-0.8396;0.0473;0.4731
0000577522;-2.3367;-6.3279;4.3574;-0.8520;0.0385;0.4786
0000577533;-2.5426;-6.4356;4.3311;-0.8701;0.0441;0.4956
0000577541;-2.2889;-6.5314;4.3742;-0.8707;0.0458;0.5061
0000577553;-2.3822;-6.5122;4.3527;-0.8729;0.0585;0.5185
0000577561;-2.4708;-6.3518;4.4221;-0.8687;0.0730;0.5072
0000577572;-2.5259;-6.3446;4.4029;-0.8636;0.0805;0.4990
0000577580;-2.7533;-6.4524;4.4724;-0.8613;0.0805;0.4755
0000577592;-2.9808;-6.6343;4.4221;-0.8540;0.0865;0.4319
0000577600;-2.7869;-6.5410;4.5059;-0.8431;0.0931;0.3917
0000577608;-3.1532;-6.8354;4.2928;-0.8340;0.0881;0.3672
