time;acc_x;acc_y;acc_z;gyro_x;gyro_y;gyro_z
0000778449;6.6726;2.8635;2.2458;0.1176;0.0215;-0.0545
0000778457;6.7564;3.0406;2.2649;0.0997;0.0316;-0.0705
0000778464;6.4572;2.9616;2.1668;0.0633;0.0453;-0.0727
0000778472;6.4308;3.1053;2.2338;0.0240;0.0525;-0.0755
0000778480;6.2393;2.8778;2.1500;-0.0115;0.0524;-0.0819
0000778488;5.9903;2.8036;2.2889;-0.0305;0.0472;-0.0735
0000778496;6.1699;2.8347;2.3272;-0.0453;0.0529;-0.0681
0000778504;6.0525;2.8299;2.2913;-0.0292;0.0446;-0.0726
0000778512;5.9999;2.7845;2.3248;-0.0175;0.0418;-0.0685
0000778520;5.9065;2.7964;2.3272;-0.0112;0.0409;-0.0581
0000778528;5.8419;2.8539;2.3631;-0.0127;0.0320;-0.0466
0000778536;5.8586;2.9568;2.3727;-0.0184;0.0217;-0.0362
0000778544;6.0717;2.9616;2.3200;-0.0228;0.0065;-0.0238
0000778552;6.1531;2.9880;2.2984;-0.0264;-0.0021;-0.0043
0000778560;6.1196;2.9209;2.3176;-0.0360;-0.0125;0.0099
0000778568;6.3327;2.7629;2.3511;-0.0357;-0.0225;0.0212
0000778576;6.4236;2.6767;2.3631;-0.0238;-0.0268;0.0188
0000778584;6.5769;2.7270;2.3607;-0.0204;-0.0226;0.0201
0000778592;6.6176;2.7198;2.3583;-0.0095;-0.0224;0.0124
0000778600;6.5793;2.7605;2.3224;-0.0015;-0.0085;0.0043
0000778608;6.5817;2.7653;2.3655;-0.0019;0.0097;-0.0040
0000778616;6.5793;2.9042;2.2841;-0.0020;0.0197;-0.0260
0000778624;6.4691;2.9664;2.3128;-0.0141;0.0382;-0.0258
0000778632;6.3686;2.9760;2.2075;-0.0222;0.0430;-0.0432
0000778640;6.0813;2.8659;2.2434;-0.0338;0.0410;-0.0498
0000778648;6.0478;2.9736;2.2505;-0.0490;0.0429;-0.0428
0000778656;5.9520;2.8323;2.2960;-0.0448;0.0300;-0.0429
0000778664;5.7652;2.7102;2.2482;-0.0460;0.0298;-0.0269
0000778672;5.7748;2.6767;2.3320;-0.0326;0.0145;-0.0191
0000778680;5.9089;2.7892;2.4852;-0.0260;0.0103;-0.0065
0000778688;5.9544;2.8108;2.5163;-0.0169;0.0020;0.0047
0000778696;6.0645;2.8539;2.3870;-0.0071;-0.0063;0.0009
0000778704;6.1076;2.7078;2.4493;-0.0055;-0.0007;0.0073
0000778712;6.2776;2.7605;2.3942;-0.0124;-0.0001;0.0031
0000778720;6.4835;2.8180;2.3032;-0.0141;0.0003;-0.0032
0000778728;6.5122;3.0143;2.4134;-0.0176;0.0112;-0.0127
0000778736;6.5242;2.8778;2.3320;-0.0258;0.0191;-0.0188
0000778744;6.3710;2.7198;2.4636;-0.0225;0.0294;-0.0248
0000778752;6.4332;2.7031;2.4014;-0.0225;0.0385;-0.0244
0000778760;6.5864;2.8228;2.4900;-0.0185;0.0532;-0.0257
0000778768;6.3973;2.7916;2.4924;-0.0007;0.0574;-0.0297
0000778776;6.2656;2.6552;2.3583;0.0019;0.0714;-0.0277
0000778784;6.2153;2.7988;2.4038;-0.0003;0.0759;-0.0278
0000778792;5.9424;2.6480;2.4181;0.0035;0.0757;-0.0257
0000778800;6.2584;2.8491;2.4134;0.0040;0.0766;-0.0238
0000778808;6.0190;2.7509;2.4565;0.0100;0.0726;-0.0257
0000778816;6.1986;2.8659;2.4636;0.0053;0.0718;-0.0168
0000778824;6.1292;2.8850;2.3703;0.0029;0.0729;-0.0092
0000778832;6.1507;2.7198;2.3487;-0.0045;0.0698;-0.0076
0000778840;6.1890;2.8850;2.2984;-0.0049;0.0622;-0.0085
0000778848;6.2872;2.9353;2.2841;-0.0137;0.0600;-0.0059
0000778856;6.2034;2.9161;2.3703;-0.0273;0.0606;-0.0001
0000778864;6.1818;2.8730;2.3631;-0.0373;0.0590;-0.0049
0000778872;6.0262;2.7102;2.3391;-0.0330;0.0500;-0.0112
0000778880;6.2704;2.8826;2.3631;-0.0412;0.0568;-0.0084
0000778888;6.3542;2.8419;2.4301;-0.0416;0.0573;-0.0089
0000778896;6.3782;2.8587;2.3822;-0.0402;0.0562;-0.0149
0000778904;6.3015;2.7294;2.4038;-0.0360;0.0517;-0.0167
0000778912;6.0286;2.7557;2.4253;-0.0292;0.0514;-0.0147
0000778920;6.3015;2.7749;2.3080;-0.0277;0.0564;-0.0143
0000778928;6.1986;2.8036;2.3080;-0.0284;0.0505;-0.0173
0000778936;6.2441;2.8347;2.3248;-0.0225;0.0444;-0.0213
0000778944;6.3638;2.8874;2.3080;-0.0278;0.0428;-0.0147
0000778952;6.0693;2.7461;2.4134;-0.0230;0.0378;-0.0188
0000778960;6.0956;2.7294;2.2889;-0.0258;0.0364;-0.0200
0000778968;6.1196;2.8874;2.3104;-0.0199;0.0328;-0.0171
0000778976;6.1603;2.7677;2.2936;-0.0131;0.0199;-0.0207
0000778984;6.2058;2.8491;2.3631;-0.0132;0.0152;-0.0199
0000778992;5.9664;2.7845;2.2913;-0.0218;0.0143;-0.0131
0000779000;6.1028;2.8898;2.3583;-0.0240;0.0047;-0.0096
0000779008;6.0693;2.8994;2.2936;-0.0250;-0.0005;-0.0185
0000779016;6.0262;2.8419;2.3391;-0.0226;-0.0107;-0.0221
0000779024;6.0190;2.7054;2.4373;-0.0273;-0.0120;-0.0176
0000779051;6.1914;2.8515;2.2817;-0.0165;-0.0274;-0.0266
0000779059;6.1842;2.7725;2.2960;-0.0156;-0.0272;-0.0237
0000779067;6.1148;2.6264;2.3511;-0.0151;-0.0298;-0.0212
0000779075;6.1196;2.7102;2.3391;-0.0115;-0.0284;-0.0234
0000779083;6.2632;2.8898;2.2889;-0.0105;-0.0306;-0.0257
0000779091;6.0693;2.7581;2.4038;-0.0103;-0.0373;-0.0282
0000779099;6.3159;2.9066;2.3056;-0.0155;-0.0270;-0.0278
0000779107;6.4045;3.1292;2.3056;-0.0228;-0.0237;-0.0253
0000779115;6.3351;2.8778;2.3296;-0.0266;-0.0236;-0.0241
0000779123;6.3063;2.9137;2.3367;-0.0254;-0.0232;-0.0269
0000779131;6.3566;2.9592;2.2769;-0.0309;-0.0131;-0.0288
0000779139;6.3135;2.9808;2.3463;-0.0396;-0.0048;-0.0261
0000779147;6.2656;2.9449;2.3128;-0.0433;0.0017;-0.0252
0000779155;6.1866;2.8850;2.2721;-0.0485;0.0011;-0.0297
0000779163;6.1651;2.9353;2.3176;-0.0608;0.0159;-0.0268
0000779171;6.1004;2.7438;2.4421;-0.0681;0.0191;-0.0242
0000779179;6.0813;2.7869;2.4229;-0.0695;0.0195;-0.0326
0000779187;6.2106;2.8922;2.4038;-0.0766;0.0220;-0.0229
0000779195;6.0190;2.7629;2.3535;-0.0713;0.0205;-0.0280
0000779203;6.0908;2.8419;2.4828;-0.0661;0.0265;-0.0216
0000779211;6.0166;2.6791;2.3367;-0.0610;0.0266;-0.0281
0000779219;6.1459;2.7102;2.3798;-0.0553;0.0289;-0.0249
0000779227;5.9807;2.6887;2.3200;-0.0517;0.0340;-0.0236
0000779235;6.1052;2.6767;2.3128;-0.0462;0.0334;-0.0282
0000779243;6.1004;2.7246;2.3607;-0.0390;0.0276;-0.0337
0000779251;6.0789;2.7988;2.3655;-0.0401;0.0420;-0.0314
0000779259;6.1842;2.7653;2.3415;-0.0426;0.0388;-0.0338
0000779267;6.1579;2.7485;2.3176;-0.0392;0.0356;-0.0392
0000779275;6.2513;2.8754;2.3583;-0.0428;0.0458;-0.0338
0000779283;6.0669;2.8826;2.2889;-0.0440;0.0353;-0.0388
0000779291;6.2537;2.9592;2.3607;-0.0417;0.0390;-0.0365
0000779299;5.9161;2.8012;2.2745;-0.0414;0.0288;-0.0374
0000779307;6.1100;3.0071;2.3056;-0.0434;0.0284;-0.0304
0000779315;5.9831;2.8036;2.4062;-0.0456;0.0284;-0.0225
0000779323;5.9664;2.7677;2.2314;-0.0510;0.0262;-0.0217
0000779331;5.8083;2.7294;2.4301;-0.0562;0.0201;-0.0245
0000779339;5.9807;2.8395;2.3104;-0.0564;0.0124;-0.0230
0000779347;5.8849;2.7342;2.3703;-0.0572;0.0119;-0.0196
0000779355;6.0071;2.7892;2.3463;-0.0556;0.0117;-0.0205
0000779363;6.1196;2.7653;2.3894;-0.0602;0.0148;-0.0129
0000779371;6.1244;2.7078;2.4110;-0.0633;0.0185;-0.0133
0000779379;6.1842;2.8467;2.4110;-0.0612;0.0199;-0.0184
0000779387;6.2082;2.7485;2.3798;-0.0501;0.0175;-0.0164
0000779395;6.1579;2.6815;2.3750;-0.0557;0.0305;-0.0077
0000779403;6.2704;2.8874;2.3559;-0.0574;0.0321;-0.0077
0000779411;6.1986;2.8108;2.3798;-0.0561;0.0336;-0.0129
0000779419;6.3015;2.8874;2.3703;-0.0498;0.0349;-0.0109
0000779427;6.0980;2.7701;2.4134;-0.0506;0.0412;-0.0017
0000779435;6.1124;2.8850;2.4900;-0.0522;0.0485;0.0004
0000779443;6.1363;2.7102;2.5187;-0.0540;0.0485;-0.0017
0000779451;6.0932;2.7150;2.4541;-0.0560;0.0465;-0.0024
0000779459;5.8897;2.8299;2.3655;-0.0540;0.0440;-0.0043
0000779467;6.0334;2.8730;2.4421;-0.0606;0.0456;-0.0008
0000779475;6.0573;2.9425;2.2889;-0.0743;0.0501;0.0059
0000779483;6.0382;2.8826;2.3727;-0.0781;0.0525;0.0029
0000779491;5.9472;2.7150;2.4780;-0.0829;0.0488;0.0071
0000779499;5.9209;2.7845;2.4732;-0.0798;0.0464;-0.0004
0000779507;6.0693;2.7821;2.4612;-0.0694;0.0480;0.0001
0000779515;5.8323;2.6264;2.5235;-0.0687;0.0528;0.0015
0000779523;5.9089;2.6025;2.5211;-0.0616;0.0557;0.0045
0000779531;5.9687;2.6863;2.4876;-0.0508;0.0489;-0.0067
0000779539;5.8658;2.5666;2.5163;-0.0384;0.0486;-0.0059
0000779547;5.9568;2.5977;2.5714;-0.0402;0.0514;-0.0093
0000779555;5.8921;2.7150;2.4253;-0.0325;0.0470;-0.0116
0000779563;5.8083;2.6576;2.5259;-0.0325;0.0502;-0.0055
0000779571;5.8227;2.6911;2.4804;-0.0314;0.0441;-0.0159
0000779579;5.7269;2.6743;2.4732;-0.0289;0.0434;-0.0139
0000779587;5.8993;2.7126;2.4636;-0.0312;0.0465;-0.0152
0000779595;5.9376;2.8802;2.4373;-0.0242;0.0366;-0.0152
0000779603;5.6551;2.6791;2.6025;-0.0203;0.0265;-0.0254
0000779611;5.6886;2.7390;2.5115;-0.0200;0.0215;-0.0167
0000779619;5.8969;2.9281;2.4780;-0.0207;0.0131;-0.0168
0000779627;5.6743;2.6647;2.5618;-0.0187;-0.0035;-0.0200
0000779711;6.0956;2.6408;2.4397;0.0017;-0.0849;-0.0260
0000779719;6.2369;2.6193;2.5809;0.0020;-0.0685;-0.0185
0000779727;6.4356;2.8539;2.6312;0.0041;-0.0592;-0.0217
0000779735;6.4835;2.7414;2.5522;0.0051;-0.0404;-0.0192
0000779743;6.6272;2.6480;2.5331;0.0124;-0.0274;-0.0221
0000779751;6.4811;2.7150;2.5331;0.0125;-0.0060;-0.0149
0000779759;6.7253;2.7677;2.5283;0.0084;0.0163;-0.0093
0000779767;6.5122;2.6767;2.5833;0.0055;0.0340;-0.0025
0000779775;6.5170;2.7342;2.5618;0.0125;0.0486;-0.0004
0000779783;6.5793;2.8515;2.5139;0.0155;0.0574;-0.0013
0000779791;6.6008;2.8491;2.5546;0.0213;0.0766;0.0061
0000779799;6.1603;2.6432;2.4972;0.0140;0.0937;0.0116
0000779807;6.2082;2.8323;2.5307;0.0108;0.0966;0.0193
0000779815;6.2968;2.9305;2.5546;0.0171;0.0981;0.0168
0000779823;6.1244;2.8611;2.5953;0.0105;0.1022;0.0256
0000779831;6.0885;2.8635;2.5402;0.0040;0.1046;0.0270
0000779839;5.9448;2.8036;2.5283;0.0055;0.0979;0.0256
0000779847;5.9424;2.9137;2.5187;0.0089;0.0949;0.0244
0000779855;5.8586;2.7533;2.5714;0.0128;0.0894;0.0234
0000779863;6.0214;2.6384;2.5786;0.0207;0.0779;0.0278
0000779871;5.9448;2.6839;2.5642;0.0280;0.0809;0.0356
0000779879;5.9759;2.6983;2.4900;0.0318;0.0833;0.0320
0000779887;5.8299;2.7533;2.6121;0.0258;0.0762;0.0284
0000779895;5.8083;2.7342;2.5139;0.0221;0.0628;0.0176
0000779903;5.8131;2.9521;2.5546;0.0254;0.0529;0.0097
0000779911;5.7748;2.8778;2.4948;0.0180;0.0398;0.0157
0000779919;5.8131;2.7126;2.3559;0.0035;0.0310;0.0185
0000779927;5.8227;2.7318;2.5187;0.0028;0.0176;0.0148
0000779935;6.0047;2.9449;2.4900;0.0047;0.0035;0.0108
0000779943;5.9352;2.8036;2.4493;0.0075;-0.0052;0.0063
0000779951;5.7652;2.7940;2.4612;0.0144;-0.0240;0.0021
0000779959;5.6312;2.5786;2.4948;0.0211;-0.0397;-0.0027
0000779967;5.5210;2.5139;2.4517;0.0183;-0.0529;-0.0085
0000779975;5.7317;2.7461;2.4636;0.0230;-0.0725;-0.0096
0000779983;5.6503;2.6983;2.4397;0.0172;-0.0738;-0.0080
0000779991;5.8514;2.8874;2.4229;0.0229;-0.0867;-0.0129
0000779999;5.8107;2.7150;2.4636;0.0222;-0.0931;-0.0148
0000780007;6.0071;2.7677;2.4493;0.0265;-0.1017;-0.0225
0000780015;6.1387;2.8228;2.4349;0.0205;-0.0981;-0.0172
0000780023;6.1244;2.8204;2.4157;0.0171;-0.0979;-0.0189
0000780031;6.1651;2.7869;2.3631;0.0107;-0.0982;-0.0200
0000780039;6.1531;2.9090;2.3559;0.0060;-0.0963;-0.0289
0000780047;6.2273;2.8922;2.4373;0.0063;-0.0943;-0.0282
0000780055;6.2369;2.8683;2.4229;-0.0008;-0.0902;-0.0238
0000780063;6.3422;2.8587;2.5067;-0.0012;-0.0809;-0.0216
0000780071;6.1339;2.8204;2.5331;0.0031;-0.0857;-0.0318
0000780079;6.0358;2.8228;2.4349;0.0049;-0.0898;-0.0325
0000780087;6.0837;2.7342;2.4110;-0.0003;-0.0834;-0.0277
0000780095;5.9448;2.8276;2.3750;-0.0065;-0.0887;-0.0241
0000780103;6.1268;2.9329;2.5091;-0.0148;-0.0895;-0.0201
0000780111;5.9472;2.7892;2.4014;-0.0232;-0.0978;-0.0195
0000780119;6.0430;2.8347;2.4205;-0.0261;-0.1001;-0.0176
0000780127;6.0358;2.9042;2.3703;-0.0349;-0.0998;-0.0176
0000780135;6.0286;2.9257;2.4493;-0.0321;-0.1037;-0.0145
0000780143;5.8921;2.6839;2.3176;-0.0353;-0.1018;-0.0115
0000780151;6.1914;2.8563;2.3679;-0.0360;-0.1092;-0.0179
0000780159;6.1842;2.8754;2.3846;-0.0320;-0.1112;-0.0173
0000780167;6.1962;2.8228;2.4134;-0.0348;-0.1124;-0.0188
0000780175;6.1459;2.7869;2.4038;-0.0360;-0.1070;-0.0184
0000780183;6.0741;2.6815;2.3511;-0.0408;-0.1091;-0.0228
0000780191;6.1579;2.7988;2.3367;-0.0368;-0.1176;-0.0285
0000780199;5.9520;2.7054;2.3703;-0.0314;-0.1159;-0.0269
0000780207;6.0286;2.8180;2.4086;-0.0258;-0.1242;-0.0322
0000780215;6.1962;2.8659;2.4421;-0.0199;-0.1216;-0.0273
0000780223;6.1411;2.9233;2.4110;-0.0262;-0.1190;-0.0260
0000780231;6.1004;2.7677;2.5379;-0.0258;-0.1235;-0.0277
0000780239;6.1268;2.8323;2.3894;-0.0230;-0.1255;-0.0321
0000780247;5.9687;2.8060;2.3942;-0.0175;-0.1308;-0.0262
0000780255;6.1220;2.8084;2.3679;-0.0222;-0.1252;-0.0228
0000780263;6.0956;2.7821;2.4349;-0.0226;-0.1299;-0.0305
0000780271;6.0406;2.6217;2.5163;-0.0262;-0.1262;-0.0204
0000780279;6.1531;2.7461;2.4469;-0.0180;-0.1310;-0.0225
0000780287;6.1938;2.7294;2.5355;-0.0254;-0.1282;-0.0208
0000780372;6.2465;2.8347;2.3176;-0.0108;-0.1103;-0.0288
0000780380;6.1387;2.8922;2.3703;-0.0080;-0.1192;-0.0349
0000780388;6.0813;2.7629;2.2817;-0.0159;-0.1195;-0.0304
0000780396;6.0837;2.7940;2.3822;-0.0183;-0.1168;-0.0344
0000780404;6.2608;3.0526;2.3296;-0.0187;-0.1254;-0.0269
0000780412;6.0286;2.7988;2.3703;-0.0272;-0.1259;-0.0252
0000780420;6.1411;2.6600;2.4086;-0.0318;-0.1231;-0.0245
0000780428;6.0118;2.6839;2.4421;-0.0292;-0.1232;-0.0220
0000780436;6.0956;2.7557;2.3798;-0.0290;-0.1214;-0.0192
0000780444;6.3375;2.8228;2.3439;-0.0274;-0.1207;-0.0272
0000780452;6.2225;2.8539;2.4397;-0.0312;-0.1158;-0.0244
0000780460;6.1124;2.7198;2.3535;-0.0302;-0.1195;-0.0325
0000780468;6.0932;2.7007;2.3631;-0.0364;-0.1216;-0.0245
0000780476;6.2513;2.9066;2.4972;-0.0425;-0.1184;-0.0201
0000780484;6.3255;2.7366;2.5307;-0.0368;-0.1231;-0.0302
0000780492;6.0765;2.6097;2.5043;-0.0274;-0.1211;-0.0361
0000780500;6.5290;2.8826;2.5786;-0.0237;-0.1094;-0.0326
0000780508;6.2680;2.6719;2.4397;-0.0136;-0.1088;-0.0394
0000780516;6.3351;2.8419;2.4924;-0.0151;-0.1037;-0.0369
0000780524;6.3925;2.7078;2.4301;-0.0085;-0.1009;-0.0440
0000780532;6.4428;2.8036;2.4229;-0.0080;-0.0934;-0.0417
0000780540;6.3805;2.8874;2.3487;-0.0164;-0.0789;-0.0352
0000780548;6.2728;2.7342;2.4756;-0.0195;-0.0753;-0.0290
0000780556;6.1268;2.6624;2.4349;-0.0205;-0.0723;-0.0257
0000780564;6.1339;2.8252;2.4062;-0.0187;-0.0682;-0.0266
0000780572;6.1459;2.7677;2.4900;-0.0171;-0.0699;-0.0273
0000780580;6.3255;2.7988;2.4325;-0.0188;-0.0553;-0.0254
0000780588;6.2417;2.8539;2.5115;-0.0187;-0.0468;-0.0191
0000780596;6.5027;2.8802;2.5115;-0.0164;-0.0441;-0.0209
0000780604;6.2441;2.8371;2.4972;-0.0165;-0.0298;-0.0167
0000780612;6.1938;2.7438;2.4732;-0.0171;-0.0272;-0.0159
0000780620;6.3327;2.8156;2.5235;-0.0091;-0.0217;-0.0175
0000780628;6.1172;2.7821;2.5690;-0.0148;-0.0079;-0.0095
0000780636;6.1962;2.8132;2.5379;-0.0157;0.0061;-0.0176
0000780644;6.3758;2.9018;2.4924;-0.0125;0.0095;-0.0236
0000780652;6.1196;2.7366;2.5187;-0.0143;0.0156;-0.0261
0000780660;6.1172;2.8371;2.4804;-0.0211;0.0237;-0.0228
0000780668;6.1339;2.8084;2.4493;-0.0340;0.0337;-0.0220
0000780676;6.1483;2.8802;2.4876;-0.0357;0.0272;-0.0297
0000780684;6.0669;2.8299;2.5163;-0.0381;0.0378;-0.0262
0000780692;6.0669;2.7007;2.5019;-0.0436;0.0437;-0.0218
0000780700;5.8586;2.6647;2.5690;-0.0401;0.0442;-0.0199
0000780708;5.9927;2.6193;2.5953;-0.0384;0.0400;-0.0207
0000780716;6.0454;2.7677;2.5570;-0.0321;0.0316;-0.0238
0000780724;5.8514;2.6935;2.4612;-0.0306;0.0265;-0.0249
0000780732;5.7916;2.6145;2.4756;-0.0370;0.0211;-0.0153
0000780740;5.8155;2.8084;2.5235;-0.0385;0.0125;-0.0149
0000780748;5.7581;2.7629;2.5043;-0.0360;0.0077;-0.0089
0000780756;5.7317;2.7126;2.5043;-0.0373;0.0055;-0.0088
0000780764;6.0118;2.8515;2.5570;-0.0340;0.0019;-0.0029
0000780772;5.9831;2.7916;2.5187;-0.0274;-0.0085;-0.0061
0000780780;5.9664;2.7509;2.5043;-0.0294;-0.0059;-0.0009
0000780788;6.0717;2.7438;2.4612;-0.0386;-0.0041;0.0027
0000780796;5.8849;2.4924;2.4493;-0.0414;-0.0043;-0.0056
0000780804;6.0789;2.6935;2.4948;-0.0394;-0.0068;-0.0071
0000780812;6.2752;2.7485;2.4373;-0.0364;-0.0076;-0.0133
0000780820;6.1507;2.6695;2.5809;-0.0281;0.0000;-0.0096
0000780828;6.2824;2.6360;2.4469;-0.0209;-0.0012;-0.0189
0000780836;6.2560;2.8347;2.4157;-0.0157;0.0061;-0.0222
0000780844;6.2991;2.7318;2.4660;-0.0133;0.0165;-0.0192
0000780852;6.1244;2.7916;2.5235;-0.0099;0.0207;-0.0217
0000780860;6.0861;2.8898;2.5355;-0.0052;0.0184;-0.0234
0000780868;5.9855;2.8563;2.4469;-0.0056;0.0236;-0.0132
0000780876;6.1124;2.7797;2.4421;-0.0131;0.0300;-0.0097
0000780884;6.2225;2.9760;2.3846;-0.0203;0.0332;-0.0119
0000780892;6.0214;2.9042;2.4780;-0.0256;0.0345;-0.0117
0000780900;6.0885;2.9856;2.4493;-0.0326;0.0390;-0.0097
0000780908;6.1651;2.9329;2.4517;-0.0450;0.0537;-0.0021
0000780916;6.0789;2.7749;2.3774;-0.0430;0.0510;-0.0084
0000780924;6.1675;2.8180;2.5283;-0.0536;0.0601;-0.0057
0000780932;5.9616;2.7294;2.4804;-0.0497;0.0604;-0.0065
0000780940;6.0621;2.8443;2.4828;-0.0504;0.0624;-0.0044
0000780948;5.8802;2.5283;2.4780;-0.0436;0.0620;-0.0100
0000781033;5.8993;2.5067;2.6193;-0.0497;0.0294;0.0023
0000781041;6.1148;2.7294;2.5809;-0.0452;0.0270;0.0003
0000781049;6.2704;2.6863;2.6935;-0.0417;0.0236;0.0016
0000781057;6.2896;2.6839;2.5187;-0.0349;0.0264;-0.0057
0000781065;6.0789;2.7078;2.5163;-0.0215;0.0212;-0.0136
0000781073;6.0813;2.5786;2.5618;-0.0262;0.0294;-0.0123
0000781081;6.0980;2.7916;2.5977;-0.0236;0.0278;-0.0177
0000781089;5.9903;2.6504;2.5139;-0.0184;0.0317;-0.0183
0000781097;6.1435;2.8012;2.5043;-0.0224;0.0297;-0.0199
0000781105;6.0837;2.7892;2.5043;-0.0201;0.0224;-0.0292
0000781113;6.0094;2.6336;2.5833;-0.0129;0.0204;-0.0276
0000781121;6.1866;2.9113;2.5139;-0.0140;0.0217;-0.0309
0000781129;5.9831;2.6480;2.5618;-0.0200;0.0200;-0.0310
0000781137;6.2225;2.9281;2.5235;-0.0187;0.0212;-0.0353
0000781145;6.0956;2.8036;2.4804;-0.0191;0.0168;-0.0369
0000781153;6.0741;2.7629;2.5283;-0.0257;0.0224;-0.0308
0000781161;5.9879;2.6983;2.5331;-0.0207;0.0196;-0.0308
0000781169;6.0358;2.7797;2.5379;-0.0160;0.0164;-0.0329
0000781177;6.0047;2.7222;2.5091;-0.0145;0.0123;-0.0310
0000781185;5.9616;2.6432;2.4852;-0.0048;0.0043;-0.0364
0000781193;5.8993;2.5115;2.5163;-0.0063;0.0060;-0.0286
0000781201;5.9951;2.6911;2.5187;-0.0033;0.0064;-0.0285
0000781209;5.9831;2.7461;2.4708;-0.0005;-0.0007;-0.0316
0000781217;5.8012;2.6456;2.5139;0.0007;-0.0005;-0.0306
0000781225;6.0908;2.8299;2.5043;-0.0087;0.0007;-0.0301
0000781233;5.8706;2.7318;2.6456;-0.0131;-0.0011;-0.0268
0000781241;5.9472;2.7629;2.5379;-0.0201;-0.0045;-0.0293
0000781249;5.9496;2.6959;2.4684;-0.0204;-0.0111;-0.0281
0000781257;5.7652;2.6384;2.4995;-0.0221;-0.0133;-0.0261
0000781265;5.8706;2.6671;2.5379;-0.0218;-0.0115;-0.0192
0000781273;5.8730;2.7701;2.5570;-0.0276;-0.0121;-0.0222
0000781281;5.7317;2.6312;2.5115;-0.0237;-0.0159;-0.0195
0000781289;5.8155;2.6815;2.4445;-0.0193;-0.0265;-0.0217
0000781297;6.1076;2.8563;2.4876;-0.0228;-0.0258;-0.0147
0000781305;6.0262;2.8683;2.4110;-0.0280;-0.0221;-0.0093
0000781313;5.9472;2.7366;2.4900;-0.0240;-0.0242;-0.0095
0000781321;5.9975;2.8204;2.6193;-0.0133;-0.0282;-0.0132
0000781329;5.8849;2.7102;2.6240;-0.0073;-0.0305;-0.0161
0000781337;6.1675;2.8730;2.6336;-0.0089;-0.0242;-0.0140
0000781345;6.0286;2.8371;2.5498;-0.0101;-0.0277;-0.0181
0000781353;5.9592;2.6839;2.5307;-0.0111;-0.0266;-0.0171
0000781361;6.0023;2.8898;2.5355;-0.0224;-0.0244;-0.0139
0000781369;5.9448;2.8347;2.5714;-0.0293;-0.0265;-0.0124
0000781377;5.7868;2.6959;2.5211;-0.0325;-0.0302;-0.0193
0000781385;5.9017;2.7438;2.6791;-0.0329;-0.0364;-0.0156
0000781393;5.9687;2.7150;2.5642;-0.0306;-0.0370;-0.0124
0000781401;6.1052;2.7414;2.5426;-0.0298;-0.0305;-0.0068
0000781409;6.2058;2.7557;2.6097;-0.0151;-0.0328;-0.0092
0000781417;6.1244;2.6767;2.5857;-0.0075;-0.0277;-0.0084
0000781425;6.0118;2.6145;2.6408;0.0001;-0.0266;-0.0108
0000781433;6.0478;2.6360;2.5642;0.0089;-0.0326;-0.0112
0000781441;6.0956;2.7701;2.5139;0.0105;-0.0256;-0.0100
0000781449;6.1196;2.8060;2.5690;0.0024;-0.0172;-0.0065
0000781457;6.0645;2.8659;2.4780;-0.0011;-0.0136;-0.0079
0000781465;6.1292;2.9688;2.4780;-0.0027;-0.0165;-0.0136
0000781473;6.1507;2.7318;2.5402;-0.0049;-0.0121;-0.0176
0000781481;6.1172;2.8060;2.6312;-0.0057;-0.0111;-0.0140
0000781489;6.1866;2.8036;2.5259;-0.0069;-0.0025;-0.0120
0000781497;6.0478;2.8683;2.5331;-0.0113;-0.0023;-0.0157
0000781505;6.2177;2.8228;2.5522;-0.0097;-0.0045;-0.0163
0000781513;6.0837;2.9066;2.5331;-0.0119;-0.0020;-0.0115
0000781521;5.8012;2.7294;2.5786;-0.0091;-0.0033;-0.0172
0000781529;5.8897;2.7509;2.5642;-0.0025;-0.0093;-0.0189
0000781537;6.2680;2.8874;2.5355;-0.0029;-0.0071;-0.0108
0000781545;6.1363;2.8108;2.5881;-0.0020;-0.0012;-0.0113
0000781553;5.8969;2.5786;2.5546;-0.0055;-0.0031;-0.0081
0000781561;5.9711;2.7988;2.5115;-0.0020;-0.0097;-0.0105
0000781569;6.1627;2.7821;2.4756;0.0045;-0.0111;-0.0129
0000781577;5.9640;2.8252;2.4804;-0.0008;-0.0092;-0.0123
0000781585;5.9520;2.7509;2.5139;-0.0056;-0.0103;-0.0077
0000781593;5.9951;2.6624;2.5211;-0.0007;-0.0151;-0.0116
0000781601;6.0334;2.7749;2.5642;-0.0044;-0.0163;-0.0077
0000781686;6.0071;2.8156;2.5307;-0.0221;-0.0546;-0.0197
0000781694;5.7150;2.5450;2.5115;-0.0192;-0.0557;-0.0201
0000781702;5.9256;2.6743;2.5594;-0.0207;-0.0541;-0.0180
0000781710;6.0286;2.7677;2.6121;-0.0252;-0.0601;-0.0168
0000781718;5.8921;2.6791;2.5426;-0.0164;-0.0596;-0.0208
0000781726;5.9520;2.6097;2.5211;-0.0131;-0.0649;-0.0192
0000781734;5.9113;2.6935;2.4660;-0.0168;-0.0649;-0.0183
0000781742;6.0118;2.7270;2.5642;-0.0111;-0.0701;-0.0215
0000781750;6.0118;2.7174;2.5139;-0.0075;-0.0590;-0.0155
0000781758;6.1148;2.7461;2.5283;-0.0127;-0.0610;-0.0131
0000781766;5.8778;2.6959;2.5115;-0.0135;-0.0560;-0.0148
0000781774;5.8873;2.8228;2.4828;-0.0107;-0.0608;-0.0172
0000781782;6.1842;2.8515;2.5115;-0.0077;-0.0598;-0.0201
0000781790;6.0238;2.6983;2.4732;-0.0128;-0.0584;-0.0136
0000781798;5.9879;2.6815;2.4565;-0.0149;-0.0529;-0.0105
0000781806;5.9807;2.8371;2.4708;-0.0161;-0.0534;-0.0156
0000781814;6.0908;2.8036;2.4924;-0.0047;-0.0565;-0.0213
0000781822;5.9783;2.6767;2.5690;-0.0111;-0.0490;-0.0177
0000781830;5.9376;2.6743;2.5738;-0.0039;-0.0493;-0.0215
0000781838;6.1842;2.8539;2.5307;-0.0115;-0.0450;-0.0164
0000781846;5.9831;2.6911;2.4732;-0.0128;-0.0442;-0.0157
0000781854;6.2106;2.9090;2.5283;-0.0025;-0.0526;-0.0236
0000781862;5.7772;2.6408;2.5355;-0.0051;-0.0489;-0.0192
0000781870;6.0717;2.8491;2.5833;-0.0113;-0.0470;-0.0181
0000781878;5.9472;2.7605;2.4708;-0.0196;-0.0466;-0.0163
0000781886;6.0430;2.8395;2.4612;-0.0199;-0.0521;-0.0179
0000781894;5.9089;2.8156;2.6121;-0.0149;-0.0565;-0.0209
0000781902;5.9544;2.6671;2.5522;-0.0204;-0.0500;-0.0167
0000781910;6.0358;2.7342;2.5307;-0.0230;-0.0481;-0.0147
0000781918;6.0334;2.7222;2.6145;-0.0180;-0.0513;-0.0181
0000781926;5.9951;2.7821;2.6217;-0.0179;-0.0506;-0.0169
0000781934;5.9328;2.5881;2.6121;-0.0113;-0.0501;-0.0175
0000781942;6.2249;2.7845;2.5690;-0.0073;-0.0566;-0.0212
0000781950;6.1220;2.7797;2.6145;-0.0005;-0.0528;-0.0200
0000781958;5.8538;2.6097;2.5809;-0.0080;-0.0486;-0.0151
0000781966;6.1507;2.8180;2.5187;-0.0084;-0.0436;-0.0137
0000781974;6.1148;2.7054;2.5450;-0.0027;-0.0432;-0.0217
0000781982;6.1268;2.8084;2.5426;-0.0037;-0.0421;-0.0203
0000781990;5.8610;2.7605;2.5546;-0.0096;-0.0446;-0.0188
0000781998;6.0262;2.7797;2.5067;-0.0153;-0.0468;-0.0207
0000782006;6.0789;2.9042;2.4828;-0.0201;-0.0446;-0.0189
0000782014;5.9017;2.7749;2.5115;-0.0211;-0.0476;-0.0204
0000782022;6.0334;2.8898;2.4110;-0.0274;-0.0482;-0.0189
0000782030;5.9735;2.8467;2.5379;-0.0254;-0.0582;-0.0196
0000782038;5.9352;2.7773;2.5283;-0.0357;-0.0493;-0.0185
0000782046;5.7772;2.7270;2.4636;-0.0294;-0.0484;-0.0159
0000782054;5.7940;2.7342;2.5642;-0.0366;-0.0426;-0.0128
0000782062;6.0549;2.7892;2.5594;-0.0349;-0.0389;-0.0131
0000782070;6.1100;2.6671;2.5833;-0.0289;-0.0448;-0.0160
0000782078;6.0837;2.6121;2.5666;-0.0272;-0.0390;-0.0093
0000782086;6.0478;2.7198;2.5977;-0.0248;-0.0356;-0.0117
0000782094;6.1435;2.6863;2.5379;-0.0218;-0.0393;-0.0124
0000782102;6.0286;2.6384;2.5690;-0.0215;-0.0294;-0.0147
0000782110;6.0358;2.6935;2.5474;-0.0248;-0.0301;-0.0199
0000782118;5.7964;2.6360;2.4588;-0.0265;-0.0230;-0.0192
0000782126;6.1555;2.9329;2.4972;-0.0274;-0.0260;-0.0203
0000782134;5.9687;2.8012;2.4828;-0.0262;-0.0321;-0.0236
0000782142;5.8251;2.6839;2.5714;-0.0348;-0.0278;-0.0169
0000782150;5.9304;2.8635;2.5283;-0.0330;-0.0274;-0.0179
0000782158;5.8227;2.8395;2.5043;-0.0325;-0.0334;-0.0229
0000782166;5.9256;2.7940;2.5809;-0.0356;-0.0321;-0.0168
0000782174;5.8873;2.7797;2.5857;-0.0400;-0.0317;-0.0125
0000782182;5.8730;2.5786;2.5929;-0.0457;-0.0306;-0.0135
0000782190;6.0908;2.7390;2.5043;-0.0426;-0.0340;-0.0151
0000782198;5.8658;2.6528;2.5881;-0.0448;-0.0356;-0.0157
0000782206;6.1962;2.8659;2.5786;-0.0400;-0.0326;-0.0155
0000782214;6.0549;2.7366;2.5235;-0.0374;-0.0362;-0.0207
0000782222;6.1938;2.7845;2.5714;-0.0386;-0.0341;-0.0180
0000782230;5.8730;2.7246;2.5977;-0.0409;-0.0393;-0.0282
0000782238;5.8993;2.7773;2.5283;-0.0408;-0.0380;-0.0240
0000782246;5.9999;2.7581;2.5857;-0.0478;-0.0424;-0.0207
0000782254;5.7964;2.7126;2.5857;-0.0448;-0.0477;-0.0257
0000782339;5.9831;2.6576;2.5331;-0.0640;-0.0476;-0.0177
0000782347;6.0549;2.6480;2.5809;-0.0557;-0.0502;-0.0180
0000782355;6.0741;2.6456;2.6121;-0.0445;-0.0418;-0.0169
0000782363;6.0908;2.6935;2.6528;-0.0372;-0.0420;-0.0184
0000782371;6.1339;2.5283;2.7533;-0.0286;-0.0400;-0.0149
0000782379;6.0406;2.5546;2.6480;-0.0215;-0.0357;-0.0077
0000782387;6.1555;2.5953;2.5187;-0.0121;-0.0368;-0.0131
0000782395;6.0597;2.5355;2.6384;-0.0037;-0.0358;-0.0108
0000782403;5.9209;2.5187;2.6025;0.0005;-0.0369;-0.0111
0000782411;5.8347;2.4708;2.5929;0.0099;-0.0396;-0.0101
0000782419;5.9520;2.6097;2.6025;0.0180;-0.0448;-0.0085
0000782427;5.9041;2.6336;2.6025;0.0165;-0.0404;-0.0060
0000782435;5.9999;2.7581;2.5642;0.0172;-0.0413;-0.0016
0000782443;5.9472;2.7174;2.5235;0.0188;-0.0410;-0.0049
0000782451;6.0190;2.6887;2.5738;0.0246;-0.0434;-0.0093
0000782459;5.9304;2.6528;2.6121;0.0222;-0.0424;-0.0099
0000782467;6.0118;2.8635;2.5977;0.0205;-0.0417;-0.0108
0000782475;5.9664;2.6719;2.5402;0.0180;-0.0393;-0.0077
0000782483;6.0597;2.7246;2.6121;0.0157;-0.0342;-0.0139
0000782491;5.9951;2.7126;2.5881;0.0175;-0.0321;-0.0152
0000782499;5.7700;2.6647;2.6671;0.0195;-0.0417;-0.0180
0000782507;5.8945;2.7701;2.5642;0.0211;-0.0396;-0.0147
0000782515;5.9951;2.6600;2.5474;0.0211;-0.0369;-0.0021
0000782523;6.0645;2.7605;2.5857;0.0229;-0.0356;-0.0073
0000782531;5.8682;2.6624;2.5833;0.0250;-0.0390;0.0003
0000782539;5.9544;2.8706;2.5115;0.0278;-0.0449;-0.0075
0000782547;5.9496;2.7773;2.5019;0.0236;-0.0448;-0.0056
0000782555;6.2297;2.9090;2.4541;0.0220;-0.0470;-0.0109
0000782563;6.0932;2.8683;2.6312;0.0262;-0.0442;-0.0085
0000782571;6.1028;2.7749;2.5498;0.0230;-0.0416;-0.0051
0000782579;6.1268;2.7174;2.5019;0.0168;-0.0321;-0.0060
0000782587;6.2249;2.8060;2.4828;0.0216;-0.0361;-0.0093
0000782595;6.2776;2.7701;2.5594;0.0254;-0.0386;-0.0099
0000782603;5.8945;2.5833;2.5762;0.0250;-0.0336;-0.0096
0000782611;6.0334;2.6935;2.5379;0.0246;-0.0241;-0.0069
0000782619;5.8706;2.6384;2.4541;0.0262;-0.0309;-0.0091
0000782627;5.9328;2.7629;2.5187;0.0284;-0.0293;-0.0113
0000782635;6.0071;2.8419;2.4636;0.0290;-0.0326;-0.0105
0000782643;6.0190;2.8180;2.5331;0.0290;-0.0297;-0.0064
0000782651;5.9161;2.7414;2.5043;0.0234;-0.0310;-0.0035
0000782659;6.0166;2.9209;2.5977;0.0197;-0.0293;-0.0041
0000782667;5.9017;2.7031;2.5714;0.0192;-0.0345;-0.0057
0000782675;5.9472;2.6695;2.5522;0.0280;-0.0373;-0.0116
0000782683;5.9520;2.7629;2.5235;0.0257;-0.0378;-0.0099
0000782691;5.7652;2.6360;2.5474;0.0183;-0.0320;-0.0056
0000782699;5.9544;2.8395;2.5139;0.0200;-0.0341;-0.0076
0000782707;6.2082;2.8515;2.5115;0.0169;-0.0408;-0.0068
0000782715;5.8778;2.7102;2.5235;0.0132;-0.0321;-0.0056
0000782723;6.1603;2.8299;2.5331;0.0135;-0.0313;-0.0101
0000782731;6.0047;2.7677;2.4924;0.0139;-0.0316;-0.0061
0000782739;6.1076;2.7102;2.5283;0.0121;-0.0209;-0.0029
0000782747;6.0358;2.7198;2.5139;0.0147;-0.0222;-0.0095
0000782755;6.0166;2.6360;2.4995;0.0139;-0.0273;-0.0105
0000782763;6.0501;2.7557;2.4708;0.0149;-0.0288;-0.0149
0000782771;6.0238;2.8060;2.4636;0.0175;-0.0357;-0.0153
0000782779;6.1531;2.8826;2.4157;0.0073;-0.0282;-0.0103
0000782787;6.1411;2.8587;2.4325;0.0043;-0.0320;-0.0103
0000782795;5.7700;2.5762;2.5426;0.0091;-0.0381;-0.0125
0000782803;5.8969;2.7294;2.5426;0.0116;-0.0384;-0.0087
0000782811;6.0047;2.6863;2.5067;0.0099;-0.0320;-0.0084
0000782819;5.9927;2.7174;2.5115;0.0132;-0.0285;-0.0111
0000782827;6.1507;2.6767;2.5474;0.0273;-0.0356;-0.0192
0000782835;6.0908;2.7461;2.5043;0.0262;-0.0325;-0.0149
0000782843;5.9903;2.7054;2.4828;0.0193;-0.0257;-0.0149
0000782851;6.0932;2.7749;2.3990;0.0209;-0.0222;-0.0087
0000782859;6.0214;2.7031;2.4421;0.0185;-0.0230;-0.0081
0000782867;5.9544;2.7174;2.4828;0.0212;-0.0320;-0.0133
0000782875;6.0501;2.8012;2.4972;0.0266;-0.0350;-0.0165
0000782883;6.0741;2.8515;2.4205;0.0241;-0.0310;-0.0139
0000782891;6.0573;2.8132;2.5546;0.0226;-0.0240;-0.0117
0000782899;6.0047;2.8204;2.5953;0.0230;-0.0305;-0.0112
0000782907;6.0837;2.9113;2.4086;0.0253;-0.0330;-0.0157
0000782915;5.9759;2.8539;2.3559;0.0232;-0.0416;-0.0196
0000783005;5.9448;2.6671;2.5043;0.0036;-0.0237;-0.0043
0000783013;6.1339;2.9544;2.3727;0.0056;-0.0266;-0.0120
0000783021;6.2489;2.9568;2.4373;0.0035;-0.0233;-0.0055
0000783029;6.0023;2.7509;2.3607;-0.0019;-0.0153;-0.0032
0000783037;5.9592;2.8443;2.3822;0.0032;-0.0217;-0.0099
0000783045;5.9687;2.8060;2.3798;0.0001;-0.0196;-0.0053
0000783053;6.0741;2.7150;2.3679;0.0019;-0.0179;-0.0096
0000783061;6.0238;2.9066;2.4397;0.0025;-0.0269;-0.0125
0000783069;6.0956;2.8443;2.4684;0.0008;-0.0171;-0.0080
0000783077;6.1435;2.8276;2.3894;0.0001;-0.0258;-0.0140
0000783085;5.8514;2.7126;2.3894;-0.0008;-0.0274;-0.0129
0000783093;6.0214;2.7557;2.3966;-0.0055;-0.0254;-0.0083
0000783101;5.9017;2.7749;2.4014;-0.0007;-0.0302;-0.0105
0000783109;5.8802;2.7533;2.5283;0.0020;-0.0333;-0.0127
0000783117;6.0023;2.7701;2.4421;0.0028;-0.0360;-0.0148
0000783125;6.2177;2.9521;2.3822;-0.0008;-0.0336;-0.0144
0000783133;6.0645;2.9760;2.4110;-0.0007;-0.0381;-0.0153
0000783141;6.0238;2.7821;2.4517;-0.0019;-0.0312;-0.0167
0000783149;5.9975;2.8228;2.4708;-0.0039;-0.0328;-0.0140
0000783157;6.2153;2.9401;2.3008;-0.0065;-0.0332;-0.0157
0000783165;6.0669;2.9233;2.4157;-0.0020;-0.0350;-0.0212
0000783173;6.2225;2.9736;2.3679;-0.0045;-0.0390;-0.0193
0000783181;6.1339;2.7797;2.3391;-0.0053;-0.0373;-0.0121
0000783189;5.9927;2.7725;2.3559;-0.0043;-0.0337;-0.0148
0000783197;5.9376;2.8180;2.3535;-0.0109;-0.0329;-0.0079
0000783205;6.0094;2.7318;2.4038;-0.0080;-0.0369;-0.0091
0000783213;5.9616;2.7294;2.4038;-0.0032;-0.0434;-0.0107
0000783221;6.1028;2.7629;2.4110;-0.0028;-0.0388;-0.0101
0000783229;6.1052;2.8419;2.2577;-0.0032;-0.0370;-0.0071
0000783237;6.0334;2.7892;2.4301;0.0027;-0.0349;-0.0085
0000783245;6.1004;2.7916;2.3487;0.0037;-0.0382;-0.0135
0000783253;6.0501;2.7126;2.3272;0.0032;-0.0405;-0.0131
0000783261;6.0956;3.0143;2.3607;0.0064;-0.0306;-0.0107
0000783269;6.0190;2.7869;2.3846;0.0041;-0.0396;-0.0180
0000783277;6.0262;2.8563;2.3439;0.0076;-0.0376;-0.0155
0000783285;6.0932;2.8276;2.4277;0.0009;-0.0286;-0.0140
0000783293;6.0932;2.9377;2.3248;0.0009;-0.0297;-0.0128
0000783301;5.9304;2.8276;2.4014;0.0067;-0.0402;-0.0191
0000783309;6.0813;2.8539;2.3798;0.0075;-0.0352;-0.0159
0000783317;6.0142;2.8299;2.4086;0.0084;-0.0350;-0.0141
0000783325;5.9448;2.6911;2.3727;0.0109;-0.0384;-0.0180
0000783333;6.0071;2.9090;2.4157;0.0173;-0.0430;-0.0159
0000783341;5.8969;2.7821;2.3535;0.0169;-0.0418;-0.0113
0000783349;6.1435;2.9688;2.3391;0.0133;-0.0406;-0.0101
0000783357;5.8849;2.8970;2.2889;0.0092;-0.0440;-0.0111
0000783365;6.0932;2.9113;2.3583;0.0079;-0.0498;-0.0111
0000783373;5.9520;2.9113;2.2458;-0.0021;-0.0432;-0.0091
0000783381;5.9975;2.8706;2.3822;-0.0109;-0.0422;-0.0076
0000783389;6.0908;2.7892;2.2960;-0.0113;-0.0458;-0.0111
0000783397;6.0430;2.7605;2.3894;-0.0139;-0.0380;-0.0116
0000783405;6.1531;2.8898;2.3248;-0.0109;-0.0414;-0.0127
0000783413;6.1244;2.8778;2.3343;-0.0029;-0.0429;-0.0148
0000783421;6.1531;2.8012;2.3415;-0.0003;-0.0416;-0.0135
0000783429;5.9879;2.7390;2.3990;0.0004;-0.0389;-0.0099
0000783437;6.1100;2.7940;2.2194;-0.0028;-0.0425;-0.0139
0000783445;5.9256;2.7031;2.3200;-0.0019;-0.0429;-0.0084
0000783453;5.9328;2.7438;2.3104;-0.0020;-0.0458;-0.0155
0000783462;5.9328;2.7054;2.4038;0.0020;-0.0458;-0.0100
0000783471;6.0741;2.8898;2.3415;0.0129;-0.0480;-0.0145
0000783480;5.9640;2.7222;2.3320;0.0128;-0.0485;-0.0176
0000783489;6.1220;2.8108;2.3248;0.0132;-0.0450;-0.0092
0000783498;6.0597;2.8395;2.3511;0.0045;-0.0529;-0.0171
0000783507;6.1818;2.9473;2.3415;0.0032;-0.0448;-0.0093
0000783516;5.9927;2.7390;2.3152;-0.0048;-0.0357;-0.0047
0000783525;6.1172;2.7438;2.3152;0.0052;-0.0432;-0.0141
0000783534;6.2417;2.9592;2.3176;0.0052;-0.0413;-0.0224
0000783543;5.9209;2.6983;2.3583;0.0035;-0.0354;-0.0141
0000783552;6.1244;2.8299;2.3248;0.0009;-0.0345;-0.0120
0000783561;5.9831;2.7845;2.3942;0.0033;-0.0397;-0.0191
0000783570;5.8897;2.8036;2.3080;0.0075;-0.0408;-0.0173
0000783579;6.0238;2.8347;2.3367;0.0051;-0.0380;-0.0109
0000783588;6.0214;2.7390;2.3224;0.0036;-0.0433;-0.0191
0000783597;6.1196;2.9233;2.2769;0.0101;-0.0528;-0.0197
0000783683;6.0166;2.7677;2.3367;0.0105;-0.0430;-0.0143
0000783692;5.9975;2.7342;2.2913;-0.0009;-0.0388;-0.0057
0000783701;6.0597;2.7988;2.3272;0.0001;-0.0358;-0.0119
0000783710;6.0334;2.7126;2.2817;-0.0001;-0.0338;-0.0099
0000783719;6.0118;2.7821;2.3415;-0.0008;-0.0353;-0.0087
0000783728;6.0861;2.8491;2.3320;0.0021;-0.0337;-0.0108
0000783737;6.1028;2.8491;2.3080;0.0035;-0.0396;-0.0113
0000783746;6.0406;2.8587;2.3990;0.0008;-0.0358;-0.0100
0000783755;6.0334;2.7581;2.3272;0.0060;-0.0382;-0.0125
0000783764;6.0693;2.9305;2.3296;-0.0020;-0.0324;-0.0084
0000783773;6.0789;2.8611;2.2960;-0.0004;-0.0385;-0.0156
0000783782;5.9855;2.7653;2.2673;-0.0104;-0.0286;-0.0109
0000783791;5.9304;2.6624;2.2434;-0.0056;-0.0338;-0.0191
0000783800;6.0932;2.8084;2.3535;-0.0035;-0.0318;-0.0157
0000783809;6.1052;2.8754;2.3008;-0.0121;-0.0277;-0.0101
0000783818;5.9975;2.9401;2.3487;-0.0109;-0.0373;-0.0200
0000783827;5.8778;2.6504;2.2434;-0.0137;-0.0322;-0.0084
0000783836;6.0071;2.7845;2.2936;-0.0117;-0.0369;-0.0159
0000783845;5.9831;2.8659;2.2721;-0.0057;-0.0417;-0.0144
0000783854;6.1387;2.8419;2.2170;-0.0067;-0.0437;-0.0156
0000783863;6.0286;2.8563;2.2697;-0.0075;-0.0441;-0.0131
0000783872;6.1651;2.8443;2.2817;-0.0159;-0.0386;-0.0073
0000783881;6.0885;2.9736;2.2410;-0.0055;-0.0474;-0.0156
0000783890;6.0454;2.7054;2.3200;-0.0145;-0.0416;-0.0092
0000783899;5.9783;2.6264;2.2889;-0.0109;-0.0418;-0.0196
0000783908;5.9687;2.7509;2.3056;-0.0089;-0.0352;-0.0111
0000783917;5.9927;2.6264;2.2577;-0.0104;-0.0401;-0.0144
0000783926;6.0765;2.7438;2.3750;-0.0153;-0.0336;-0.0087
0000783935;6.1100;2.7414;2.2529;-0.0056;-0.0384;-0.0153
0000783944;6.1387;2.8563;2.3248;-0.0123;-0.0330;-0.0077
0000783953;6.0789;2.9185;2.2170;-0.0088;-0.0309;-0.0124
0000783962;6.0142;2.7318;2.2242;-0.0100;-0.0273;-0.0101
0000783971;6.0956;2.9497;2.3104;-0.0140;-0.0225;-0.0041
0000783980;6.0071;2.8276;2.2841;-0.0083;-0.0304;-0.0160
0000783989;6.1794;2.8802;2.3056;-0.0141;-0.0250;-0.0112
0000783998;5.8730;2.6456;2.3200;-0.0165;-0.0261;-0.0113
0000784007;5.9233;2.7485;2.2505;-0.0100;-0.0369;-0.0149
0000784016;5.9113;2.9209;2.1787;-0.0192;-0.0365;-0.0100
0000784025;6.0430;2.9832;2.1548;-0.0221;-0.0446;-0.0141
0000784034;5.9783;2.8180;2.3008;-0.0248;-0.0425;-0.0055
0000784043;5.9256;2.8635;2.2027;-0.0317;-0.0429;-0.0064
0000784052;6.1339;3.0095;2.2075;-0.0350;-0.0428;-0.0049
0000784061;5.9951;2.7054;2.2505;-0.0260;-0.0492;-0.0100
0000784070;6.0525;2.7916;2.3798;-0.0265;-0.0426;-0.0081
0000784079;6.0358;2.7509;2.2817;-0.0197;-0.0382;-0.0071
0000784088;6.1268;2.6384;2.3439;-0.0127;-0.0476;-0.0240
0000784097;6.0932;2.7270;2.3966;-0.0153;-0.0408;-0.0164
0000784106;6.0478;2.8754;2.1715;-0.0195;-0.0444;-0.0213
0000784115;6.0190;2.7701;2.2266;-0.0205;-0.0412;-0.0184
0000784124;6.1316;2.8706;2.2290;-0.0189;-0.0378;-0.0165
0000784133;6.0549;2.8036;2.3727;-0.0139;-0.0458;-0.0160
0000784142;5.8706;2.7869;2.3032;-0.0172;-0.0412;-0.0093
0000784151;5.9520;2.8443;2.3200;-0.0124;-0.0485;-0.0163
0000784160;6.1268;2.9209;2.3200;-0.0229;-0.0392;-0.0071
0000784169;6.0837;2.8419;2.2697;-0.0173;-0.0460;-0.0113
0000784178;6.0908;2.7605;2.3152;-0.0176;-0.0426;-0.0085
0000784187;6.1028;2.8419;2.3200;-0.0200;-0.0388;-0.0057
0000784196;6.1148;2.7821;2.2697;-0.0143;-0.0432;-0.0148
0000784205;6.2489;2.8826;2.2817;-0.0167;-0.0373;-0.0096
0000784214;6.1411;2.7821;2.4253;-0.0217;-0.0321;-0.0113
0000784223;6.1651;2.9018;2.2936;-0.0131;-0.0366;-0.0164
0000784232;5.9017;2.7318;2.3679;-0.0131;-0.0400;-0.0179
0000784241;6.2656;2.9018;2.2769;-0.0147;-0.0381;-0.0119
0000784250;6.0765;2.8539;2.3391;-0.0139;-0.0377;-0.0148
0000784259;5.9089;2.7485;2.3248;-0.0107;-0.0476;-0.0168
0000784268;6.1196;2.8970;2.4205;-0.0155;-0.0418;-0.0124
0000784277;5.9544;2.7845;2.2625;-0.0117;-0.0494;-0.0197
0000784286;6.1507;2.8108;2.2817;-0.0099;-0.0448;-0.0096
0000784295;6.1363;2.9233;2.3224;-0.0120;-0.0409;-0.0167
0000784304;6.0741;2.8539;2.3415;-0.0161;-0.0432;-0.0148
0000784313;6.0454;2.8084;2.3750;-0.0099;-0.0480;-0.0193
0000784322;6.0621;2.7845;2.3367;-0.0149;-0.0381;-0.0147
0000784407;6.1411;2.9401;2.3870;-0.0116;-0.0366;-0.0117
0000784416;6.0621;2.8060;2.3391;-0.0176;-0.0350;-0.0076
0000784425;6.0047;2.7390;2.3008;-0.0155;-0.0380;-0.0181
0000784434;6.0334;2.7509;2.3511;-0.0188;-0.0372;-0.0116
0000784443;6.2201;2.9329;2.3894;-0.0199;-0.0336;-0.0084
0000784452;6.1675;2.9281;2.3391;-0.0116;-0.0373;-0.0164
0000784461;6.1028;2.8371;2.3032;-0.0193;-0.0344;-0.0101
0000784470;6.1316;2.8826;2.3703;-0.0123;-0.0334;-0.0113
0000784479;6.0956;2.7605;2.2793;-0.0047;-0.0377;-0.0108
0000784488;6.0597;2.8395;2.3535;-0.0115;-0.0288;-0.0085
0000784497;6.1148;2.8395;2.3056;-0.0041;-0.0365;-0.0149
0000784506;6.1914;2.9497;2.2984;-0.0120;-0.0277;-0.0096
0000784515;5.9185;2.6671;2.3942;-0.0124;-0.0388;-0.0155
0000784524;5.9544;2.7892;2.3391;-0.0149;-0.0346;-0.0099
0000784533;6.0454;2.6456;2.3559;-0.0085;-0.0368;-0.0139
0000784542;6.0956;2.8539;2.3415;-0.0124;-0.0348;-0.0061
0000784551;6.0861;2.8395;2.3655;-0.0096;-0.0353;-0.0113
0000784560;6.1196;2.9377;2.3463;-0.0065;-0.0421;-0.0185
0000784569;5.8706;2.6193;2.4062;-0.0063;-0.0396;-0.0135
0000784578;6.1268;2.8994;2.3320;0.0003;-0.0448;-0.0172
0000784587;6.0430;2.7294;2.4876;-0.0079;-0.0432;-0.0119
0000784596;6.0693;2.8060;2.3750;-0.0055;-0.0420;-0.0117
0000784605;6.0262;2.7031;2.4565;-0.0041;-0.0437;-0.0124
0000784614;6.1316;2.8515;2.4948;0.0075;-0.0516;-0.0124
0000784623;6.1196;2.9281;2.4588;0.0061;-0.0514;-0.0132
0000784632;5.9185;2.8084;2.4205;0.0044;-0.0617;-0.0085
0000784641;5.9256;2.9329;2.5019;0.0029;-0.0673;-0.0027
0000784650;5.9592;2.8730;2.5833;0.0027;-0.0730;0.0020
0000784659;5.9161;2.9042;2.6695;0.0140;-0.0943;0.0023
0000784668;5.9304;2.8299;2.6647;0.0175;-0.0994;0.0093
0000784677;6.0669;2.9592;2.7485;0.0148;-0.1069;0.0117
0000784686;6.0406;2.9353;2.7485;0.0207;-0.1264;0.0060
0000784695;6.0023;2.9281;2.7509;0.0100;-0.1232;0.0149
0000784704;6.1076;3.0095;2.8467;0.0044;-0.1320;0.0123
0000784713;6.0166;3.0406;2.9497;0.0049;-0.1382;0.0153
0000784722;6.2513;3.0263;2.9305;-0.0064;-0.1347;0.0209
0000784731;6.0214;2.9377;2.9497;-0.0103;-0.1395;0.0281
0000784740;6.0430;2.9113;3.1556;-0.0060;-0.1426;0.0236
0000784749;5.9472;2.8970;3.0933;-0.0001;-0.1420;0.0197
0000784758;6.1794;2.8252;3.1867;0.0013;-0.1376;0.0173
0000784767;6.1794;2.9568;3.1196;0.0087;-0.1344;0.0019
0000784776;6.1603;2.6911;3.0646;0.0116;-0.1308;-0.0108
0000784785;6.0525;2.6767;3.2010;0.0226;-0.1319;-0.0225
0000784794;6.0717;2.6288;3.1484;0.0125;-0.1236;-0.0250
0000784803;6.1483;2.7701;3.1819;0.0104;-0.1310;-0.0272
0000784812;6.0525;2.7174;3.0861;0.0096;-0.1336;-0.0229
0000784821;5.9065;2.4253;3.2130;0.0024;-0.1338;-0.0155
0000784830;6.0717;2.4565;3.1173;0.0061;-0.1466;-0.0169
0000784839;6.0094;2.3655;3.0598;0.0059;-0.1482;-0.0161
0000784848;5.8442;2.3367;3.0430;0.0039;-0.1589;-0.0161
0000784857;6.0286;2.4900;2.9999;0.0211;-0.1827;-0.0322
0000784866;6.1148;2.4038;3.0957;0.0217;-0.1908;-0.0321
0000784875;5.9113;2.3727;2.9856;0.0309;-0.2056;-0.0394
0000784884;5.8682;2.3822;2.9904;0.0229;-0.2056;-0.0430
0000784893;5.8658;2.3272;2.9760;0.0155;-0.2221;-0.0510
0000784902;5.9879;2.3080;3.0406;0.0069;-0.2293;-0.0533
0000784911;6.0549;2.2793;2.9018;-0.0008;-0.2410;-0.0578
0000784920;6.1339;2.3750;2.9544;-0.0088;-0.2439;-0.0625
0000784929;6.1483;2.2984;2.9113;-0.0165;-0.2398;-0.0735
0000784938;6.2177;2.2889;2.8515;-0.0173;-0.2332;-0.0933
0000784947;6.1938;2.0446;2.7725;-0.0188;-0.2262;-0.1118
0000784956;6.3710;2.2577;2.7773;-0.0169;-0.2069;-0.1158
0000784965;6.4093;2.3559;2.6815;-0.0160;-0.1993;-0.1142
0000784974;6.2920;2.3631;2.6049;-0.0172;-0.2013;-0.1025
0000784983;6.2944;2.6097;2.5019;-0.0352;-0.1843;-0.0758
0000784992;6.2130;2.6791;2.4349;-0.0498;-0.1667;-0.0637
0000785001;6.3207;3.0694;2.5881;-0.0634;-0.1543;-0.0554
0000785010;6.2848;3.4141;2.6647;-0.0873;-0.1371;-0.0466
0000785019;6.3255;3.5291;2.7557;-0.1014;-0.1395;-0.0630
0000785028;6.3422;3.7972;2.7725;-0.1286;-0.1250;-0.0675
0000785037;6.2201;3.7589;2.8252;-0.1604;-0.1223;-0.0777
0000785046;6.2106;3.7589;2.7533;-0.1985;-0.1220;-0.0919
0000785133;6.3590;1.7861;2.8970;-0.4654;-0.1023;-0.2005
0000785142;6.3686;1.5562;3.0694;-0.4501;-0.0870;-0.2162
0000785151;6.6535;1.5012;2.8874;-0.4353;-0.0719;-0.2349
0000785160;6.5553;1.4916;2.7270;-0.4314;-0.0341;-0.2374
0000785169;6.4596;1.3719;2.7102;-0.4226;-0.0015;-0.2510
0000785178;6.7564;1.5395;2.6887;-0.4223;0.0377;-0.2547
0000785187;6.7109;1.6903;2.8443;-0.4223;0.0695;-0.2531
0000785196;6.6415;1.8316;2.8347;-0.4355;0.1010;-0.2487
0000785205;6.5003;1.7526;2.7869;-0.4711;0.1318;-0.2374
0000785214;6.1842;1.7621;2.8180;-0.5156;0.1474;-0.2233
0000785223;5.8826;1.5083;2.6552;-0.5648;0.1696;-0.1952
0000785232;5.8179;1.2881;2.6217;-0.6173;0.1856;-0.1615
0000785241;5.5833;0.9170;2.4325;-0.6639;0.1903;-0.1310
0000785250;5.6910;0.7326;2.3535;-0.7055;0.1976;-0.0926
0000785259;5.7652;0.5483;2.2865;-0.7306;0.1877;-0.0644
0000785268;5.8873;0.4070;2.2984;-0.7418;0.1839;-0.0286
0000785277;5.8826;0.1772;2.2218;-0.7532;0.1824;0.0073
0000785286;5.9161;0.1700;2.3296;-0.7695;0.1609;0.0306
0000785295;5.9783;0.1963;2.3750;-0.7979;0.1383;0.0476
0000785304;5.6814;-0.1197;2.2266;-0.8302;0.1331;0.0568
0000785313;5.5737;-0.1772;2.0542;-0.8887;0.1130;0.0517
0000785322;5.5641;0.0982;2.4086;-0.9104;0.0845;0.0386
0000785331;5.4947;0.1891;2.7845;-0.8771;0.0538;0.0121
0000785340;5.4061;0.1269;2.9664;-0.8487;0.0360;0.0027
0000785349;5.5833;0.5507;3.2561;-0.8192;0.0077;-0.0099
0000785358;5.7892;0.7422;3.2298;-0.8075;0.0136;-0.0466
0000785367;6.0454;0.7757;3.1627;-0.8246;0.0354;-0.1025
0000785376;6.0023;0.9625;3.2130;-0.8693;0.0774;-0.1496
0000785385;6.1196;0.8595;3.2346;-0.9046;0.1296;-0.1961
0000785394;6.2249;0.6632;3.1316;-0.9371;0.1761;-0.2154
0000785403;5.9975;0.3879;3.1915;-0.9341;0.2164;-0.1990
0000785412;6.4069;0.6273;3.1220;-0.8827;0.2435;-0.1849
0000785421;6.2369;0.2490;3.2130;-0.8178;0.2682;-0.1679
0000785430;5.9137;0.1652;3.3375;-0.7410;0.2986;-0.1671
0000785439;5.7940;0.4022;3.4285;-0.6519;0.3100;-0.1956
0000785448;5.6479;0.4693;3.4333;-0.5838;0.3317;-0.2106
0000785457;5.3127;0.4046;3.3495;-0.5388;0.3335;-0.2352
0000785466;5.4708;0.4094;3.2537;-0.5288;0.3323;-0.2434
0000785475;5.2984;0.3615;3.1843;-0.5175;0.2971;-0.2308
0000785484;5.2601;0.2131;3.2657;-0.5169;0.2443;-0.1973
0000785493;5.0901;0.2873;3.4237;-0.5248;0.1836;-0.1589
0000785502;5.3463;0.4836;3.7110;-0.5083;0.1154;-0.1275
0000785511;5.1284;0.5674;4.1252;-0.4750;0.0528;-0.0986
0000785520;5.3941;1.1564;4.5729;-0.4041;0.0019;-0.0662
0000785529;5.6312;1.6592;4.7549;-0.2651;-0.0145;-0.0564
0000785538;5.3917;2.1428;4.7716;-0.1597;-0.0176;-0.0703
0000785547;5.2241;2.6336;4.5825;-0.0915;-0.0183;-0.1232
0000785556;4.7238;2.7438;4.2665;-0.1098;-0.0398;-0.1773
0000785565;4.7142;2.9305;3.9983;-0.1951;-0.0782;-0.1969
0000785574;4.6184;2.6217;3.8930;-0.2815;-0.1351;-0.2298
0000785583;4.7309;2.3272;4.3718;-0.3483;-0.1897;-0.2487
0000785592;5.2553;2.3798;4.4963;-0.3677;-0.2148;-0.2465
0000785601;5.3343;2.1189;4.9512;-0.3312;-0.2308;-0.2642
0000785610;5.4899;2.1021;5.1380;-0.3063;-0.2269;-0.2681
0000785619;5.6455;1.9848;5.1954;-0.2807;-0.2105;-0.2465
0000785628;5.7700;1.9920;4.9775;-0.2718;-0.1849;-0.2691
0000785637;5.8562;2.4541;5.0877;-0.2149;-0.1588;-0.2461
0000785646;5.7030;2.1883;4.6687;-0.1962;-0.1419;-0.2197
0000785655;5.4875;2.3774;4.9033;-0.2021;-0.1199;-0.1952
0000785664;5.1834;2.1739;4.9105;-0.2454;-0.0978;-0.1306
0000785673;5.1427;2.1739;5.0949;-0.2354;-0.0781;-0.0584
0000785682;5.2313;2.0135;5.2648;-0.2550;-0.0365;0.0003
0000785691;5.4396;2.0542;5.2601;-0.2322;0.0003;0.0392
0000785700;5.7006;1.6472;5.0757;-0.1772;0.0442;0.0793
0000785709;5.7676;2.1596;5.5569;-0.1743;0.0731;0.1074
0000785718;5.6743;1.8794;5.4061;-0.1617;0.0699;0.1340
0000785727;5.6982;1.9249;5.7197;-0.1255;0.0761;0.1522
0000785736;5.5522;1.9656;6.0190;-0.1075;0.0781;0.1375
0000785745;5.1715;1.9297;6.0885;-0.0297;0.0725;0.1033
0000785754;5.0063;2.1165;6.2513;0.0368;0.0608;0.0919
0000785763;4.5897;2.4588;6.3590;0.0783;0.0500;0.0757
0000785772;4.6831;2.4469;6.0525;0.1869;0.0195;0.0815
0000785781;4.6783;2.2649;5.6862;0.1692;0.0151;0.0930
0000785790;5.0374;2.5642;5.8634;0.1824;0.0189;0.0939
0000785931;4.6855;1.7190;5.1523;0.5477;-0.0089;0.0865
0000785940;4.6639;1.7142;5.0901;0.5641;-0.0024;0.0786
0000785949;4.5825;1.8220;5.1499;0.6211;0.0218;0.0854
0000785958;4.7980;2.5905;5.4660;0.7277;0.0262;0.0969
0000785967;5.3391;3.2944;5.2744;0.8006;0.0324;0.0990
0000785976;5.7485;3.5171;4.6136;0.7833;0.0394;0.0604
0000785985;5.5809;3.3710;4.2042;0.6322;0.0373;0.0326
0000785994;5.1092;3.2274;4.7094;0.5874;0.0185;-0.0008
0000786003;4.9536;2.9449;5.0494;0.5837;0.0059;-0.0257
0000786012;4.5729;2.5977;5.3558;0.6235;-0.0159;-0.0384
0000786021;4.6328;2.8706;5.4947;0.7285;-0.0294;-0.0309
0000786030;4.6543;2.8659;4.9105;0.7875;-0.0318;-0.0270
0000786039;5.0398;3.1651;4.6064;0.7801;-0.0308;-0.0155
0000786048;5.2601;3.4093;4.4412;0.7789;-0.0248;-0.0183
0000786057;5.4612;3.5721;4.2329;0.7718;-0.0125;-0.0224
0000786066;5.4109;3.2705;3.8307;0.6913;0.0049;-0.0088
0000786075;5.3893;3.2561;4.0845;0.7145;0.0109;-0.0035
0000786084;5.3103;3.0047;3.7828;0.7107;0.0137;-0.0009
0000786093;5.2457;2.3152;3.3375;0.6684;0.0003;0.0008
0000786102;5.4995;2.8802;4.0989;0.6932;0.0017;0.0161
0000786111;5.4324;1.9201;3.2274;0.6452;0.0020;0.0073
0000786120;5.6455;2.2482;3.6368;0.6635;0.0216;0.0027
0000786129;5.6479;2.1572;3.7876;0.6078;0.0393;0.0324
0000786138;5.5019;1.4461;3.4740;0.6202;0.0300;0.0334
0000786147;6.0047;2.1572;4.2066;0.7285;0.0369;0.0381
0000786156;5.4803;2.1931;3.8906;0.8563;0.0498;0.0484
0000786165;5.0829;2.5067;3.4668;0.9006;0.0436;0.0633
0000786174;5.2361;2.8371;2.9616;0.8903;0.0276;0.0562
0000786183;5.1763;3.1915;2.9161;0.8455;0.0204;0.0823
0000786192;5.1523;3.1603;2.8874;0.8198;0.0039;0.0903
0000786201;5.2098;2.8036;2.5881;0.7514;-0.0011;0.0915
0000786210;5.1068;2.6456;2.7174;0.6988;-0.0072;0.0953
0000786219;5.2026;2.7629;3.0981;0.7461;-0.0140;0.0953
0000786228;5.5617;2.7102;2.8970;0.7758;-0.0047;0.0777
0000786237;5.3367;2.4517;2.5977;0.7685;0.0165;0.0757
0000786246;5.2840;2.9473;2.6288;0.8084;0.0314;0.0798
0000786255;5.2864;2.8108;2.5450;0.8252;0.0378;0.0653
0000786264;5.3941;2.9113;2.2889;0.7989;0.0472;0.0570
0000786273;5.0374;2.9353;2.4253;0.7879;0.0481;0.0606
0000786282;5.2074;3.0239;2.4732;0.7990;0.0429;0.0636
0000786291;5.0685;2.9712;2.3415;0.8114;0.0318;0.0592
0000786300;4.7812;2.7605;2.3703;0.7999;0.0326;0.0867
0000786309;5.0757;2.8419;2.2290;0.8170;0.0105;0.1002
0000786318;5.5426;2.9975;2.0135;0.8223;-0.0045;0.1002
0000786327;5.7078;3.0813;1.9273;0.8192;-0.0071;0.1070
0000786336;5.7078;2.8754;1.9249;0.8190;-0.0119;0.1062
0000786345;5.7533;2.7749;1.7645;0.8342;-0.0115;0.0934
0000786354;5.7628;2.7461;1.7813;0.8299;-0.0019;0.0846
0000786363;5.9280;3.0358;1.5945;0.8395;-0.0200;0.0590
0000786372;5.8730;2.9257;1.5371;0.8432;-0.0193;0.0449
0000786381;5.5498;2.8108;1.6376;0.8484;-0.0057;0.0272
0000786390;5.4660;3.0622;1.4892;0.8560;-0.0141;0.0075
0000786399;5.5426;3.1005;1.3934;0.8430;-0.0292;0.0048
0000786408;5.5330;3.2968;1.1372;0.8010;-0.0448;0.0123
0000786417;5.7221;3.6775;1.1468;0.7729;-0.0530;0.0051
0000786426;5.7700;3.6679;1.0918;0.7140;-0.0436;0.0056
0000786435;5.8395;3.8044;0.9409;0.6479;-0.0338;-0.0053
0000786444;5.8371;3.7613;0.9960;0.5748;-0.0121;-0.0083
0000786453;5.8873;3.8978;0.9936;0.5344;-0.0089;-0.0191
0000786462;5.7700;3.6751;0.9026;0.5156;-0.0013;-0.0129
0000786471;5.5522;3.6152;0.9218;0.5004;-0.0031;-0.0144
0000786480;5.5474;3.8499;0.7877;0.4868;-0.0091;-0.0108
0000786489;5.3989;3.9504;0.7422;0.4864;-0.0203;-0.0071
0000786498;5.1858;3.7373;0.5315;0.4826;-0.0409;-0.0007
0000786507;5.1906;3.8068;0.3184;0.4699;-0.0731;0.0029
0000786516;5.2744;3.6631;0.2825;0.4410;-0.0855;0.0183
0000786525;5.5498;3.5674;0.0599;0.4065;-0.1015;0.0252
0000786534;5.8897;4.2186;-1.0415;0.3230;-0.1627;-0.0103
0000786543;5.7988;4.1061;-0.2562;0.2106;-0.1498;-0.0264
0000786552;5.7604;3.9049;0.1891;0.1692;-0.1407;-0.0384
0000786561;5.8682;3.6009;0.2801;0.1769;-0.1174;-0.0342
0000786570;5.5330;3.3303;0.0599;0.2281;-0.1025;-0.0360
0000786579;5.4827;3.4141;-0.2011;0.2840;-0.1010;-0.0364
0000786588;5.4157;3.4788;-0.3543;0.3139;-0.1023;-0.0382
0000786675;5.3630;3.5961;-0.4549;0.1667;-0.0440;0.0004
0000786684;5.3822;3.5602;-0.2969;0.1478;-0.0556;0.0024
0000786693;5.3917;3.3543;-0.1963;0.1258;-0.0460;0.0207
0000786702;5.4564;3.2465;-0.1389;0.1318;-0.0585;0.0258
0000786711;5.4013;3.3639;0.0096;0.1451;-0.0561;0.0426
0000786720;5.4708;3.3112;0.1437;0.1567;-0.0569;0.0550
0000786729;5.1906;3.3806;0.1125;0.1478;-0.0553;0.0710
0000786738;5.3654;3.3232;-0.0263;0.1279;-0.0710;0.0770
0000786747;5.4516;3.3758;-0.0120;0.0978;-0.0761;0.0891
0000786756;5.3534;3.1675;0.0287;0.0649;-0.0846;0.0865
0000786765;5.5689;3.3351;0.2107;0.0372;-0.0825;0.0918
0000786774;5.5689;3.2777;0.3089;0.0199;-0.0865;0.0782
0000786783;5.8706;3.3423;0.3041;0.0037;-0.0881;0.0645
0000786792;5.6120;3.1915;0.3232;-0.0123;-0.0873;0.0617
0000786801;5.7820;3.0502;0.3280;-0.0289;-0.0790;0.0520
0000786810;5.8802;3.1412;0.3831;-0.0304;-0.0850;0.0362
0000786819;5.7197;2.9999;0.4214;-0.0317;-0.0782;0.0366
0000786828;5.6814;3.0191;0.4214;-0.0253;-0.0827;0.0390
0000786837;5.6910;3.0119;0.4549;-0.0135;-0.0847;0.0388
0000786846;5.8299;3.0406;0.3855;-0.0101;-0.0842;0.0520
0000786855;5.8490;2.9784;0.5794;-0.0025;-0.0862;0.0418
0000786864;5.8490;3.0406;0.5267;-0.0001;-0.0843;0.0340
0000786873;6.0454;3.0837;0.5531;0.0023;-0.0770;0.0164
0000786882;5.8682;2.8132;0.5076;0.0061;-0.0652;0.0084
0000786891;5.9089;2.8946;0.5650;0.0220;-0.0630;-0.0017
0000786900;5.9065;3.0718;0.4573;0.0205;-0.0505;-0.0097
0000786909;5.8610;3.0885;0.3950;0.0176;-0.0425;-0.0201
0000786918;5.6503;2.9544;0.3424;0.0165;-0.0357;-0.0148
0000786927;5.6455;2.9904;0.4166;0.0188;-0.0414;-0.0209
0000786936;5.6000;2.9712;0.3615;0.0092;-0.0390;-0.0141
0000786945;5.6264;3.1412;0.3041;-0.0051;-0.0428;-0.0135
0000786954;5.6599;3.0670;0.2610;0.0009;-0.0520;-0.0179
0000786963;5.6120;3.0622;0.1508;-0.0083;-0.0522;-0.0139
0000786972;5.5857;2.9832;0.2107;-0.0048;-0.0544;-0.0183
0000786981;5.9568;3.2178;0.1844;0.0144;-0.0572;-0.0217
0000786990;5.6000;2.9353;0.2083;0.0220;-0.0538;-0.0290
0000786999;5.6599;2.9808;0.1030;0.0248;-0.0400;-0.0221
0000787008;5.7820;3.2394;0.0670;0.0301;-0.0385;-0.0244
0000787017;5.6790;3.0646;0.0287;0.0386;-0.0406;-0.0265
0000787026;5.5091;3.1603;-0.0072;0.0340;-0.0326;-0.0163
0000787035;5.6503;3.1795;-0.0599;0.0341;-0.0374;-0.0176
0000787044;5.6790;3.3519;-0.1437;0.0220;-0.0310;-0.0065
0000787053;5.6503;3.2729;-0.1365;0.0200;-0.0364;-0.0127
0000787062;5.7317;3.3662;-0.0982;0.0132;-0.0290;-0.0049
0000787071;5.5234;3.1891;-0.0168;0.0148;-0.0368;-0.0144
0000787080;5.7892;3.2417;-0.0982;0.0056;-0.0289;-0.0109
0000787089;5.6192;3.1101;-0.0048;0.0093;-0.0317;-0.0163
0000787098;5.7174;3.1220;0.0575;0.0241;-0.0313;-0.0152
0000787107;5.7509;3.1508;-0.0215;0.0258;-0.0246;-0.0025
0000787116;5.5067;3.0574;0.0168;0.0393;-0.0269;-0.0053
0000787125;5.7030;3.1508;0.0048;0.0338;-0.0215;0.0024
0000787134;5.6407;3.0694;0.0694;0.0348;-0.0336;-0.0004
0000787143;5.4444;3.0670;0.0407;0.0205;-0.0292;0.0041
0000787152;5.7389;3.2489;0.1006;0.0211;-0.0373;0.0033
0000787161;5.7700;3.2417;0.1173;0.0091;-0.0408;0.0059
0000787170;5.6479;3.2801;0.1700;0.0079;-0.0370;0.0047
0000787179;5.7796;3.1891;0.1484;-0.0007;-0.0392;-0.0032
0000787188;5.9137;3.1987;0.1293;-0.0111;-0.0278;-0.0011
0000787197;5.8993;3.2657;0.1460;-0.0113;-0.0294;-0.0059
0000787206;5.7916;3.1173;0.1484;-0.0125;-0.0265;-0.0007
0000787215;5.6790;3.0143;0.1748;-0.0037;-0.0312;-0.0025
0000787224;5.7006;3.0646;0.0527;-0.0048;-0.0262;-0.0041
0000787233;5.7820;3.3136;0.0455;0.0007;-0.0362;-0.0099
0000787242;5.7150;3.1125;0.1101;-0.0044;-0.0332;-0.0059
0000787251;5.8682;3.1603;0.0934;-0.0052;-0.0400;-0.0116
0000787260;5.7006;3.0981;-0.0024;-0.0127;-0.0336;-0.0120
0000787269;5.7533;3.2274;0.1221;-0.0089;-0.0337;-0.0083
0000787278;5.7604;3.0502;0.0503;-0.0156;-0.0301;-0.0155
0000787287;5.6551;3.2250;0.0359;-0.0081;-0.0376;-0.0159
0000787296;5.6647;2.9425;0.1341;-0.0059;-0.0310;-0.0075
0000787305;5.6862;3.0981;0.0575;-0.0033;-0.0321;-0.0085
0000787314;5.7317;3.1580;0.0215;0.0017;-0.0397;-0.0128
0000787323;5.6551;3.0885;0.0766;-0.0097;-0.0369;-0.0096
0000787410;5.6168;3.1436;-0.0024;-0.0015;-0.0420;-0.0091
0000787419;5.5881;3.2441;0.0479;-0.0044;-0.0392;-0.0080
0000787428;5.6862;3.0789;0.1030;-0.0091;-0.0386;-0.0097
0000787437;5.6934;3.1508;0.0431;-0.0023;-0.0446;-0.0129
0000787446;5.5881;3.1460;0.0120;-0.0117;-0.0385;-0.0139
0000787455;5.6958;3.2106;-0.0383;-0.0092;-0.0354;-0.0107
0000787464;5.7964;3.2250;0.0958;-0.0149;-0.0382;-0.0117
0000787473;5.7389;3.2394;0.0982;-0.0140;-0.0376;-0.0097
0000787482;5.6144;3.1939;0.0263;-0.0226;-0.0330;-0.0103
0000787491;5.6024;2.9904;0.1245;-0.0195;-0.0357;-0.0143
0000787500;5.6168;3.0837;0.1245;-0.0224;-0.0328;-0.0104
0000787509;5.7317;3.1292;0.0982;-0.0133;-0.0345;-0.0163
0000787518;5.4636;2.9592;0.0814;-0.0176;-0.0308;-0.0127
0000787527;5.7748;3.1532;0.0742;-0.0211;-0.0350;-0.0093
0000787536;5.7197;3.2394;0.0886;-0.0179;-0.0377;-0.0119
0000787545;5.7197;3.1532;0.0359;-0.0175;-0.0317;-0.0120
0000787554;5.6240;3.1556;0.1269;-0.0156;-0.0373;-0.0140
0000787563;5.8371;3.2729;0.0886;-0.0193;-0.0324;-0.0056
0000787572;5.7844;3.2920;0.1269;-0.0144;-0.0373;-0.0123
0000787581;5.6479;3.0885;0.0383;-0.0187;-0.0316;-0.0077
0000787590;5.8347;3.2106;0.1365;-0.0229;-0.0302;-0.0141
0000787599;5.7389;3.1771;0.0934;-0.0119;-0.0378;-0.0175
0000787608;5.6120;3.0646;0.0168;-0.0173;-0.0322;-0.0124
0000787617;5.6719;3.2465;0.0311;-0.0222;-0.0360;-0.0188
0000787626;5.8227;3.2322;0.0168;-0.0189;-0.0329;-0.0103
0000787635;5.6958;3.0095;0.0551;-0.0188;-0.0330;-0.0127
0000787644;5.7796;3.1340;0.0838;-0.0232;-0.0280;-0.0104
0000787653;5.8826;3.1149;0.0599;-0.0221;-0.0330;-0.0188
0000787662;5.7030;3.2034;0.0503;-0.0156;-0.0378;-0.0201
0000787671;5.8419;3.1580;0.0766;-0.0167;-0.0368;-0.0188
0000787680;5.6767;3.1388;0.0694;-0.0169;-0.0354;-0.0212
0000787689;5.7892;3.2154;0.0527;-0.0135;-0.0361;-0.0161
0000787698;5.6000;2.9904;0.1077;-0.0140;-0.0365;-0.0200
0000787707;5.5761;3.0287;-0.0311;-0.0109;-0.0426;-0.0226
0000787716;5.7269;3.1244;0.0527;-0.0153;-0.0321;-0.0141
0000787725;5.6695;3.0765;0.0527;-0.0101;-0.0360;-0.0226
0000787734;5.6838;3.1436;0.1269;-0.0159;-0.0338;-0.0147
0000787743;5.6240;3.0813;0.0934;-0.0104;-0.0354;-0.0156
0000787752;5.6216;3.0598;0.0431;-0.0135;-0.0322;-0.0099
0000787761;5.8155;3.1963;0.0479;-0.0147;-0.0389;-0.0191
0000787770;5.7676;3.3184;0.0024;-0.0257;-0.0378;-0.0159
0000787779;5.7628;3.2226;0.0048;-0.0328;-0.0354;-0.0121
0000787788;5.9185;3.2202;0.0838;-0.0292;-0.0410;-0.0143
0000787797;5.7581;3.2513;0.0072;-0.0394;-0.0366;-0.0172
0000787806;5.6647;3.1029;0.0168;-0.0333;-0.0358;-0.0171
0000787815;5.6695;3.1963;-0.0168;-0.0404;-0.0346;-0.0115
0000787824;5.7006;3.1819;0.0024;-0.0341;-0.0398;-0.0156
0000787833;5.6407;3.1340;0.0455;-0.0390;-0.0310;-0.0087
0000787842;5.6743;3.1268;0.1389;-0.0372;-0.0314;-0.0123
0000787851;5.5545;3.0406;0.1030;-0.0342;-0.0365;-0.0148
0000787860;5.6719;3.2274;0.0503;-0.0452;-0.0360;-0.0095
0000787869;5.7557;3.0550;0.0311;-0.0402;-0.0321;-0.0087
0000787878;5.8107;3.2010;0.0886;-0.0356;-0.0314;-0.0075
0000787887;5.4851;3.0885;0.0503;-0.0273;-0.0388;-0.0175
0000787896;5.6455;3.2394;0.0958;-0.0385;-0.0313;-0.0059
0000787905;5.6360;3.1244;0.0958;-0.0394;-0.0334;-0.0071
0000787914;5.6982;3.1053;0.0120;-0.0406;-0.0385;-0.0116
0000787923;5.7006;3.0670;0.0527;-0.0477;-0.0330;-0.0063
0000787932;5.7509;3.1747;0.0790;-0.0497;-0.0312;-0.0127
0000787941;5.8155;3.2944;0.1245;-0.0429;-0.0298;-0.0088
0000787950;5.7365;3.1651;0.1006;-0.0361;-0.0360;-0.0147
0000787959;5.6120;3.2178;0.1628;-0.0446;-0.0358;-0.0131
0000787968;5.6024;3.0694;0.0407;-0.0497;-0.0352;-0.0127
0000787977;5.7102;3.1675;0.1077;-0.0577;-0.0357;-0.0139
0000787986;5.6623;3.0957;0.1604;-0.0514;-0.0384;-0.0173
0000787995;5.7964;3.1867;0.1844;-0.0618;-0.0292;-0.0109
0000788004;5.8490;3.1220;0.1724;-0.0589;-0.0322;-0.0147
0000788013;5.7485;3.1867;0.1532;-0.0556;-0.0341;-0.0163
0000788022;5.5857;3.0550;0.0910;-0.0557;-0.0281;-0.0069
0000788031;5.6982;3.1651;0.1221;-0.0474;-0.0314;-0.0196
0000788040;5.6455;3.2154;0.1532;-0.0456;-0.0246;-0.0092
0000788049;5.7126;3.2226;0.0790;-0.0578;-0.0284;-0.0155
0000788138;5.6719;3.0885;0.0862;-0.0454;-0.0270;-0.0083
0000788147;5.8227;3.1987;0.1915;-0.0432;-0.0321;-0.0101
0000788156;5.6910;3.0502;0.2083;-0.0428;-0.0373;-0.0125
0000788165;5.9520;3.1508;0.1748;-0.0417;-0.0280;-0.0056
0000788174;5.7628;3.0981;0.1676;-0.0325;-0.0362;-0.0185
0000788183;5.6431;3.0358;0.1676;-0.0389;-0.0293;-0.0112
0000788192;5.7724;3.1891;0.1915;-0.0349;-0.0417;-0.0207
0000788201;5.8562;3.3423;0.1844;-0.0393;-0.0321;-0.0128
0000788210;5.6958;3.1196;0.2610;-0.0342;-0.0338;-0.0139
0000788219;5.7557;3.0694;0.2155;-0.0336;-0.0337;-0.0133
0000788228;5.7700;3.0765;0.2586;-0.0238;-0.0393;-0.0160
0000788237;5.7245;3.0550;0.2897;-0.0268;-0.0270;-0.0139
0000788246;5.8251;3.2489;0.2562;-0.0244;-0.0340;-0.0165
0000788255;5.8490;3.1915;0.1915;-0.0207;-0.0381;-0.0185
0000788264;5.5929;3.1149;0.1796;-0.0272;-0.0340;-0.0163
0000788273;5.6671;3.0095;0.2346;-0.0277;-0.0398;-0.0234
0000788282;5.6982;3.1149;0.1820;-0.0305;-0.0402;-0.0205
0000788291;5.7676;3.1771;0.1676;-0.0345;-0.0334;-0.0176
0000788300;5.7245;3.1436;0.1724;-0.0328;-0.0348;-0.0207
0000788309;5.7365;3.0478;0.1413;-0.0433;-0.0333;-0.0147
0000788318;5.7748;3.0813;0.1867;-0.0373;-0.0370;-0.0200
0000788327;5.5378;2.9904;0.2322;-0.0313;-0.0370;-0.0160
0000788336;5.6862;3.0119;0.1293;-0.0413;-0.0337;-0.0157
0000788345;5.8466;3.2130;0.2131;-0.0352;-0.0388;-0.0249
0000788354;5.7317;3.0742;0.1006;-0.0350;-0.0377;-0.0199
0000788363;5.8083;3.3040;0.2562;-0.0378;-0.0333;-0.0176
0000788372;5.7174;3.2202;0.2107;-0.0333;-0.0329;-0.0177
0000788381;5.6790;3.1268;0.1748;-0.0314;-0.0404;-0.0222
0000788390;5.8490;3.2274;0.2274;-0.0229;-0.0368;-0.0188
0000788399;5.6743;3.1675;0.1652;-0.0229;-0.0338;-0.0180
0000788408;5.6982;3.1556;0.2514;-0.0203;-0.0317;-0.0159
0000788417;5.5976;3.0957;0.1341;-0.0207;-0.0360;-0.0248
0000788426;5.9328;3.2872;0.1437;-0.0157;-0.0392;-0.0155
0000788435;5.7341;3.2010;0.2011;-0.0176;-0.0348;-0.0164
0000788444;5.7604;3.1747;0.2346;-0.0205;-0.0393;-0.0197
0000788453;5.7197;3.0047;0.1460;-0.0282;-0.0356;-0.0152
0000788462;5.7892;3.1747;0.2801;-0.0300;-0.0336;-0.0144
0000788471;5.6623;3.1101;0.1748;-0.0309;-0.0313;-0.0147
0000788480;5.6455;3.1627;0.2562;-0.0257;-0.0402;-0.0197
0000788489;5.8682;3.3088;0.0551;-0.0333;-0.0381;-0.0199
0000788498;5.7341;3.2058;0.1796;-0.0370;-0.0322;-0.0137
0000788507;5.6719;3.0071;0.2993;-0.0326;-0.0413;-0.0163
0000788516;5.5976;3.1508;0.3089;-0.0292;-0.0329;-0.0124
0000788525;5.5306;3.0167;0.2251;-0.0346;-0.0308;-0.0136
0000788534;5.7197;3.1436;0.2538;-0.0269;-0.0382;-0.0173
0000788543;5.8035;3.1627;0.1676;-0.0337;-0.0268;-0.0119
0000788552;5.5641;3.0813;0.2873;-0.0234;-0.0372;-0.0169
0000788561;5.8466;3.2178;0.3160;-0.0257;-0.0326;-0.0085
0000788570;5.7844;3.3495;0.1604;-0.0201;-0.0336;-0.0105
0000788579;5.7102;3.1508;0.2921;-0.0181;-0.0342;-0.0160
0000788588;5.6479;3.1029;0.2298;-0.0257;-0.0320;-0.0077
0000788597;5.8203;3.1963;0.2634;-0.0207;-0.0402;-0.0148
0000788606;5.7341;3.0813;0.1939;-0.0201;-0.0340;-0.0121
0000788615;5.9376;3.1436;0.2945;-0.0140;-0.0376;-0.0144
0000788624;5.5785;3.0622;0.2610;-0.0212;-0.0288;-0.0128
0000788633;5.7940;3.1149;0.2107;-0.0159;-0.0348;-0.0163
0000788642;5.8227;3.0789;0.2538;-0.0133;-0.0344;-0.0097
0000788651;5.7748;3.1843;0.3089;-0.0222;-0.0290;-0.0079
0000788660;5.7868;3.1556;0.2274;-0.0152;-0.0365;-0.0160
0000788669;5.7724;3.2346;0.2586;-0.0197;-0.0302;-0.0096
0000788678;5.8107;3.2441;0.1508;-0.0196;-0.0304;-0.0131
0000788687;5.7293;3.2370;0.2059;-0.0101;-0.0357;-0.0208
0000788696;5.7533;3.1795;0.2322;-0.0147;-0.0356;-0.0164
0000788705;5.7221;3.1603;0.2442;-0.0143;-0.0342;-0.0149
0000788714;5.7413;3.0670;0.2227;-0.0091;-0.0385;-0.0161
0000788723;5.7126;3.2394;0.3735;-0.0175;-0.0352;-0.0140
0000788732;5.7509;3.2034;0.2825;-0.0101;-0.0362;-0.0152
0000788741;5.5402;2.9066;0.3232;-0.0143;-0.0338;-0.0156
0000788750;5.9352;3.2370;0.2777;-0.0092;-0.0394;-0.0147
0000788759;5.5905;3.0071;0.2179;-0.0136;-0.0340;-0.0139
0000788768;5.7604;3.1244;0.2682;-0.0109;-0.0326;-0.0123
0000788777;5.7006;3.0550;0.2394;-0.0100;-0.0338;-0.0121
0000788863;5.8347;3.2920;0.1796;0.0020;-0.0417;-0.0196
0000788872;5.8083;3.1556;0.1915;-0.0016;-0.0352;-0.0147
0000788881;5.4899;3.0718;0.2538;-0.0035;-0.0380;-0.0149
0000788890;5.8873;3.1196;0.1939;-0.0065;-0.0381;-0.0193
0000788899;5.8658;3.2825;0.1987;-0.0056;-0.0368;-0.0184
0000788908;5.6527;3.1819;0.2873;-0.0023;-0.0386;-0.0165
0000788917;5.7221;3.1580;0.2442;-0.0060;-0.0353;-0.0163
0000788926;5.7197;3.2633;0.2131;0.0017;-0.0372;-0.0159
0000788935;5.8538;3.1699;0.2131;0.0011;-0.0325;-0.0105
0000788944;5.7413;3.2154;0.2322;-0.0028;-0.0342;-0.0136
0000788953;5.7126;3.2226;0.2753;-0.0044;-0.0326;-0.0135
0000788962;5.7557;3.0933;0.2682;-0.0143;-0.0313;-0.0155
0000788971;5.6312;3.1220;0.1963;-0.0125;-0.0360;-0.0088
0000788980;5.6024;3.0550;0.2586;-0.0165;-0.0306;-0.0116
0000788989;5.7030;3.1603;0.2610;-0.0112;-0.0376;-0.0133
0000788998;5.6982;3.0981;0.2658;-0.0131;-0.0305;-0.0132
0000789007;5.7533;3.1436;0.2562;-0.0052;-0.0385;-0.0216
0000789016;5.8466;3.1149;0.0982;-0.0088;-0.0374;-0.0169
0000789025;5.7341;3.1603;0.2107;-0.0140;-0.0322;-0.0120
0000789034;5.7557;3.1436;0.1772;-0.0092;-0.0385;-0.0203
0000789043;5.8562;3.1316;0.1532;-0.0104;-0.0368;-0.0203
0000789052;5.7652;3.1963;0.1963;-0.0132;-0.0300;-0.0117
0000789061;5.7461;3.1699;0.2658;-0.0040;-0.0376;-0.0163
0000789070;5.6192;3.0933;0.2011;-0.0071;-0.0320;-0.0080
0000789077;5.7389;3.2250;0.2251;-0.0084;-0.0297;-0.0087
0000789085;5.6838;3.2561;0.2322;-0.0072;-0.0369;-0.0107
0000789093;5.6383;3.1077;0.1844;-0.0115;-0.0353;-0.0183
0000789101;5.5976;3.0406;0.1700;-0.0075;-0.0406;-0.0137
0000789109;5.8514;3.2992;0.2227;-0.0168;-0.0308;-0.0089
0000789117;5.6958;3.1651;0.2011;-0.0147;-0.0344;-0.0143
0000789125;5.7676;3.2705;0.1891;-0.0101;-0.0360;-0.0184
0000789133;5.7102;3.0837;0.1437;-0.0080;-0.0344;-0.0189
0000789141;5.6671;3.1867;0.2179;-0.0103;-0.0304;-0.0141
0000789149;5.7006;3.1627;0.2155;-0.0133;-0.0268;-0.0124
0000789157;5.7988;3.1029;0.2083;-0.0101;-0.0381;-0.0148
0000789165;5.6144;3.0574;0.1437;-0.0053;-0.0349;-0.0140
0000789173;5.7317;3.1484;0.1604;-0.0095;-0.0304;-0.0121
0000789181;5.8131;3.1340;0.1867;-0.0081;-0.0308;-0.0103
0000789189;5.7293;3.0598;0.2586;-0.0035;-0.0346;-0.0152
0000789197;5.6958;3.2298;0.1604;0.0011;-0.0308;-0.0128
0000789205;5.6336;3.1603;0.2035;-0.0073;-0.0300;-0.0121
0000789213;5.7150;3.1292;0.1676;-0.0059;-0.0313;-0.0109
0000789221;5.6623;3.1340;0.2059;-0.0097;-0.0344;-0.0125
0000789229;5.7030;3.0694;0.2370;-0.0065;-0.0354;-0.0133
0000789237;5.6767;3.1388;0.1628;0.0025;-0.0353;-0.0131
0000789245;5.7269;3.0813;0.1724;-0.0025;-0.0354;-0.0140
0000789253;5.6814;3.1316;0.2346;-0.0005;-0.0386;-0.0205
0000789261;5.7150;3.1292;0.2203;-0.0013;-0.0326;-0.0147
0000789269;5.7700;3.2106;0.2155;-0.0073;-0.0280;-0.0129
