time;acc_x;acc_y;acc_z;gyro_x;gyro_y;gyro_z
0000356981;6.1196;-15.2989;3.6847;-0.0044;-0.0205;-0.0211
0000356989;6.1459;-15.4139;3.7062;-0.0041;-0.0230;-0.0237
0000356996;6.0430;-15.2942;3.7541;-0.0051;-0.0249;-0.0240
0000357004;6.0525;-15.3971;3.6679;-0.0107;-0.0193;-0.0181
0000357016;5.9783;-15.3923;3.6583;-0.0096;-0.0217;-0.0232
0000357023;6.0358;-15.3851;3.6488;-0.0095;-0.0238;-0.0211
0000357091;6.1651;-15.3899;3.6416;-0.0120;-0.0349;-0.0160
0000357099;5.9424;-15.4665;3.6559;-0.0132;-0.0320;-0.0148
0000357110;5.9233;-15.4785;3.6512;-0.0040;-0.0421;-0.0171
0000357118;6.1028;-15.3420;3.6966;-0.0084;-0.0384;-0.0125
0000357126;6.0717;-15.4211;3.6799;-0.0071;-0.0421;-0.0165
0000357138;6.0238;-15.3325;3.6248;-0.0095;-0.0469;-0.0132
0000357146;6.1100;-15.3325;3.6344;0.0045;-0.0486;-0.0144
0000357157;6.0573;-15.4498;3.7038;-0.0032;-0.0405;-0.0113
0000357165;6.1004;-15.3612;3.7302;0.0009;-0.0468;-0.0165
0000357177;6.0286;-15.3804;3.6775;0.0024;-0.0501;-0.0149
0000357185;6.0813;-15.3923;3.7038;-0.0003;-0.0429;-0.0108
0000357196;5.9664;-15.4282;3.7637;0.0005;-0.0457;-0.0127
0000357204;6.0597;-15.3492;3.6655;-0.0039;-0.0442;-0.0083
0000357217;5.9233;-15.4139;3.7062;-0.0055;-0.0412;-0.0091
0000357224;6.1555;-15.3037;3.6655;-0.0115;-0.0372;-0.0064
0000357235;6.0525;-15.3708;3.6536;-0.0065;-0.0421;-0.0077
0000357243;6.1579;-15.3756;3.6775;-0.0116;-0.0444;-0.0095
0000357251;6.0094;-15.3325;3.7421;-0.0089;-0.0476;-0.0163
0000357263;6.1411;-15.3181;3.7014;-0.0103;-0.0486;-0.0149
0000357271;6.0908;-15.3899;3.6823;-0.0068;-0.0494;-0.0167
0000357282;5.8658;-15.4641;3.7134;-0.0124;-0.0448;-0.0089
0000357290;5.9999;-15.4833;3.7038;-0.0077;-0.0485;-0.0157
0000357358;6.1148;-15.3397;3.6966;-0.0119;-0.0357;-0.0055
0000357366;6.0047;-15.3756;3.7182;-0.0099;-0.0344;-0.0085
0000357377;6.1507;-15.2247;3.6248;-0.0169;-0.0301;-0.0072
0000357385;6.0118;-15.3588;3.6631;-0.0089;-0.0345;-0.0123
0000357397;6.0094;-15.5719;3.5985;-0.0057;-0.0349;-0.0069
0000357405;6.0885;-15.4091;3.6320;-0.0048;-0.0321;-0.0100
0000357413;6.0262;-15.3277;3.6895;-0.0072;-0.0344;-0.0059
0000357424;6.0478;-15.3205;3.6536;0.0019;-0.0322;-0.0092
0000357432;6.0861;-15.4713;3.6751;0.0011;-0.0318;-0.0095
0000357444;6.1555;-15.2894;3.6440;0.0001;-0.0320;-0.0139
0000357452;5.9089;-15.3995;3.7110;-0.0071;-0.0314;-0.0100
0000357463;5.9233;-15.3085;3.6344;-0.0021;-0.0348;-0.0119
0000357471;6.0717;-15.3253;3.7469;-0.0104;-0.0285;-0.0085
0000357483;5.9472;-15.3899;3.5961;-0.0084;-0.0348;-0.0113
0000357491;6.2632;-15.2343;3.7230;-0.0143;-0.0321;-0.0037
0000357502;6.0621;-15.4115;3.7134;-0.0119;-0.0328;-0.0077
0000357510;6.0071;-15.4594;3.5865;-0.0112;-0.0322;-0.0091
0000357522;6.1004;-15.4474;3.7421;-0.0040;-0.0340;-0.0109
0000357530;6.0190;-15.3875;3.6990;-0.0072;-0.0270;-0.0073
0000357538;6.0358;-15.4905;3.6799;-0.0067;-0.0285;-0.0140
0000357549;6.0094;-15.4306;3.7014;0.0032;-0.0294;-0.0144
0000357557;6.0118;-15.3564;3.5913;-0.0055;-0.0218;-0.0084
0000357625;6.0597;-15.2942;3.6631;-0.0079;-0.0207;-0.0060
0000357633;5.9616;-15.4594;3.6512;-0.0133;-0.0266;-0.0064
0000357644;5.9065;-15.4378;3.6200;-0.0100;-0.0226;-0.0096
0000357652;6.0813;-15.4211;3.6679;-0.0085;-0.0266;-0.0120
0000357664;6.1268;-15.2989;3.6583;-0.0109;-0.0320;-0.0184
0000357672;6.1387;-15.4139;3.6392;-0.0136;-0.0286;-0.0159
0000357683;6.0286;-15.3899;3.6607;-0.0112;-0.0284;-0.0085
0000357691;5.9640;-15.3636;3.7206;-0.0157;-0.0274;-0.0133
0000357703;6.0932;-15.4378;3.6751;-0.0084;-0.0342;-0.0111
0000357711;6.0837;-15.4857;3.6583;-0.0060;-0.0326;-0.0143
0000357719;6.0071;-15.4665;3.6943;-0.0107;-0.0292;-0.0064
0000357730;6.0501;-15.2654;3.7350;-0.0153;-0.0240;-0.0101
0000357738;5.9161;-15.2870;3.7182;-0.0107;-0.0330;-0.0192
0000357750;6.0501;-15.3420;3.7014;-0.0133;-0.0322;-0.0164
0000357758;5.9807;-15.2128;3.6320;-0.0125;-0.0380;-0.0176
0000357769;6.1723;-15.3037;3.7781;-0.0139;-0.0369;-0.0151
0000357777;6.2225;-15.2463;3.6272;-0.0168;-0.0336;-0.0136
0000357789;6.1124;-15.3636;3.6943;-0.0129;-0.0317;-0.0151
0000357797;6.2153;-15.3468;3.6512;-0.0123;-0.0298;-0.0120
0000357809;6.1124;-15.3756;3.7110;-0.0104;-0.0265;-0.0140
0000357817;5.9783;-15.4929;3.7158;-0.0052;-0.0320;-0.0205
0000357885;6.0286;-15.5025;3.8020;-0.0049;-0.0309;-0.0143
0000357893;5.9400;-15.3684;3.6799;-0.0017;-0.0381;-0.0180
0000357901;6.1603;-15.3732;3.7182;-0.0081;-0.0333;-0.0127
0000357912;5.9017;-15.4330;3.7206;-0.0035;-0.0377;-0.0144
0000357920;6.2369;-15.3037;3.7397;-0.0095;-0.0356;-0.0083
0000357933;6.0908;-15.3468;3.7397;-0.0071;-0.0320;-0.0165
0000357940;5.9496;-15.4258;3.6727;-0.0093;-0.0314;-0.0131
0000357951;6.1723;-15.3109;3.7421;-0.0075;-0.0370;-0.0159
0000357959;6.1483;-15.2774;3.6296;-0.0100;-0.0352;-0.0191
0000357971;6.0980;-15.3851;3.8140;-0.0072;-0.0365;-0.0184
0000357979;6.1794;-15.3492;3.6919;-0.0067;-0.0360;-0.0224
0000357990;6.0118;-15.4115;3.7014;-0.0087;-0.0328;-0.0216
0000357998;6.2082;-15.3444;3.7589;-0.0052;-0.0349;-0.0196
0000358010;6.0837;-15.3181;3.7038;-0.0088;-0.0370;-0.0229
0000358018;6.1962;-15.2822;3.6631;-0.0128;-0.0332;-0.0180
0000358026;5.9807;-15.4761;3.7852;-0.0152;-0.0301;-0.0116
0000358037;6.0549;-15.3756;3.7254;-0.0115;-0.0337;-0.0143
0000358045;6.0166;-15.4115;3.7158;-0.0139;-0.0341;-0.0141
0000358057;6.1172;-15.3229;3.7421;-0.0119;-0.0374;-0.0180
0000358065;6.1579;-15.3995;3.6943;-0.0063;-0.0390;-0.0189
0000358077;6.1986;-15.2247;3.7278;-0.0104;-0.0404;-0.0164
0000358085;5.9568;-15.3636;3.7517;-0.0112;-0.0400;-0.0169
0000358153;6.0669;-15.4641;3.6775;-0.0132;-0.0340;-0.0131
0000358161;6.0525;-15.4115;3.7469;-0.0072;-0.0369;-0.0151
0000358172;5.9568;-15.3420;3.7757;-0.0111;-0.0332;-0.0173
0000358180;6.0118;-15.3660;3.6943;-0.0067;-0.0328;-0.0179
0000358192;6.2130;-15.1577;3.7158;-0.0139;-0.0265;-0.0148
0000358200;6.0214;-15.3109;3.6943;-0.0156;-0.0265;-0.0164
0000358208;6.0406;-15.3301;3.6871;-0.0129;-0.0350;-0.0225
0000358219;6.0765;-15.3756;3.7038;-0.0176;-0.0276;-0.0152
0000358227;5.9496;-15.4354;3.7062;-0.0128;-0.0314;-0.0157
0000358240;6.1651;-15.3612;3.7445;-0.0119;-0.0297;-0.0179
0000358247;6.0741;-15.2343;3.6943;-0.0156;-0.0269;-0.0157
0000358258;6.0190;-15.4115;3.7541;-0.0104;-0.0356;-0.0196
0000358266;6.1363;-15.2630;3.6631;-0.0120;-0.0265;-0.0185
0000358278;5.9687;-15.4091;3.7876;-0.0089;-0.0293;-0.0201
0000358286;5.9807;-15.5025;3.7062;-0.0136;-0.0322;-0.0212
0000358297;6.0885;-15.3013;3.7613;-0.0159;-0.0288;-0.0123
0000358305;6.1220;-15.3085;3.6559;-0.0119;-0.0312;-0.0107
0000358313;5.9544;-15.5025;3.7206;-0.0057;-0.0374;-0.0155
0000358325;6.0789;-15.3804;3.7948;-0.0116;-0.0418;-0.0183
0000358333;5.9999;-15.3636;3.7685;-0.0127;-0.0378;-0.0127
0000358345;6.0094;-15.4929;3.6679;-0.0111;-0.0362;-0.0195
0000358353;6.1794;-15.3037;3.7373;-0.0167;-0.0389;-0.0160
0000358421;5.9759;-15.3971;3.7158;-0.0137;-0.0369;-0.0148
0000358429;6.1052;-15.3971;3.7062;-0.0120;-0.0382;-0.0179
0000358441;6.1866;-15.3157;3.7206;-0.0131;-0.0373;-0.0195
0000358449;5.8778;-15.4905;3.7326;-0.0117;-0.0394;-0.0188
0000358460;5.9999;-15.3780;3.7541;-0.0108;-0.0354;-0.0144
0000358468;5.9664;-15.4426;3.6200;-0.0049;-0.0426;-0.0168
0000358480;6.1699;-15.2247;3.6823;-0.0051;-0.0406;-0.0147
0000358488;6.1148;-15.2894;3.6847;-0.0129;-0.0366;-0.0076
0000358496;6.1028;-15.3804;3.7565;-0.0104;-0.0377;-0.0164
0000358507;6.1339;-15.2966;3.7852;-0.0084;-0.0422;-0.0183
0000358515;6.0334;-15.3420;3.8164;-0.0072;-0.0365;-0.0149
0000358527;6.0382;-15.3516;3.7302;-0.0111;-0.0420;-0.0195
0000358535;6.0190;-15.4378;3.6943;-0.0097;-0.0410;-0.0136
0000358546;5.9927;-15.4761;3.7373;-0.0101;-0.0398;-0.0173
0000358554;6.1268;-15.3397;3.6655;-0.0164;-0.0370;-0.0116
0000358566;6.1699;-15.4067;3.7565;-0.0141;-0.0373;-0.0065
0000358574;6.0621;-15.3085;3.7948;-0.0128;-0.0397;-0.0145
0000358585;6.0669;-15.3540;3.7182;-0.0095;-0.0336;-0.0121
0000358593;6.0597;-15.3229;3.7134;-0.0125;-0.0392;-0.0132
0000358605;6.1148;-15.2942;3.7182;-0.0152;-0.0401;-0.0139
0000358613;6.1435;-15.3133;3.7326;-0.0117;-0.0398;-0.0164
0000358621;6.0645;-15.3253;3.7589;-0.0165;-0.0334;-0.0101
0000358689;6.1292;-15.3971;3.7804;-0.0179;-0.0378;-0.0195
0000358697;6.1459;-15.2463;3.7804;-0.0160;-0.0386;-0.0230
0000358709;6.2082;-15.2918;3.7254;-0.0176;-0.0364;-0.0207
0000358717;6.0956;-15.4187;3.7397;-0.0161;-0.0370;-0.0147
0000358728;5.9951;-15.4761;3.7326;-0.0156;-0.0346;-0.0217
0000358736;6.1723;-15.4139;3.7206;-0.0141;-0.0280;-0.0125
0000358748;6.1028;-15.2559;3.8116;-0.0115;-0.0282;-0.0113
0000358756;6.1627;-15.2989;3.7541;-0.0097;-0.0330;-0.0153
0000358767;5.8610;-15.4833;3.6679;-0.0117;-0.0357;-0.0175
0000358775;6.1675;-15.2559;3.7397;-0.0072;-0.0365;-0.0193
0000358787;6.0501;-15.4785;3.7158;-0.0101;-0.0356;-0.0144
0000358795;6.0406;-15.4019;3.6488;-0.0085;-0.0369;-0.0185
0000358803;6.2106;-15.2654;3.7421;-0.0052;-0.0370;-0.0197
0000358814;6.0047;-15.3875;3.7038;-0.0076;-0.0348;-0.0204
0000358822;6.1316;-15.2702;3.6799;-0.0128;-0.0292;-0.0187
0000358834;6.1483;-15.3468;3.7326;-0.0144;-0.0293;-0.0171
0000358842;6.0885;-15.4187;3.6799;-0.0140;-0.0309;-0.0179
0000358853;6.1316;-15.3181;3.7254;-0.0093;-0.0316;-0.0177
0000358861;6.2082;-15.2199;3.6871;-0.0164;-0.0336;-0.0123
0000358873;5.9352;-15.4234;3.7062;-0.0145;-0.0321;-0.0155
0000358881;6.1292;-15.3157;3.7278;-0.0164;-0.0332;-0.0167
0000358950;6.1579;-15.3804;3.7254;-0.0152;-0.0408;-0.0149
0000358957;6.1172;-15.2559;3.7038;-0.0165;-0.0354;-0.0073
0000358969;6.1938;-15.3827;3.6990;-0.0164;-0.0378;-0.0132
0000358977;6.0238;-15.4187;3.7613;-0.0096;-0.0432;-0.0165
0000358985;6.2058;-15.2080;3.7421;-0.0116;-0.0420;-0.0151
0000358997;6.0885;-15.3636;3.7182;-0.0108;-0.0438;-0.0160
0000359004;6.0908;-15.2894;3.6775;-0.0204;-0.0342;-0.0108
0000359016;6.1579;-15.2367;3.6727;-0.0209;-0.0341;-0.0139
0000359024;6.1028;-15.3013;3.7230;-0.0131;-0.0413;-0.0212
0000359035;6.0741;-15.4905;3.7302;-0.0172;-0.0349;-0.0107
0000359043;6.0717;-15.4043;3.7493;-0.0076;-0.0384;-0.0181
0000359055;6.2273;-15.2367;3.6799;-0.0061;-0.0397;-0.0201
0000359063;6.0501;-15.4091;3.6775;-0.0119;-0.0337;-0.0164
0000359074;6.0956;-15.3253;3.7661;-0.0157;-0.0366;-0.0157
0000359082;6.1986;-15.4163;3.7852;-0.0176;-0.0352;-0.0157
0000359094;5.9352;-15.4881;3.7062;-0.0179;-0.0332;-0.0123
0000359102;6.2369;-15.2894;3.7565;-0.0101;-0.0369;-0.0183
0000359110;6.1483;-15.3804;3.7757;-0.0097;-0.0364;-0.0113
0000359121;6.0597;-15.2966;3.7350;-0.0120;-0.0305;-0.0117
0000359129;6.1411;-15.3516;3.6176;-0.0136;-0.0288;-0.0105
0000359141;5.9951;-15.4354;3.7493;-0.0099;-0.0306;-0.0139
0000359149;6.2225;-15.2966;3.7589;-0.0135;-0.0305;-0.0175
0000359213;6.0885;-15.3540;3.7397;-0.0123;-0.0270;-0.0116
0000359221;6.2513;-15.1936;3.7517;-0.0119;-0.0294;-0.0191
0000359233;6.3470;-15.2128;3.7445;-0.0120;-0.0266;-0.0192
0000359241;5.9927;-15.4761;3.7948;-0.0089;-0.0329;-0.0245
0000359252;6.2106;-15.3708;3.8092;-0.0127;-0.0282;-0.0197
0000359260;6.1866;-15.2343;3.7685;-0.0073;-0.0281;-0.0234
0000359272;5.9879;-15.4163;3.7757;-0.0092;-0.0297;-0.0238
0000359280;6.1459;-15.2104;3.7757;-0.0075;-0.0256;-0.0195
0000359288;6.0358;-15.3157;3.7876;-0.0156;-0.0240;-0.0133
0000359299;6.1004;-15.2295;3.8020;-0.0145;-0.0199;-0.0128
0000359307;5.9089;-15.3444;3.6512;-0.0163;-0.0289;-0.0204
0000359319;6.0813;-15.3827;3.7493;-0.0218;-0.0273;-0.0141
0000359327;5.9951;-15.5001;3.6895;-0.0153;-0.0300;-0.0149
0000359338;6.1603;-15.3708;3.7421;-0.0113;-0.0317;-0.0208
0000359346;6.2058;-15.3325;3.6464;-0.0108;-0.0272;-0.0168
0000359358;6.2968;-15.3732;3.7373;-0.0111;-0.0274;-0.0165
0000359366;6.0885;-15.3947;3.7445;-0.0056;-0.0285;-0.0197
0000359377;6.0813;-15.2750;3.7541;-0.0085;-0.0226;-0.0173
0000359385;6.0549;-15.4833;3.7852;-0.0061;-0.0189;-0.0139
0000359397;6.0573;-15.2846;3.8307;-0.0029;-0.0322;-0.0220
0000359405;6.1579;-15.3612;3.7517;-0.0052;-0.0268;-0.0165
0000359413;6.0358;-15.3923;3.6248;-0.0100;-0.0199;-0.0121
0000359477;6.1172;-15.4091;3.7757;0.0216;-0.0309;-0.0211
0000359485;6.0693;-15.4234;3.7972;0.0167;-0.0246;-0.0215
0000359497;6.2034;-15.3037;3.7661;0.0160;-0.0189;-0.0183
0000359505;6.1890;-15.3229;3.7326;0.0157;-0.0222;-0.0213
0000359516;6.1531;-15.2702;3.8164;0.0216;-0.0218;-0.0211
0000359524;6.1196;-15.3684;3.8571;0.0165;-0.0181;-0.0143
0000359536;6.1746;-15.3181;3.7924;0.0141;-0.0157;-0.0176
0000359544;6.1028;-15.3397;3.6990;0.0188;-0.0127;-0.0143
0000359555;5.9855;-15.3397;3.7948;0.0128;-0.0132;-0.0155
0000359563;6.1100;-15.2846;3.7828;0.0055;-0.0087;-0.0135
0000359571;6.0741;-15.2630;3.7469;0.0019;-0.0103;-0.0149
0000359583;5.8969;-15.3540;3.7685;0.0027;-0.0148;-0.0151
0000359591;5.9903;-15.3636;3.7062;0.0008;-0.0226;-0.0184
0000359602;6.0525;-15.3133;3.8188;0.0081;-0.0317;-0.0201
0000359610;6.1148;-15.2391;3.7661;0.0041;-0.0276;-0.0183
0000359622;6.1339;-15.3804;3.7852;0.0084;-0.0266;-0.0148
0000359630;6.1627;-15.3277;3.7373;0.0015;-0.0203;-0.0116
0000359641;6.1579;-15.3325;3.8211;0.0041;-0.0244;-0.0195
0000359649;6.1339;-15.4067;3.8020;0.0008;-0.0172;-0.0167
0000359661;6.1387;-15.3804;3.6990;-0.0060;-0.0143;-0.0176
0000359669;6.4691;-15.0236;3.7757;0.0012;-0.0195;-0.0256
0000359677;6.0645;-15.2702;3.8188;-0.0100;-0.0136;-0.0201
0000359743;6.1794;-15.3349;3.7972;-0.0160;-0.0148;-0.0165
0000359751;6.0789;-15.4330;3.7589;-0.0097;-0.0191;-0.0201
0000359762;5.9592;-15.4139;3.7493;-0.0107;-0.0165;-0.0084
0000359770;6.1028;-15.2630;3.7781;-0.0049;-0.0180;-0.0168
0000359782;6.0573;-15.3253;3.8307;-0.0011;-0.0284;-0.0212
0000359790;6.2273;-15.2271;3.7350;-0.0035;-0.0245;-0.0143
0000359801;6.1699;-15.3827;3.9169;0.0001;-0.0185;-0.0144
0000359809;6.2082;-15.3349;3.8571;0.0067;-0.0233;-0.0200
0000359821;6.2393;-15.3253;3.7685;0.0027;-0.0203;-0.0215
0000359829;6.2321;-15.2774;3.8523;-0.0039;-0.0115;-0.0157
0000359837;6.0813;-15.3684;3.8211;0.0045;-0.0147;-0.0135
0000359848;6.0573;-15.3109;3.8978;0.0032;-0.0145;-0.0157
0000359856;6.3015;-15.1936;3.8834;-0.0023;-0.0121;-0.0093
0000359868;6.1411;-15.2463;3.8475;0.0032;-0.0221;-0.0165
0000359876;6.1004;-15.2415;3.9816;0.0087;-0.0265;-0.0207
0000359887;6.0501;-15.3780;3.9145;0.0115;-0.0261;-0.0189
0000359895;6.2130;-15.2989;3.8954;0.0181;-0.0242;-0.0184
0000359907;6.2417;-15.2678;3.9480;0.0294;-0.0244;-0.0207
0000359915;6.0142;-15.5839;4.0103;0.0321;-0.0201;-0.0250
0000359979;6.1651;-15.3636;4.0654;0.0930;0.0261;-0.0305
0000359987;6.0071;-15.1721;3.9983;0.0965;0.0238;-0.0330
0000359995;5.9065;-15.0930;3.9983;0.0879;0.0256;-0.0286
0000360007;5.8969;-15.1912;3.8906;0.0762;0.0141;-0.0317
0000360015;5.9975;-15.0907;3.9073;0.0622;0.0148;-0.0276
0000360026;6.0358;-15.3109;3.9337;0.0657;0.0104;-0.0326
0000360034;5.9855;-15.2343;3.9433;0.0753;0.0092;-0.0344
0000360046;6.0549;-15.3516;4.0079;0.0913;0.0083;-0.0318
0000360054;6.0430;-15.4330;4.0797;0.1047;0.0077;-0.0340
0000360065;5.9783;-15.4354;4.0821;0.1156;0.0037;-0.0318
0000360073;5.9640;-15.3157;4.0677;0.1187;0.0052;-0.0269
0000360081;6.0478;-15.3037;4.0414;0.1167;0.0041;-0.0297
0000360093;6.1028;-15.1864;4.1396;0.1215;-0.0043;-0.0356
0000360101;6.0693;-15.2343;4.2114;0.1180;0.0008;-0.0341
0000360112;6.0118;-15.4091;4.2162;0.1294;0.0045;-0.0409
0000360120;6.1196;-15.3540;4.1731;0.1287;0.0075;-0.0400
0000360132;6.1866;-15.3492;4.2066;0.1342;0.0203;-0.0489
0000360140;6.1435;-15.4737;4.2042;0.1352;0.0356;-0.0448
0000360151;6.1770;-15.5288;4.3311;0.1636;0.0362;-0.0553
0000360159;6.2465;-15.4450;4.3096;0.1733;0.0454;-0.0492
0000360167;5.9256;-15.6700;4.4101;0.1927;0.0493;-0.0538
0000360179;5.9113;-15.6629;4.4915;0.2256;0.0530;-0.0561
0000360187;5.9592;-15.6557;4.4867;0.2591;0.0454;-0.0561
0000360251;6.1531;-14.7124;4.2521;0.4084;0.0016;-0.0354
0000360259;6.1268;-14.5783;4.2066;0.3817;0.0048;-0.0381
0000360271;6.1028;-14.8153;4.2497;0.3587;0.0147;-0.0418
0000360279;6.3351;-14.8105;4.4101;0.3541;0.0175;-0.0473
0000360290;6.5481;-14.7626;4.3455;0.3559;0.0277;-0.0568
0000360298;6.3590;-14.8800;4.4005;0.3565;0.0428;-0.0570
0000360306;6.3279;-14.9422;4.4987;0.3649;0.0409;-0.0755
0000360318;6.3877;-14.8225;4.6064;0.3825;0.0413;-0.0813
0000360326;6.1531;-15.1314;4.7070;0.4008;0.0374;-0.0813
0000360337;6.0573;-15.1625;4.8626;0.4266;0.0240;-0.0846
0000360345;5.8538;-15.1146;4.7501;0.4381;0.0160;-0.0746
0000360357;5.8466;-14.8369;4.8339;0.4459;0.0001;-0.0597
0000360365;5.5905;-14.6765;4.8554;0.4377;-0.0220;-0.0476
0000360376;5.8227;-14.4873;4.8626;0.4185;-0.0465;-0.0356
0000360384;5.8921;-14.3700;4.9321;0.4090;-0.0522;-0.0252
0000360396;5.8179;-14.5567;5.0111;0.3886;-0.0665;-0.0167
0000360404;5.9544;-14.5208;5.0015;0.3796;-0.0714;-0.0141
0000360412;5.9711;-14.7770;5.0182;0.3925;-0.0775;-0.0171
0000360423;6.0382;-14.9087;5.1595;0.4074;-0.0705;-0.0101
0000360431;6.3446;-14.7603;5.1427;0.4214;-0.0593;-0.0020
0000360443;6.1962;-14.9422;5.1308;0.4442;-0.0460;-0.0075
0000360451;6.0286;-14.8704;5.1523;0.4562;-0.0364;-0.0021
0000360515;5.7892;-14.4777;5.2816;0.4141;-0.0215;-0.0224
0000360523;5.8251;-14.5256;5.3534;0.4191;-0.0168;-0.0236
0000360535;5.8993;-14.5783;5.5450;0.4505;-0.0248;-0.0284
0000360543;5.8778;-14.6525;5.5641;0.4715;-0.0372;-0.0333
0000360551;5.8395;-14.6262;5.7269;0.5091;-0.0521;-0.0490
0000360562;5.5593;-14.8441;5.7820;0.5528;-0.0636;-0.0550
0000360570;5.6192;-14.6645;5.8778;0.5818;-0.0846;-0.0569
0000360582;5.8514;-14.3580;5.6743;0.6061;-0.1175;-0.0721
0000360590;5.8131;-14.2623;5.6024;0.6141;-0.1419;-0.0789
0000360602;6.0047;-13.8672;5.4468;0.6151;-0.1575;-0.0600
0000360610;6.0286;-13.6565;5.4564;0.6177;-0.1651;-0.0454
0000360622;6.2944;-13.4817;5.4229;0.5955;-0.1503;0.0061
0000360630;6.2393;-13.5248;5.5330;0.5872;-0.1440;0.0254
0000360641;6.1148;-13.7978;5.7964;0.5985;-0.1410;0.0681
0000360649;6.0669;-13.9869;5.8682;0.6189;-0.1338;0.0905
0000360657;6.1196;-13.9343;5.8610;0.6414;-0.1291;0.1030
0000360669;6.0813;-13.8385;5.6934;0.6538;-0.1283;0.1075
0000360677;6.1339;-13.4339;5.6479;0.6410;-0.1256;0.1094
0000360688;6.0478;-13.0795;5.5833;0.5977;-0.1135;0.1092
0000360696;6.3853;-12.6222;5.5450;0.5389;-0.0954;0.1208
0000360708;6.4620;-12.4882;5.6216;0.4511;-0.0722;0.1287
0000360716;6.3734;-12.6486;5.9496;0.4189;-0.0594;0.1239
0000360780;6.6295;-13.5584;6.0573;0.4407;0.1711;0.1146
0000360788;6.7181;-13.3740;6.0286;0.4486;0.1853;0.0958
0000360796;6.5577;-13.3956;6.1292;0.4489;0.2056;0.0755
0000360808;6.1770;-13.4961;6.1962;0.4727;0.2089;0.0253
0000360816;6.1435;-13.4315;6.0908;0.4776;0.2169;0.0011
0000360828;5.8634;-12.9766;5.9256;0.4694;0.2022;-0.0441
0000360836;5.8778;-12.4810;5.9161;0.4345;0.1889;-0.0646
0000360848;5.9185;-12.2128;5.9927;0.3868;0.1576;-0.0787
0000360856;5.8442;-12.2583;6.0980;0.3608;0.1368;-0.0766
0000360867;5.7964;-12.2942;5.9735;0.3467;0.0882;-0.1043
0000360875;5.9783;-12.4522;5.9520;0.3375;0.0633;-0.1214
0000360883;5.8490;-12.1099;5.9256;0.3409;0.0274;-0.1480
0000360895;5.5282;-12.1242;5.7485;0.3228;-0.0248;-0.1620
0000360903;5.4636;-12.0021;5.5641;0.2951;-0.0473;-0.1483
0000360914;5.5306;-11.8178;6.0118;0.2558;-0.0710;-0.1095
0000360922;5.6383;-11.9542;6.2225;0.2070;-0.0733;-0.0636
0000360934;5.8921;-12.4044;6.3375;0.2028;-0.0985;-0.0342
0000360942;6.0382;-12.7587;6.3063;0.2069;-0.1142;-0.0316
0000360953;5.9424;-13.1059;6.0166;0.2462;-0.1624;-0.0661
0000360961;5.9089;-13.1561;6.1579;0.2743;-0.1891;-0.1006
0000360969;5.7676;-13.2711;6.0286;0.3210;-0.2186;-0.1275
0000360981;6.2441;-12.9119;6.0238;0.3861;-0.2061;-0.1054
0000360989;6.5362;-12.9526;6.2776;0.4181;-0.1783;-0.0570
0000361055;6.0286;-12.9502;6.8163;0.7214;-0.1487;-0.0970
0000361063;6.1028;-12.7491;6.5529;0.7469;-0.1486;-0.0950
0000361075;6.2321;-12.5408;6.5003;0.7723;-0.1486;-0.0918
0000361083;6.2584;-12.3756;6.9073;0.7713;-0.1431;-0.0967
0000361095;6.1339;-12.4283;7.1730;0.7866;-0.1647;-0.1348
0000361103;6.1244;-12.4259;7.1539;0.7926;-0.1923;-0.1615
0000361115;6.0717;-12.6821;7.2880;0.7863;-0.2455;-0.2165
0000361123;6.2465;-12.3661;7.4699;0.7646;-0.2687;-0.2397
0000361131;6.2010;-12.5073;7.5274;0.7400;-0.2567;-0.2349
0000361143;6.6631;-12.4690;7.6136;0.7194;-0.1939;-0.1920
0000361151;6.7588;-12.3541;7.5226;0.7061;-0.1363;-0.1392
0000361163;7.0437;-12.1458;7.6255;0.6857;-0.0727;-0.0822
0000361171;7.2329;-11.9854;7.9511;0.6650;-0.0374;-0.0711
0000361183;7.2760;-11.9135;7.8171;0.6394;-0.0103;-0.0795
0000361191;6.9121;-12.0141;7.9033;0.6298;-0.0135;-0.1127
0000361203;6.4835;-12.1027;8.0110;0.5903;-0.0441;-0.1696
0000361211;6.0286;-12.2463;8.1642;0.5714;-0.0609;-0.1756
0000361223;5.9233;-12.2559;7.9990;0.5628;-0.0687;-0.1528
0000361231;5.8778;-12.3708;7.9128;0.5618;-0.0683;-0.1154
0000361239;6.0908;-12.1745;7.7237;0.5645;-0.0617;-0.0790
0000361251;6.2537;-12.1194;8.0086;0.5327;-0.0462;-0.0492
0000361259;6.5362;-11.9806;7.9535;0.5127;-0.0373;-0.0545
0000361327;6.0813;-11.9686;8.4970;0.3954;-0.0765;-0.1311
0000361335;5.8730;-11.7795;8.4180;0.3701;-0.0791;-0.1132
0000361347;5.9640;-11.4036;8.0637;0.3147;-0.0642;-0.0875
0000361355;6.1914;-11.1737;7.8721;0.2598;-0.0550;-0.0761
0000361367;6.8067;-10.6638;8.1331;0.1832;-0.0245;-0.0560
0000361375;6.8426;-10.6446;8.1618;0.1335;0.0016;-0.0316
0000361387;6.7469;-10.9559;8.2791;0.0794;0.0321;0.0068
0000361395;6.6990;-11.0038;8.3701;0.0405;0.0433;0.0385
0000361403;6.3542;-11.1881;8.3821;0.0051;0.0454;0.0649
0000361415;6.1148;-11.1881;8.3773;-0.0673;0.0172;0.0938
0000361423;5.5689;-11.4922;8.5281;-0.1170;-0.0092;0.1171
0000361435;5.6072;-11.7364;8.1810;-0.1737;-0.0413;0.1515
0000361443;5.5713;-11.7076;8.3055;-0.2046;-0.0449;0.1729
0000361455;5.9664;-11.7029;8.3318;-0.2256;-0.0556;0.1936
0000361463;6.1914;-11.6646;8.3342;-0.2422;-0.0625;0.1909
0000361475;6.6224;-11.5616;8.5712;-0.2665;-0.0590;0.1571
0000361483;6.8283;-11.5017;8.8155;-0.2814;-0.0532;0.1211
0000361491;6.9839;-11.5903;8.8083;-0.2888;-0.0438;0.0775
0000361503;6.7253;-11.6717;8.6670;-0.3030;-0.0346;-0.0001
0000361511;6.6272;-11.6813;8.6359;-0.3136;-0.0426;-0.0501
0000361523;6.4332;-11.7244;8.5401;-0.3179;-0.0429;-0.1042
0000361531;6.6870;-11.6286;8.4779;-0.3292;-0.0380;-0.1248
0000361599;6.4524;-11.5999;8.1618;-0.3938;0.0597;-0.0636
0000361607;6.4428;-11.5640;8.1523;-0.3968;0.0701;-0.0605
0000361620;6.6200;-11.5520;8.3151;-0.4001;0.1026;-0.0492
0000361627;6.5984;-11.5592;8.1403;-0.4084;0.1263;-0.0500
0000361639;6.5984;-11.3796;7.9057;-0.4203;0.1611;-0.0540
0000361647;6.6152;-11.3940;7.8027;-0.4346;0.1799;-0.0537
0000361655;6.3159;-11.4730;7.8027;-0.4588;0.1941;-0.0532
0000361667;5.9544;-11.3653;7.8458;-0.4823;0.2052;-0.0476
0000361675;5.7628;-11.5736;7.6543;-0.4956;0.2073;-0.0480
0000361687;5.7461;-11.5640;7.5417;-0.5100;0.2045;-0.0390
0000361695;6.0190;-11.5089;7.5968;-0.5163;0.1965;-0.0378
0000361707;6.0741;-11.6191;7.6447;-0.5291;0.2041;-0.0401
0000361715;6.3494;-11.6765;7.6160;-0.5396;0.2162;-0.0364
0000361727;6.5745;-11.7627;7.5920;-0.5568;0.2457;-0.0512
0000361735;6.5170;-11.9495;7.7979;-0.5716;0.2550;-0.0655
0000361747;6.4452;-12.1242;7.8314;-0.5790;0.2478;-0.1007
0000361755;6.3422;-12.3158;7.7692;-0.5885;0.2381;-0.1190
0000361763;6.0956;-12.4570;7.7476;-0.6033;0.2116;-0.1336
0000361775;5.7844;-12.6869;7.6998;-0.6226;0.1596;-0.1294
0000361783;5.3870;-12.9622;7.9464;-0.6359;0.1290;-0.1146
0000361795;5.3606;-13.1178;7.9823;-0.6408;0.0755;-0.1019
0000361803;5.4851;-13.2543;7.9296;-0.6366;0.0412;-0.0906
0000361871;6.2441;-13.2782;7.2018;-0.6955;0.0105;-0.0674
0000361879;6.1699;-13.2663;7.0749;-0.6893;0.0001;-0.0566
0000361891;5.7820;-13.4075;6.9576;-0.6860;-0.0253;-0.0461
0000361899;5.7581;-13.4267;6.9743;-0.6908;-0.0430;-0.0317
0000361911;5.5330;-13.6134;6.7804;-0.6827;-0.0675;-0.0108
0000361919;5.7413;-13.4889;6.7157;-0.6836;-0.0859;-0.0023
0000361927;5.7604;-13.5655;6.6631;-0.6730;-0.1096;0.0060
0000361939;5.8083;-13.5177;6.8283;-0.6620;-0.1232;0.0222
0000361947;6.1052;-13.5967;6.7516;-0.6538;-0.1192;0.0325
0000361959;6.0286;-13.8744;6.8833;-0.6356;-0.1198;0.0422
0000361967;6.2824;-13.6302;6.7852;-0.6262;-0.1136;0.0426
0000361979;6.3422;-13.6685;6.7852;-0.6181;-0.1135;0.0324
0000361987;6.3231;-13.6446;6.7157;-0.6131;-0.1118;0.0282
0000362000;6.0573;-13.8289;6.6607;-0.5978;-0.1094;0.0266
0000362009;6.0501;-13.8217;6.5577;-0.5764;-0.1118;0.0209
0000362022;6.1866;-13.9797;6.4236;-0.5601;-0.1015;0.0268
0000362031;6.0932;-14.0947;6.6463;-0.5344;-0.1043;0.0209
0000362040;6.1818;-14.0923;6.5673;-0.5084;-0.0994;0.0246
0000362053;6.2273;-13.8888;6.4835;-0.4792;-0.1009;0.0131
0000362062;6.1387;-14.0013;6.5457;-0.4720;-0.0959;0.0112
0000362075;6.2249;-13.9199;6.3375;-0.4551;-0.0935;0.0057
0000362084;6.2465;-13.9797;6.2800;-0.4453;-0.0906;-0.0036
0000362153;6.4596;-13.9917;5.8514;-0.3785;-0.0580;-0.0308
0000362162;6.5505;-13.8122;5.8562;-0.3761;-0.0476;-0.0348
0000362175;6.5290;-14.0779;5.8802;-0.3687;-0.0248;-0.0325
0000362184;6.4165;-14.0851;5.9616;-0.3718;-0.0019;-0.0286
0000362197;6.3135;-14.2263;5.8299;-0.3592;0.0116;-0.0281
0000362206;6.1842;-14.2407;5.8921;-0.3541;0.0189;-0.0273
0000362215;6.0118;-14.4251;5.9352;-0.3473;0.0192;-0.0282
0000362228;5.9735;-14.3006;5.7892;-0.3516;0.0160;-0.0329
0000362237;6.0645;-14.2120;5.7509;-0.3480;0.0081;-0.0402
0000362250;6.2130;-14.2216;5.8466;-0.3439;0.0044;-0.0366
0000362259;6.2297;-14.1785;5.8083;-0.3584;0.0028;-0.0356
0000362272;6.2896;-14.3341;5.6120;-0.3636;-0.0023;-0.0320
0000362281;6.1292;-14.4370;5.6551;-0.3656;0.0001;-0.0213
0000362294;5.9807;-14.5759;5.7485;-0.3553;-0.0156;-0.0252
0000362303;5.9903;-14.5017;5.6312;-0.3445;-0.0184;-0.0292
0000362316;5.9137;-14.5783;5.6479;-0.3399;-0.0290;-0.0329
0000362325;5.8275;-14.5376;5.6455;-0.3327;-0.0416;-0.0476
0000362338;6.0813;-14.4849;5.4492;-0.3296;-0.0445;-0.0565
0000362347;6.1794;-14.4418;5.4540;-0.3329;-0.0409;-0.0556
0000362356;6.2369;-14.3221;5.4277;-0.3347;-0.0380;-0.0536
0000362369;6.2106;-14.4825;5.3846;-0.3323;-0.0228;-0.0380
0000362378;6.1794;-14.6214;5.3893;-0.3183;-0.0246;-0.0349
0000362447;6.2201;-14.5184;5.2098;-0.2827;-0.0640;-0.0332
0000362456;6.2489;-14.7435;5.1811;-0.2854;-0.0661;-0.0262
0000362472;6.1723;-14.8057;5.2050;-0.2621;-0.0625;-0.0065
0000362481;6.0693;-14.7626;5.2265;-0.2579;-0.0553;0.0021
0000362494;6.0166;-14.5424;5.0925;-0.2470;-0.0576;0.0003
0000362503;5.9640;-14.7315;5.0661;-0.2386;-0.0655;-0.0101
0000362515;5.9280;-14.8153;5.1475;-0.2401;-0.0670;-0.0159
0000362524;6.2106;-14.5711;5.1164;-0.2439;-0.0654;-0.0220
0000362533;6.2153;-14.6980;5.0973;-0.2482;-0.0645;-0.0217
0000362546;6.4524;-14.8177;5.0470;-0.2522;-0.0542;-0.0196
0000362555;6.4308;-14.8728;5.0278;-0.2463;-0.0433;-0.0140
0000362567;6.2968;-14.9949;5.0805;-0.2360;-0.0293;-0.0113
0000362576;6.2944;-14.7794;4.9895;-0.2289;-0.0248;-0.0100
0000362589;6.2034;-14.9302;4.9536;-0.2264;-0.0153;-0.0116
0000362598;6.2441;-14.8991;4.9153;-0.2296;-0.0168;-0.0085
0000362610;6.2273;-14.8297;4.8674;-0.2170;-0.0268;-0.0117
0000362619;6.2058;-14.9470;4.8937;-0.2257;-0.0237;-0.0065
0000362688;6.3590;-14.9709;4.8195;-0.1855;-0.0761;0.0104
0000362697;6.4141;-14.8991;4.7309;-0.1792;-0.0787;0.0161
0000362709;6.1986;-15.0595;4.6495;-0.1775;-0.0770;0.0177
0000362718;6.2537;-14.9278;4.5753;-0.1743;-0.0705;0.0234
0000362727;6.3614;-15.0332;4.7094;-0.1567;-0.0731;0.0137
0000362740;6.2489;-15.0116;4.6256;-0.1571;-0.0608;0.0108
0000362749;6.2297;-14.9542;4.6759;-0.1522;-0.0577;-0.0027
0000362761;6.3901;-14.7219;4.6950;-0.1576;-0.0469;-0.0064
0000362770;6.3255;-14.7986;4.7046;-0.1541;-0.0518;-0.0183
0000362783;6.1124;-14.9997;4.5322;-0.1704;-0.0504;-0.0140
0000362792;6.1483;-15.0404;4.6017;-0.1709;-0.0414;-0.0069
0000362804;6.2010;-15.0284;4.6017;-0.1589;-0.0432;-0.0041
0000362813;6.2177;-14.9997;4.6519;-0.1545;-0.0394;-0.0001
0000362826;5.9472;-15.0691;4.6783;-0.1452;-0.0440;-0.0069
0000362835;6.1579;-15.0140;4.6328;-0.1458;-0.0416;-0.0097
0000362847;6.0501;-15.1098;4.5945;-0.1426;-0.0413;-0.0063
0000362856;6.1675;-15.0212;4.6783;-0.1407;-0.0492;-0.0115
0000362865;6.3087;-14.9997;4.5274;-0.1442;-0.0400;0.0008
0000362878;6.0023;-15.2870;4.6112;-0.1311;-0.0418;0.0021
0000362887;6.1627;-15.2750;4.6663;-0.1178;-0.0461;0.0007
0000362899;6.2034;-15.0883;4.6017;-0.1021;-0.0337;0.0073
0000362908;6.2968;-15.0164;4.5538;-0.0938;-0.0316;0.0128
0000362977;6.0262;-15.0116;4.4796;-0.0842;-0.0232;0.0081
0000362986;6.1746;-14.9997;4.5562;-0.0814;-0.0265;0.0045
0000362998;6.2225;-15.0571;4.4580;-0.0674;-0.0261;0.0013
0000363007;6.2991;-15.0308;4.5298;-0.0601;-0.0302;-0.0052
0000363020;6.2441;-15.0428;4.5897;-0.0462;-0.0256;-0.0061
0000363029;6.2153;-15.0691;4.5131;-0.0409;-0.0282;-0.0065
0000363038;6.3734;-14.9350;4.5729;-0.0342;-0.0248;-0.0065
0000363050;6.2824;-14.9350;4.5107;-0.0336;-0.0265;-0.0048
0000363059;6.2106;-15.0021;4.4843;-0.0405;-0.0199;0.0012
0000363072;6.0932;-15.0739;4.5131;-0.0406;-0.0199;0.0001
0000363081;6.2201;-14.7818;4.4197;-0.0348;-0.0269;-0.0157
0000363093;6.2058;-14.8967;4.4652;-0.0304;-0.0208;-0.0104
0000363102;6.1268;-14.9398;4.4748;-0.0228;-0.0212;-0.0120
0000363115;6.1699;-15.0116;4.5370;-0.0136;-0.0278;-0.0155
0000363124;6.1268;-15.0930;4.4245;-0.0200;-0.0203;-0.0140
0000363136;6.1938;-14.9709;4.4652;-0.0152;-0.0242;-0.0163
0000363145;6.0597;-15.0835;4.4245;-0.0225;-0.0254;-0.0203
0000363154;6.0023;-14.9805;4.4556;-0.0232;-0.0173;-0.0133
0000363167;6.1148;-15.0069;4.3958;-0.0249;-0.0203;-0.0141
0000363176;6.0885;-15.0643;4.5107;-0.0217;-0.0270;-0.0179
0000363188;6.2824;-14.8895;4.5681;-0.0277;-0.0226;-0.0125
0000363197;5.9448;-15.1912;4.4484;-0.0268;-0.0195;-0.0116
0000363266;6.0908;-14.9829;4.3814;-0.0232;-0.0350;-0.0112
0000363275;6.2656;-14.9398;4.5849;-0.0245;-0.0305;-0.0068
0000363287;6.2656;-14.9662;4.5203;-0.0224;-0.0340;-0.0012
0000363296;6.1579;-15.0332;4.5681;-0.0205;-0.0357;-0.0076
0000363309;6.2034;-14.9949;4.5035;-0.0225;-0.0246;0.0032
0000363318;6.0837;-15.0188;4.5705;-0.0217;-0.0300;0.0009
0000363330;6.0741;-15.0356;4.6064;-0.0201;-0.0340;0.0049
0000363339;6.1411;-14.9662;4.5681;-0.0181;-0.0368;0.0000
0000363348;6.0597;-15.0883;4.5131;-0.0221;-0.0341;0.0048
0000363361;6.0430;-15.1529;4.4867;-0.0092;-0.0394;0.0053
0000363370;5.8873;-15.1266;4.4867;-0.0095;-0.0376;0.0044
0000363382;6.1196;-15.0045;4.5538;-0.0081;-0.0361;0.0036
0000363391;6.1076;-14.9614;4.4580;-0.0084;-0.0340;0.0104
0000363404;6.0645;-14.9302;4.5226;-0.0040;-0.0368;0.0061
0000363413;6.1483;-14.9015;4.5394;-0.0068;-0.0381;0.0053
0000363425;6.1531;-14.8991;4.4436;-0.0199;-0.0329;0.0101
0000363434;6.0861;-14.9614;4.4388;-0.0164;-0.0366;-0.0012
0000363447;6.0597;-14.9733;4.5298;-0.0151;-0.0324;0.0019
0000363456;6.2130;-14.9949;4.4412;-0.0056;-0.0369;-0.0015
0000363465;6.1028;-14.9111;4.4341;-0.0041;-0.0346;0.0004
0000363477;6.0885;-14.9638;4.5322;-0.0012;-0.0308;-0.0023
0000363486;6.1651;-14.9518;4.4604;-0.0001;-0.0257;-0.0012
0000363555;6.0047;-14.9733;4.3886;-0.0133;-0.0282;-0.0072
0000363564;6.0741;-15.0763;4.5562;-0.0136;-0.0260;-0.0007
0000363576;6.1531;-15.0380;4.5274;-0.0100;-0.0314;-0.0083
0000363585;6.2249;-14.8919;4.3574;-0.0123;-0.0329;-0.0036
0000363598;6.1459;-15.0021;4.4843;-0.0039;-0.0285;-0.0076
0000363607;6.0525;-15.0380;4.5011;-0.0095;-0.0189;-0.0011
0000363619;5.9975;-14.9590;4.5418;-0.0099;-0.0212;-0.0037
0000363628;6.1076;-14.8273;4.5394;-0.0116;-0.0297;-0.0139
0000363641;6.1220;-14.8848;4.5274;-0.0091;-0.0250;-0.0133
0000363650;6.2225;-14.8512;4.5849;-0.0147;-0.0212;-0.0116
0000363659;6.0908;-14.9159;4.5681;-0.0063;-0.0241;-0.0076
0000363671;6.0549;-14.9949;4.5370;-0.0085;-0.0229;-0.0077
0000363680;6.1746;-14.9231;4.5274;-0.0024;-0.0265;-0.0092
0000363693;6.0358;-15.0332;4.4484;-0.0041;-0.0244;-0.0080
0000363702;6.1292;-15.0093;4.4293;-0.0068;-0.0236;-0.0081
0000363714;5.9328;-14.9709;4.5322;-0.0001;-0.0333;-0.0153
0000363723;6.0286;-14.9542;4.5322;-0.0068;-0.0280;-0.0069
0000363736;6.0597;-14.9638;4.4724;-0.0095;-0.0298;-0.0091
0000363745;6.1339;-15.0116;4.5969;-0.0073;-0.0268;-0.0032
0000363757;6.0047;-14.9709;4.4628;-0.0008;-0.0290;-0.0044
0000363766;5.9544;-15.1242;4.5274;0.0009;-0.0325;-0.0091
0000363775;6.3015;-14.9350;4.4700;-0.0021;-0.0273;-0.0073
0000363842;6.1076;-14.8704;4.5442;-0.0147;-0.0321;-0.0124
0000363851;6.2177;-14.8919;4.5298;-0.0100;-0.0312;-0.0092
0000363863;5.9903;-14.9470;4.5370;-0.0084;-0.0354;-0.0081
0000363872;6.2704;-14.8608;4.4772;-0.0087;-0.0374;-0.0109
0000363885;6.1962;-14.9063;4.5562;-0.0087;-0.0382;-0.0171
0000363894;6.0861;-14.8584;4.5370;-0.0155;-0.0336;-0.0073
0000363905;6.0789;-14.9398;4.5107;-0.0191;-0.0357;-0.0123
0000363914;6.1507;-14.8560;4.5586;-0.0187;-0.0344;-0.0116
0000363928;5.9783;-14.9231;4.4939;-0.0203;-0.0370;-0.0125
0000363937;6.1627;-14.7986;4.5131;-0.0204;-0.0324;-0.0091
0000363950;6.0094;-14.9446;4.5610;-0.0260;-0.0297;-0.0084
0000363959;6.1723;-14.9685;4.5825;-0.0229;-0.0309;-0.0125
0000363968;5.9975;-14.9470;4.4891;-0.0215;-0.0322;-0.0132
0000363980;5.9089;-15.0978;4.4149;-0.0192;-0.0288;-0.0155
0000363989;6.1339;-14.9326;4.5274;-0.0196;-0.0284;-0.0112
0000364002;6.0501;-15.0476;4.4293;-0.0196;-0.0298;-0.0132
0000364011;6.0789;-15.0236;4.5681;-0.0084;-0.0366;-0.0156
0000364023;6.0837;-15.0571;4.5179;-0.0040;-0.0326;-0.0104
0000364032;5.9927;-14.9901;4.5346;-0.0019;-0.0364;-0.0164
0000364045;5.9520;-15.0021;4.5849;-0.0037;-0.0300;-0.0171
0000364054;6.0262;-14.9446;4.4867;-0.0092;-0.0356;-0.0189
0000364122;6.0980;-14.8536;4.5921;-0.0113;-0.0284;-0.0096
0000364131;6.0334;-15.0284;4.4652;-0.0108;-0.0293;-0.0163
0000364144;5.9951;-15.0643;4.5490;-0.0140;-0.0265;-0.0112
0000364153;6.0190;-15.0476;4.5059;-0.0012;-0.0332;-0.0188
0000364162;6.2249;-14.9781;4.5945;-0.0056;-0.0253;-0.0124
0000364174;6.2632;-14.9398;4.4796;-0.0017;-0.0342;-0.0171
0000364183;6.1411;-14.9662;4.4197;-0.0048;-0.0289;-0.0107
0000364196;5.9448;-15.0428;4.4460;-0.0084;-0.0310;-0.0144
0000364205;6.1531;-14.9781;4.5418;-0.0111;-0.0254;-0.0139
0000364217;5.9951;-15.1146;4.4843;-0.0116;-0.0270;-0.0167
0000364226;6.0214;-15.0356;4.5203;-0.0113;-0.0293;-0.0153
0000364239;6.2177;-14.9542;4.4436;-0.0095;-0.0266;-0.0109
0000364248;6.1148;-14.9039;4.5538;-0.0067;-0.0326;-0.0119
0000364260;6.0118;-14.9757;4.5729;-0.0019;-0.0290;-0.0100
0000364269;6.0573;-15.0332;4.5155;-0.0025;-0.0325;-0.0105
0000364282;6.0717;-14.9039;4.5897;-0.0027;-0.0310;-0.0092
0000364291;6.0813;-14.8608;4.5538;-0.0107;-0.0294;-0.0125
0000364300;6.1124;-14.8704;4.5729;-0.0079;-0.0362;-0.0115
0000364312;6.0741;-14.9566;4.4915;-0.0155;-0.0284;-0.0117
0000364321;6.0214;-14.9422;4.5514;-0.0131;-0.0365;-0.0218
0000364334;6.1052;-14.9374;4.5394;-0.0111;-0.0350;-0.0111
0000364343;6.1220;-14.9398;4.5011;-0.0107;-0.0370;-0.0108
0000364411;6.0885;-14.8225;4.5298;-0.0161;-0.0337;-0.0091
0000364420;5.9089;-15.0811;4.5897;-0.0053;-0.0402;-0.0185
0000364433;6.0406;-14.9733;4.5059;-0.0047;-0.0345;-0.0112
0000364442;6.1100;-15.0212;4.5274;-0.0099;-0.0317;-0.0135
0000364454;6.1244;-14.8105;4.4460;-0.0107;-0.0310;-0.0065
0000364463;6.1603;-14.9278;4.5179;-0.0099;-0.0334;-0.0125
0000364476;6.0166;-14.9470;4.5226;-0.0156;-0.0300;-0.0101
0000364485;6.0932;-14.9015;4.5897;-0.0144;-0.0352;-0.0131
0000364494;6.0262;-14.8848;4.4412;-0.0132;-0.0324;-0.0147
0000364506;5.9831;-15.0404;4.5849;-0.0112;-0.0306;-0.0128
0000364515;6.2632;-14.9422;4.5705;-0.0153;-0.0321;-0.0092
0000364528;6.0047;-14.8728;4.5442;-0.0191;-0.0250;-0.0096
0000364537;6.1579;-14.8656;4.5921;-0.0141;-0.0353;-0.0140
0000364549;6.1866;-14.9111;4.6040;-0.0168;-0.0345;-0.0129
0000364558;5.9855;-15.0164;4.5490;-0.0238;-0.0308;-0.0095
0000364571;6.0597;-14.9159;4.5993;-0.0185;-0.0294;-0.0083
0000364580;6.0765;-15.0045;4.5442;-0.0187;-0.0338;-0.0112
0000364592;6.0885;-14.9207;4.5801;-0.0225;-0.0278;-0.0100
0000364601;6.1387;-14.9398;4.5777;-0.0215;-0.0289;-0.0053
0000364614;6.0142;-15.0404;4.5059;-0.0131;-0.0329;-0.0164
0000364623;6.0885;-14.8800;4.5753;-0.0191;-0.0284;-0.0072
0000364632;5.9448;-15.0021;4.5490;-0.0125;-0.0358;-0.0163
0000364700;6.2201;-14.8824;4.5226;-0.0173;-0.0298;-0.0123
0000364709;6.0525;-15.0212;4.4724;-0.0111;-0.0360;-0.0120
0000364722;5.9640;-14.9901;4.5370;-0.0155;-0.0338;-0.0143
0000364731;6.0023;-15.0500;4.5394;-0.0152;-0.0288;-0.0111
0000364743;6.0525;-14.8871;4.5035;-0.0151;-0.0278;-0.0099
0000364752;6.1076;-15.0045;4.4676;-0.0089;-0.0381;-0.0121
0000364765;6.1555;-14.9350;4.5322;-0.0175;-0.0304;-0.0085
0000364774;6.0214;-14.9997;4.5538;-0.0195;-0.0345;-0.0171
0000364786;5.8275;-15.0284;4.4796;-0.0212;-0.0357;-0.0101
0000364795;6.0549;-14.8991;4.5633;-0.0116;-0.0380;-0.0156
0000364808;6.1339;-14.9662;4.4963;-0.0121;-0.0326;-0.0119
0000364817;6.0813;-15.0811;4.5466;-0.0132;-0.0356;-0.0155
0000364826;6.0885;-14.9566;4.5801;-0.0195;-0.0312;-0.0115
0000364838;5.9376;-15.1361;4.5250;-0.0151;-0.0309;-0.0105
0000364847;5.9879;-14.9805;4.5657;-0.0099;-0.0353;-0.0125
0000364860;6.0334;-14.8895;4.5155;-0.0163;-0.0298;-0.0049
0000364869;6.1675;-14.8249;4.5083;-0.0244;-0.0298;-0.0129
0000364881;6.0430;-15.0260;4.5011;-0.0195;-0.0326;-0.0147
0000364890;6.1866;-14.9470;4.5370;-0.0203;-0.0344;-0.0168
0000364903;6.0334;-15.0045;4.5897;-0.0168;-0.0380;-0.0185
0000364912;6.0932;-14.9925;4.5633;-0.0180;-0.0320;-0.0115
0000364980;6.0047;-15.0188;4.5466;-0.0148;-0.0344;-0.0163
0000364989;6.1746;-14.8129;4.6184;-0.0185;-0.0320;-0.0085
0000365002;6.0238;-14.8871;4.5394;-0.0103;-0.0385;-0.0161
0000365011;6.0717;-15.0140;4.4532;-0.0171;-0.0361;-0.0129
0000365020;5.9879;-14.9949;4.4748;-0.0183;-0.0293;-0.0108
0000365032;6.2058;-14.9063;4.5466;-0.0184;-0.0272;-0.0125
0000365041;5.9328;-14.9614;4.4987;-0.0151;-0.0352;-0.0116
0000365054;6.0071;-15.0619;4.4484;-0.0175;-0.0245;-0.0124
0000365063;6.0142;-15.0356;4.5370;-0.0189;-0.0325;-0.0149
0000365075;5.8466;-15.0954;4.5801;-0.0113;-0.0392;-0.0144
0000365084;5.9640;-15.0907;4.5322;-0.0135;-0.0353;-0.0156
0000365097;5.9041;-15.0547;4.5562;-0.0121;-0.0309;-0.0100
0000365106;6.0094;-15.0859;4.5131;-0.0116;-0.0314;-0.0128
0000365118;6.1483;-14.9015;4.5226;-0.0107;-0.0312;-0.0121
0000365127;5.9975;-14.9398;4.5514;-0.0083;-0.0328;-0.0177
0000365140;6.0980;-15.0284;4.5322;-0.0144;-0.0313;-0.0155
0000365149;5.9831;-15.0212;4.5681;-0.0165;-0.0334;-0.0164
0000365158;6.1531;-14.8201;4.4700;-0.0103;-0.0368;-0.0184
0000365170;6.1699;-14.8776;4.5442;-0.0125;-0.0360;-0.0173
0000365179;6.1890;-14.7842;4.4652;-0.0192;-0.0322;-0.0120
0000365192;6.1148;-14.9877;4.5107;-0.0129;-0.0380;-0.0193
0000365201;6.0525;-14.9805;4.4867;-0.0199;-0.0278;-0.0117
0000365269;5.9927;-14.9757;4.5442;-0.0152;-0.0365;-0.0196
0000365278;6.1052;-14.8632;4.5394;-0.0155;-0.0320;-0.0157
0000365291;6.1028;-14.9159;4.5562;-0.0129;-0.0306;-0.0159
0000365300;6.0837;-15.0978;4.5322;-0.0161;-0.0268;-0.0088
0000365312;5.8873;-15.0763;4.5370;-0.0171;-0.0269;-0.0117
0000365321;5.9448;-15.0236;4.4772;-0.0175;-0.0313;-0.0136
0000365335;6.0956;-14.9446;4.4724;-0.0144;-0.0364;-0.0167
0000365344;6.0549;-15.0260;4.5586;-0.0208;-0.0301;-0.0095
0000365353;6.0430;-15.0332;4.5538;-0.0165;-0.0314;-0.0137
0000365366;5.9879;-14.9470;4.5274;-0.0165;-0.0293;-0.0096
0000365375;6.0166;-15.0260;4.5801;-0.0101;-0.0326;-0.0136
0000365387;6.0094;-14.9829;4.6160;-0.0080;-0.0300;-0.0115
0000365396;6.1603;-14.8967;4.5298;-0.0039;-0.0348;-0.0171
0000365409;6.0262;-14.9183;4.5753;-0.0056;-0.0386;-0.0115
0000365418;6.0286;-14.9302;4.4843;-0.0136;-0.0278;-0.0075
0000365430;6.2369;-14.7842;4.4796;-0.0108;-0.0338;-0.0127
0000365439;6.0334;-14.8536;4.5131;-0.0108;-0.0346;-0.0127
0000365452;6.0741;-14.9733;4.4963;-0.0063;-0.0350;-0.0131
0000365461;6.0741;-15.0380;4.5466;-0.0136;-0.0325;-0.0151
0000365470;6.2201;-14.8129;4.4245;-0.0055;-0.0376;-0.0157
0000365482;6.1292;-14.9015;4.5777;-0.0025;-0.0365;-0.0201
0000365491;6.0166;-14.9781;4.5298;-0.0048;-0.0294;-0.0116
0000365558;5.9855;-14.9542;4.4987;0.0020;-0.0350;-0.0128
0000365567;5.9640;-15.0452;4.4963;-0.0045;-0.0358;-0.0188
0000365579;6.0813;-14.8608;4.5777;-0.0103;-0.0348;-0.0242
0000365588;5.9783;-14.9829;4.5035;-0.0065;-0.0354;-0.0193
0000365601;5.9855;-15.0619;4.5274;-0.0096;-0.0338;-0.0169
0000365610;6.1100;-14.9877;4.5131;-0.0128;-0.0322;-0.0108
0000365622;6.0286;-14.9709;4.6040;-0.0131;-0.0326;-0.0116
0000365631;6.0430;-14.8967;4.5274;-0.0091;-0.0352;-0.0139
0000365644;6.1268;-14.8728;4.5274;-0.0176;-0.0301;-0.0115
0000365653;6.1244;-14.8057;4.4891;-0.0115;-0.0325;-0.0172
0000365662;5.9711;-14.9901;4.5155;-0.0195;-0.0293;-0.0135
0000365674;6.2153;-14.8345;4.6208;-0.0137;-0.0362;-0.0159
0000365683;6.0238;-15.0547;4.5729;-0.0141;-0.0378;-0.0156
0000365696;6.0885;-14.8919;4.5107;-0.0185;-0.0378;-0.0156
0000365705;6.0789;-14.9159;4.5849;-0.0167;-0.0332;-0.0111
0000365717;5.8562;-15.1242;4.5370;-0.0109;-0.0377;-0.0119
0000365726;6.1459;-15.0763;4.6136;-0.0159;-0.0352;-0.0096
0000365739;5.9568;-15.1050;4.4987;-0.0139;-0.0330;-0.0105
0000365748;6.0478;-14.9518;4.4843;-0.0089;-0.0300;-0.0081
0000365760;5.9903;-15.0380;4.5490;-0.0109;-0.0334;-0.0147
0000365769;6.0549;-14.9757;4.4987;-0.0080;-0.0373;-0.0169
0000365836;6.0885;-14.9302;4.5107;-0.0168;-0.0333;-0.0149
0000365845;6.1004;-14.9374;4.5370;-0.0161;-0.0416;-0.0201
0000365854;6.2680;-14.8033;4.4604;-0.0185;-0.0342;-0.0097
0000365866;6.1675;-15.1122;4.5466;-0.0151;-0.0325;-0.0099
0000365875;6.2153;-14.9039;4.4796;-0.0164;-0.0320;-0.0128
0000365888;6.3734;-14.8776;4.5969;-0.0149;-0.0346;-0.0079
0000365897;6.1292;-14.9925;4.5011;-0.0072;-0.0353;-0.0132
0000365909;6.1292;-15.0140;4.5657;-0.0081;-0.0349;-0.0135
0000365918;5.9903;-14.9925;4.5633;-0.0068;-0.0393;-0.0103
0000365931;5.8658;-15.0787;4.6855;-0.0051;-0.0354;-0.0137
0000365940;5.9520;-14.9614;4.4676;-0.0113;-0.0310;-0.0101
0000365952;5.8969;-15.1385;4.6136;-0.0128;-0.0304;-0.0127
0000365961;6.1794;-14.8249;4.5586;-0.0085;-0.0334;-0.0124
0000365974;6.0932;-14.8704;4.5346;-0.0099;-0.0288;-0.0125
0000365983;6.1268;-14.7746;4.5083;-0.0127;-0.0250;-0.0119
0000365992;6.2273;-14.9901;4.4676;-0.0079;-0.0326;-0.0151
0000366004;6.0501;-14.9422;4.5442;-0.0093;-0.0306;-0.0184
0000366013;6.0621;-14.9973;4.5897;-0.0131;-0.0362;-0.0137
0000366026;6.0741;-14.8776;4.4700;-0.0131;-0.0390;-0.0127
0000366035;6.1172;-14.9566;4.5562;-0.0216;-0.0304;-0.0036
0000366047;6.2153;-14.8273;4.5418;-0.0218;-0.0310;-0.0075
0000366056;6.1411;-14.9709;4.5011;-0.0181;-0.0329;-0.0100
0000366125;6.1004;-15.0404;4.4317;-0.0157;-0.0280;-0.0097
0000366134;5.8562;-15.1816;4.5250;-0.0177;-0.0318;-0.0095
0000366146;6.0238;-15.0069;4.5203;-0.0109;-0.0330;-0.0081
0000366155;6.1244;-14.7818;4.4484;-0.0109;-0.0362;-0.0072
0000366168;6.0645;-15.0523;4.5538;-0.0093;-0.0328;-0.0083
0000366177;6.0238;-14.9326;4.5059;-0.0093;-0.0309;-0.0109
0000366186;6.0190;-15.0500;4.6328;-0.0125;-0.0356;-0.0121
0000366198;5.9089;-15.0188;4.5514;-0.0181;-0.0260;-0.0089
0000366207;5.9711;-14.9542;4.6017;-0.0252;-0.0254;-0.0065
0000366220;6.2393;-14.9278;4.5657;-0.0264;-0.0300;-0.0117
0000366229;6.0166;-14.9255;4.5059;-0.0256;-0.0280;-0.0075
0000366241;6.0932;-14.9015;4.5011;-0.0253;-0.0280;-0.0077
0000366250;5.8419;-15.1505;4.5226;-0.0229;-0.0220;-0.0081
0000366263;6.0813;-14.9422;4.5442;-0.0191;-0.0289;-0.0147
0000366272;6.1004;-14.8464;4.5107;-0.0185;-0.0276;-0.0075
0000366284;5.9640;-14.9614;4.6017;-0.0207;-0.0277;-0.0083
0000366293;6.1555;-14.8153;4.5107;-0.0191;-0.0348;-0.0121
0000366306;6.1196;-14.8464;4.4388;-0.0229;-0.0317;-0.0089
0000366315;6.0310;-14.8656;4.5586;-0.0244;-0.0288;-0.0136
0000366324;6.1220;-14.8417;4.5490;-0.0220;-0.0316;-0.0112
0000366336;6.0478;-14.9685;4.5610;-0.0298;-0.0285;-0.0125
0000366345;6.0717;-14.8632;4.4963;-0.0260;-0.0292;-0.0175
0000366414;6.1699;-14.9757;4.5131;-0.0212;-0.0318;-0.0100
0000366423;6.0382;-15.0428;4.5801;-0.0179;-0.0313;-0.0115
0000366435;6.0932;-14.9877;4.4939;-0.0091;-0.0398;-0.0217
0000366444;6.0238;-14.9877;4.5131;-0.0148;-0.0328;-0.0169
0000366457;6.1531;-14.9853;4.5107;-0.0127;-0.0332;-0.0168
0000366466;5.9711;-14.9231;4.5657;-0.0116;-0.0348;-0.0159
0000366478;5.9640;-14.9039;4.4843;-0.0176;-0.0301;-0.0128
0000366487;6.0789;-14.8728;4.5442;-0.0207;-0.0320;-0.0135
0000366500;5.9783;-14.9901;4.4939;-0.0155;-0.0325;-0.0167
0000366509;6.1723;-14.8057;4.5226;-0.0180;-0.0293;-0.0156
0000366518;6.0597;-14.9470;4.5945;-0.0161;-0.0394;-0.0204
0000366530;6.0549;-14.9757;4.5274;-0.0169;-0.0294;-0.0119
0000366539;5.9927;-14.9805;4.4819;-0.0208;-0.0328;-0.0123
0000366552;6.0621;-14.9494;4.5322;-0.0164;-0.0318;-0.0196
0000366561;6.0430;-14.9662;4.4269;-0.0225;-0.0244;-0.0124
0000366573;6.1172;-14.8752;4.4317;-0.0297;-0.0244;-0.0148
0000366582;5.9520;-15.1433;4.5514;-0.0258;-0.0289;-0.0156
0000366595;6.1004;-14.9805;4.5011;-0.0265;-0.0333;-0.0199
0000366604;5.9280;-15.1194;4.5322;-0.0288;-0.0286;-0.0115
0000366616;6.0238;-15.0643;4.5466;-0.0213;-0.0297;-0.0159
0000366625;6.2177;-14.9566;4.5753;-0.0229;-0.0237;-0.0101
0000366694;6.0166;-14.7914;4.5226;-0.0169;-0.0362;-0.0123
0000366703;5.9256;-15.0236;4.4101;-0.0248;-0.0301;-0.0112
0000366712;6.0621;-14.9183;4.5250;-0.0221;-0.0325;-0.0105
0000366724;5.9137;-15.1936;4.5083;-0.0145;-0.0370;-0.0127
0000366733;6.0334;-15.0715;4.4939;-0.0012;-0.0418;-0.0128
0000366746;6.1459;-14.8369;4.5322;0.0023;-0.0382;-0.0116
0000366755;5.8754;-15.0116;4.4963;0.0013;-0.0310;-0.0117
0000366767;6.0358;-14.8608;4.5011;0.0020;-0.0358;-0.0141
0000366776;6.1770;-14.8991;4.5035;-0.0021;-0.0389;-0.0119
0000366790;6.1675;-14.7674;4.4317;-0.0031;-0.0412;-0.0145
0000366799;6.0406;-14.8393;4.6112;-0.0047;-0.0341;-0.0137
0000366810;6.3111;-14.7459;4.5035;-0.0085;-0.0406;-0.0200
0000366818;6.0238;-15.0069;4.5035;-0.0100;-0.0301;-0.0132
0000366826;6.0406;-15.1673;4.5083;-0.0137;-0.0354;-0.0159
0000366837;6.1292;-15.0619;4.4604;-0.0151;-0.0320;-0.0113
0000366845;6.2417;-14.9829;4.5179;-0.0061;-0.0341;-0.0153
0000366857;6.0669;-14.9949;4.5011;-0.0004;-0.0297;-0.0091
0000366865;6.1579;-14.9685;4.5514;-0.0023;-0.0281;-0.0107
0000366876;5.9664;-15.0619;4.5274;0.0035;-0.0346;-0.0128
0000366884;6.0932;-14.9015;4.5921;-0.0043;-0.0318;-0.0109
