time;acc_x;acc_y;acc_z;gyro_x;gyro_y;gyro_z
0000313249;5.9544;-15.1385;3.9456;0.0024;-0.0797;-0.0175
0000313257;5.9065;-15.1266;3.9433;-0.0063;-0.0795;-0.0129
0000313264;6.1866;-14.9542;3.9648;-0.0105;-0.0879;-0.0128
0000313272;6.0214;-15.1361;3.9313;-0.0163;-0.0927;-0.0064
0000313284;6.1196;-15.2654;3.8714;-0.0165;-0.0955;-0.0056
0000313291;6.1220;-15.1122;3.9169;-0.0268;-0.0919;0.0049
0000313359;6.1100;-15.2606;3.9552;-0.0209;-0.0909;-0.0143
0000313367;6.0525;-15.2582;3.9480;-0.0209;-0.0959;-0.0149
0000313378;6.1818;-15.1409;3.9169;-0.0300;-0.0903;-0.0100
0000313386;6.1004;-15.3349;3.9025;-0.0350;-0.0922;-0.0040
0000313394;6.1124;-15.2008;3.9145;-0.0356;-0.0963;-0.0039
0000313406;6.1770;-15.2774;3.9456;-0.0321;-0.0877;0.0027
0000313414;6.2153;-15.2535;3.8211;-0.0274;-0.0930;-0.0003
0000313425;6.1459;-15.2152;3.8092;-0.0300;-0.0922;-0.0003
0000313433;6.2225;-15.1649;3.9193;-0.0246;-0.0967;-0.0065
0000313445;6.1938;-15.3253;3.9025;-0.0216;-0.0909;-0.0104
0000313453;6.1818;-15.2463;3.8930;-0.0226;-0.0934;-0.0147
0000313464;6.2489;-15.3349;3.8451;-0.0221;-0.0777;-0.0079
0000313472;6.1555;-15.1481;3.8427;-0.0204;-0.0803;-0.0181
0000313484;6.2944;-15.2367;3.9049;-0.0195;-0.0723;-0.0155
0000313492;6.2034;-15.3444;3.8906;-0.0167;-0.0690;-0.0159
0000313503;6.3015;-15.2439;3.8954;-0.0212;-0.0596;-0.0168
0000313511;6.0621;-15.3492;3.9600;-0.0161;-0.0629;-0.0171
0000313519;6.0837;-15.2989;3.9145;-0.0153;-0.0492;-0.0099
0000313531;6.1435;-15.0763;3.9265;-0.0185;-0.0513;-0.0177
0000313539;6.2632;-15.1146;3.8978;-0.0172;-0.0556;-0.0269
0000313551;6.0741;-15.1744;3.9049;-0.0282;-0.0460;-0.0242
0000313559;6.2800;-15.1697;3.9169;-0.0360;-0.0437;-0.0264
0000313627;6.1268;-15.3349;3.8164;-0.0225;-0.0416;-0.0232
0000313635;6.0693;-15.3564;3.9073;-0.0266;-0.0453;-0.0281
0000313646;5.9879;-15.3756;3.8666;-0.0298;-0.0418;-0.0192
0000313654;6.1052;-15.3133;3.8523;-0.0242;-0.0520;-0.0262
0000313666;6.3087;-15.2654;3.8116;-0.0249;-0.0532;-0.0248
0000313674;6.1387;-15.2415;3.8786;-0.0314;-0.0546;-0.0253
0000313685;6.1220;-15.3229;3.7852;-0.0330;-0.0509;-0.0224
0000313693;6.0549;-15.4354;3.8427;-0.0304;-0.0562;-0.0236
0000313701;6.2393;-15.2822;3.8403;-0.0325;-0.0500;-0.0159
0000313713;6.3494;-15.2989;3.9002;-0.0329;-0.0466;-0.0157
0000313721;6.2225;-15.2918;3.8547;-0.0332;-0.0400;-0.0112
0000313732;6.2560;-15.3708;3.8475;-0.0322;-0.0384;-0.0163
0000313740;6.1052;-15.4187;3.8164;-0.0324;-0.0358;-0.0156
0000313752;6.1555;-15.4163;3.8235;-0.0266;-0.0360;-0.0189
0000313760;6.1818;-15.3899;3.7613;-0.0204;-0.0420;-0.0281
0000313771;6.2968;-15.3684;3.7637;-0.0156;-0.0321;-0.0234
0000313779;6.2848;-15.3301;3.8188;-0.0196;-0.0233;-0.0191
0000313791;6.1483;-15.3157;3.7852;-0.0238;-0.0218;-0.0163
0000313799;6.1220;-15.4402;3.7948;-0.0213;-0.0185;-0.0172
0000313807;6.2177;-15.3301;3.8834;-0.0139;-0.0298;-0.0204
0000313818;6.1890;-15.3253;3.8547;-0.0117;-0.0270;-0.0187
0000313826;6.0549;-15.4091;3.8786;-0.0069;-0.0220;-0.0237
0000313894;6.2177;-15.2654;3.7852;-0.0197;-0.0213;-0.0226
0000313902;6.2872;-15.2104;3.7709;-0.0266;-0.0135;-0.0196
0000313913;6.2249;-15.3899;3.7948;-0.0226;-0.0163;-0.0180
0000313921;6.1723;-15.3971;3.9145;-0.0257;-0.0175;-0.0201
0000313933;6.1339;-15.3684;3.8595;-0.0245;-0.0113;-0.0128
0000313941;6.0956;-15.3516;3.8475;-0.0229;-0.0067;-0.0141
0000313952;6.1507;-15.3085;3.8211;-0.0147;-0.0141;-0.0185
0000313960;6.1746;-15.3301;3.7924;-0.0127;-0.0121;-0.0155
0000313972;6.0358;-15.2989;3.8188;-0.0173;-0.0116;-0.0201
0000313980;6.2489;-15.2726;3.8427;-0.0140;-0.0117;-0.0193
0000313988;6.0956;-15.3301;3.8547;-0.0217;-0.0057;-0.0092
0000313999;6.1028;-15.2989;3.8140;-0.0201;-0.0119;-0.0056
0000314007;6.0693;-15.3756;3.7709;-0.0180;-0.0060;-0.0056
0000314019;6.1100;-15.4091;3.8762;-0.0153;-0.0093;-0.0109
0000314027;5.9735;-15.3995;3.8307;-0.0075;-0.0111;-0.0097
0000314038;6.1100;-15.3037;3.8834;-0.0099;-0.0013;-0.0116
0000314046;6.0813;-15.2870;3.7948;-0.0093;-0.0019;-0.0125
0000314058;6.0262;-15.2750;3.8283;-0.0064;-0.0064;-0.0136
0000314066;5.8969;-15.4594;3.8379;-0.0121;-0.0051;-0.0188
0000314078;6.1531;-15.2918;3.8092;-0.0128;-0.0101;-0.0135
0000314086;6.0525;-15.3253;3.8188;-0.0159;-0.0113;-0.0160
0000314153;5.9855;-15.4570;3.8547;-0.0073;-0.0043;-0.0141
0000314161;5.9424;-15.4450;3.8475;-0.0019;-0.0095;-0.0160
0000314169;6.1387;-15.3971;3.8307;-0.0032;-0.0012;-0.0180
0000314180;6.1124;-15.5096;3.8930;0.0065;0.0037;-0.0195
0000314188;6.1172;-15.3947;3.9073;0.0028;0.0092;-0.0172
0000314200;6.0238;-15.3373;3.8451;0.0096;0.0072;-0.0165
0000314208;6.2704;-15.3109;3.7900;0.0099;-0.0003;-0.0222
0000314219;6.1339;-15.2439;3.8499;0.0185;0.0015;-0.0220
0000314227;5.9472;-15.3851;3.8379;0.0059;0.0055;-0.0168
0000314239;6.0813;-15.1768;3.7804;0.0084;-0.0015;-0.0192
0000314247;5.9903;-15.2989;3.8523;0.0025;0.0012;-0.0115
0000314258;5.9783;-15.2894;3.8475;0.0025;-0.0059;-0.0169
0000314266;6.1363;-15.3061;3.8355;-0.0068;-0.0013;-0.0104
0000314274;5.9616;-15.3013;3.9456;-0.0053;-0.0056;-0.0137
0000314286;5.9831;-15.2678;3.9121;-0.0027;-0.0007;-0.0080
0000314294;6.1268;-15.2463;3.8642;0.0031;-0.0108;-0.0156
0000314305;6.0980;-15.1912;3.7996;0.0076;-0.0109;-0.0168
0000314313;5.8730;-15.3157;3.8331;0.0064;-0.0087;-0.0131
0000314325;6.0382;-15.2942;3.7924;0.0037;-0.0021;-0.0103
0000314333;6.3638;-15.1529;3.7685;0.0124;-0.0059;-0.0147
0000314345;6.1555;-15.3133;3.8427;0.0123;-0.0027;-0.0151
0000314353;6.1962;-15.2463;3.7852;0.0115;-0.0004;-0.0112
0000314421;6.0118;-15.3253;3.8092;-0.0072;-0.0092;-0.0148
0000314429;6.2297;-15.1361;3.8762;-0.0065;-0.0083;-0.0181
0000314437;6.0956;-15.1936;3.8714;-0.0109;-0.0064;-0.0153
0000314448;6.1794;-15.2918;3.8164;-0.0136;-0.0112;-0.0156
0000314456;6.1555;-15.2415;3.8427;-0.0096;-0.0111;-0.0180
0000314468;6.0262;-15.1697;3.8595;-0.0099;-0.0083;-0.0107
0000314476;5.9831;-15.4618;3.8954;-0.0133;-0.0105;-0.0140
0000314487;6.0358;-15.2439;3.7326;-0.0107;-0.0081;-0.0136
0000314495;6.1459;-15.3373;3.8714;-0.0013;-0.0115;-0.0203
0000314507;6.0525;-15.2606;3.8954;-0.0044;-0.0104;-0.0155
0000314515;6.0047;-15.2894;3.9073;-0.0048;-0.0152;-0.0218
0000314526;6.0956;-15.3325;3.9456;-0.0039;-0.0127;-0.0139
0000314534;5.8682;-15.4426;3.8140;-0.0056;-0.0165;-0.0192
0000314546;6.1459;-15.3133;3.8523;-0.0009;-0.0188;-0.0160
0000314554;6.1531;-15.2846;3.8642;0.0027;-0.0230;-0.0233
0000314562;6.0693;-15.2319;3.8427;-0.0037;-0.0212;-0.0149
0000314573;6.1004;-15.1218;3.8331;-0.0064;-0.0229;-0.0171
0000314581;6.1004;-15.2606;3.7996;-0.0084;-0.0211;-0.0184
0000314593;6.0094;-15.2247;3.8810;-0.0125;-0.0199;-0.0144
0000314601;6.0023;-15.3109;3.9289;-0.0081;-0.0240;-0.0159
0000314613;6.1627;-15.2056;3.9768;-0.0077;-0.0232;-0.0147
0000314621;6.0549;-15.3780;3.9002;0.0003;-0.0314;-0.0211
0000314689;6.1076;-15.2559;3.8547;0.0044;-0.0344;-0.0068
0000314697;6.1938;-15.2343;3.9169;0.0097;-0.0394;-0.0121
0000314709;6.0956;-15.1984;3.8499;0.0071;-0.0429;-0.0185
0000314717;6.0837;-15.1002;3.9169;-0.0011;-0.0345;-0.0111
0000314725;6.0549;-15.2032;3.8595;0.0052;-0.0402;-0.0129
0000314736;5.9903;-15.2798;3.9145;0.0052;-0.0418;-0.0137
0000314744;5.9400;-15.2223;3.9121;0.0001;-0.0429;-0.0144
0000314756;6.1148;-15.1697;3.8882;0.0003;-0.0461;-0.0121
0000314764;6.2249;-15.1026;3.8642;0.0033;-0.0494;-0.0160
0000314775;6.0693;-15.2343;3.9385;0.0059;-0.0476;-0.0109
0000314783;6.1746;-15.2559;3.8930;-0.0032;-0.0441;-0.0124
0000314795;6.2225;-15.2750;3.8451;-0.0020;-0.0449;-0.0111
0000314803;6.1292;-15.2032;3.9241;-0.0005;-0.0500;-0.0111
0000314814;6.0023;-15.2319;3.9145;-0.0015;-0.0468;-0.0081
0000314822;6.0358;-15.2199;3.9289;-0.0012;-0.0468;-0.0056
0000314830;5.8826;-15.3061;3.9744;-0.0035;-0.0433;-0.0063
0000314842;6.0047;-15.3109;3.8882;-0.0043;-0.0462;-0.0056
0000314850;5.7604;-15.5503;3.9337;-0.0041;-0.0486;-0.0103
0000314861;5.9831;-15.3037;3.9049;-0.0060;-0.0437;-0.0057
0000314869;5.9640;-15.2942;4.0247;-0.0025;-0.0468;-0.0140
0000314881;6.0023;-15.3133;3.9121;-0.0059;-0.0497;-0.0105
0000314889;6.0310;-15.1577;4.0151;-0.0040;-0.0504;-0.0091
0000314957;6.2369;-15.2152;3.9696;-0.0085;-0.0437;-0.0043
0000314965;5.9759;-15.2104;3.9600;-0.0071;-0.0485;-0.0103
0000314977;6.0454;-15.2032;3.9528;-0.0071;-0.0502;-0.0113
0000314985;6.1172;-15.1888;3.9624;-0.0012;-0.0508;-0.0135
0000314996;5.9520;-15.3301;3.9002;-0.0027;-0.0434;-0.0133
0000315004;6.0765;-15.2415;4.0701;-0.0021;-0.0457;-0.0144
0000315012;6.0430;-15.2559;3.9983;-0.0061;-0.0453;-0.0113
0000315024;5.9041;-15.3636;3.9504;-0.0080;-0.0377;-0.0141
0000315032;6.0071;-15.2654;4.0462;-0.0045;-0.0429;-0.0184
0000315043;6.1699;-15.1744;3.9552;-0.0129;-0.0412;-0.0180
0000315051;6.1196;-15.1290;3.9911;-0.0116;-0.0400;-0.0169
0000315063;6.1651;-15.2606;3.9935;-0.0171;-0.0386;-0.0148
0000315071;6.1531;-15.3444;4.0151;-0.0172;-0.0401;-0.0151
0000315082;6.2130;-15.1936;4.0055;-0.0180;-0.0320;-0.0121
0000315090;6.0861;-15.3397;4.0725;-0.0147;-0.0366;-0.0135
0000315102;6.1339;-15.1290;4.0199;-0.0148;-0.0294;-0.0155
0000315110;6.2106;-15.2894;4.0031;-0.0121;-0.0286;-0.0156
0000315121;6.0932;-15.2606;3.9025;-0.0129;-0.0261;-0.0181
0000315129;6.1076;-15.2056;4.0247;-0.0105;-0.0276;-0.0188
0000315137;6.2273;-15.2080;3.9792;-0.0108;-0.0262;-0.0155
0000315149;6.1052;-15.2678;3.9600;-0.0061;-0.0256;-0.0215
0000315157;6.1076;-15.2223;3.9409;-0.0077;-0.0250;-0.0197
0000315225;6.2441;-15.1242;4.0175;-0.0096;-0.0402;-0.0260
0000315233;6.1124;-15.1337;3.9624;-0.0140;-0.0309;-0.0188
0000315245;6.0454;-15.2606;3.9935;-0.0137;-0.0289;-0.0169
0000315253;5.9759;-15.3085;4.0223;-0.0147;-0.0318;-0.0201
0000315264;6.0741;-15.1409;4.0151;-0.0125;-0.0298;-0.0164
0000315272;6.1746;-15.1625;4.0630;-0.0103;-0.0310;-0.0168
0000315284;5.9089;-15.3875;4.0175;-0.0023;-0.0381;-0.0238
0000315292;6.0478;-15.3468;3.9816;-0.0036;-0.0298;-0.0193
0000315303;6.0813;-15.2606;3.9696;-0.0009;-0.0266;-0.0201
0000315311;6.1938;-15.1553;3.9433;-0.0027;-0.0253;-0.0188
0000315319;6.0142;-15.2128;3.9433;-0.0075;-0.0300;-0.0199
0000315331;6.1196;-15.1768;3.9696;-0.0067;-0.0320;-0.0226
0000315339;6.1411;-15.1936;3.8786;-0.0104;-0.0318;-0.0197
0000315350;6.0621;-15.2511;3.9983;-0.0065;-0.0410;-0.0203
0000315358;6.1651;-15.1625;3.9744;-0.0137;-0.0313;-0.0167
0000315370;5.9951;-15.2391;3.9863;-0.0099;-0.0374;-0.0234
0000315378;6.2034;-15.1960;4.0247;-0.0115;-0.0308;-0.0181
0000315389;5.9975;-15.2654;3.9433;-0.0093;-0.0388;-0.0241
0000315397;6.2177;-15.1529;4.0007;-0.0117;-0.0309;-0.0168
0000315409;6.0717;-15.2152;4.0294;-0.0132;-0.0381;-0.0184
0000315417;5.9544;-15.2223;4.0079;-0.0153;-0.0416;-0.0208
0000315485;6.1387;-15.2319;3.9624;-0.0100;-0.0481;-0.0129
0000315493;6.1531;-15.1481;4.0366;-0.0151;-0.0518;-0.0105
0000315501;6.2106;-15.2654;3.9816;-0.0087;-0.0648;-0.0217
0000315513;6.0358;-15.2463;3.9911;-0.0083;-0.0636;-0.0171
0000315521;6.0406;-15.2295;4.0007;-0.0064;-0.0644;-0.0163
0000315532;6.1651;-15.1337;3.9840;-0.0107;-0.0645;-0.0135
0000315540;5.9161;-15.2678;3.9983;-0.0053;-0.0689;-0.0171
0000315552;5.9783;-15.3109;3.9361;-0.0105;-0.0686;-0.0167
0000315560;6.2201;-15.2894;3.9576;-0.0115;-0.0657;-0.0201
0000315571;6.0190;-15.3516;4.0534;-0.0123;-0.0641;-0.0144
0000315579;6.1411;-15.2391;4.0247;-0.0128;-0.0667;-0.0144
0000315591;6.4260;-14.9877;3.9983;-0.0127;-0.0715;-0.0172
0000315599;6.1004;-15.4091;4.1108;-0.0092;-0.0683;-0.0165
0000315610;6.1986;-15.1625;4.0318;-0.0089;-0.0738;-0.0156
0000315618;6.1555;-15.1864;3.9528;-0.0128;-0.0703;-0.0157
0000315626;6.1746;-15.2966;4.0055;-0.0108;-0.0726;-0.0165
0000315638;6.2704;-15.1266;3.9528;-0.0157;-0.0707;-0.0169
0000315646;6.2130;-15.2032;4.0031;-0.0129;-0.0665;-0.0148
0000315658;6.0645;-15.2367;4.0558;-0.0119;-0.0683;-0.0115
0000315666;6.0597;-15.2870;4.0055;-0.0159;-0.0597;-0.0092
0000315678;6.1268;-15.2104;4.0151;-0.0184;-0.0614;-0.0163
0000315686;6.2465;-15.1050;4.0223;-0.0266;-0.0565;-0.0109
0000315754;6.2225;-15.1816;3.9768;-0.0317;-0.0540;-0.0139
0000315762;6.3015;-15.2822;3.9792;-0.0313;-0.0493;-0.0155
0000315774;6.1316;-15.2726;3.9121;-0.0233;-0.0514;-0.0148
0000315782;6.3470;-15.1218;4.0486;-0.0238;-0.0438;-0.0176
0000315793;6.2776;-15.2128;3.9025;-0.0240;-0.0441;-0.0137
0000315801;6.3231;-15.2295;4.0151;-0.0196;-0.0448;-0.0216
0000315809;6.2034;-15.2128;3.9385;-0.0201;-0.0478;-0.0218
0000315821;6.2896;-15.1242;4.0223;-0.0257;-0.0416;-0.0193
0000315829;6.2968;-15.1529;3.9935;-0.0225;-0.0449;-0.0228
0000315840;6.1746;-15.1337;4.0007;-0.0317;-0.0336;-0.0145
0000315848;6.3231;-15.1098;4.0414;-0.0284;-0.0422;-0.0185
0000315860;6.0573;-15.3756;3.9528;-0.0281;-0.0394;-0.0157
0000315868;6.2656;-15.3301;3.8427;-0.0318;-0.0292;-0.0139
0000315880;6.2800;-15.1768;3.9720;-0.0301;-0.0393;-0.0180
0000315888;6.1986;-15.1481;3.8930;-0.0221;-0.0418;-0.0183
0000315900;6.0861;-15.3277;4.0151;-0.0175;-0.0433;-0.0211
0000315908;6.2513;-15.2870;3.9409;-0.0197;-0.0364;-0.0164
0000315919;6.2944;-15.1290;3.9217;-0.0109;-0.0434;-0.0215
0000315927;6.1794;-15.2271;3.9337;-0.0216;-0.0321;-0.0177
0000315935;6.1292;-15.3899;3.9361;-0.0203;-0.0256;-0.0184
0000315947;6.3255;-15.2056;3.8259;-0.0233;-0.0212;-0.0188
0000315955;6.2537;-15.1002;3.9959;-0.0159;-0.0294;-0.0222
0000316023;6.1459;-15.2989;3.9337;-0.0297;-0.0151;-0.0245
0000316031;6.2728;-15.1792;3.8906;-0.0306;-0.0168;-0.0261
0000316043;6.1100;-15.2678;3.9361;-0.0342;-0.0165;-0.0264
0000316051;6.1770;-15.1984;3.9025;-0.0302;-0.0176;-0.0252
0000316063;6.1459;-15.2654;3.8666;-0.0378;-0.0156;-0.0226
0000316071;6.2584;-15.1888;3.9145;-0.0314;-0.0191;-0.0212
0000316082;6.1507;-15.1984;3.9002;-0.0266;-0.0262;-0.0268
0000316090;6.1938;-15.2774;3.9696;-0.0366;-0.0212;-0.0191
0000316102;6.1723;-15.2894;3.9433;-0.0333;-0.0199;-0.0157
0000316110;6.2058;-15.1912;3.9840;-0.0326;-0.0253;-0.0237
0000316118;5.9951;-15.2439;3.9217;-0.0278;-0.0276;-0.0217
0000316129;6.1794;-15.2750;4.0749;-0.0317;-0.0313;-0.0203
0000316137;6.1579;-15.1888;3.9193;-0.0306;-0.0308;-0.0149
0000316149;6.2369;-15.1481;3.8810;-0.0246;-0.0334;-0.0183
0000316157;6.0286;-15.3109;3.9385;-0.0261;-0.0312;-0.0129
0000316169;6.0932;-15.3899;3.9337;-0.0222;-0.0288;-0.0143
0000316177;6.0190;-15.4211;3.9456;-0.0137;-0.0360;-0.0221
0000316189;6.1675;-15.3851;4.0773;-0.0133;-0.0338;-0.0242
0000316197;6.0741;-15.3277;3.9217;-0.0101;-0.0313;-0.0226
0000316265;6.1938;-15.1529;3.9672;-0.0061;-0.0189;-0.0196
0000316273;6.0047;-15.2199;3.9792;-0.0084;-0.0187;-0.0203
0000316285;6.3111;-15.2822;3.9480;-0.0113;-0.0234;-0.0161
0000316293;6.2321;-15.1960;4.0007;-0.0051;-0.0246;-0.0242
0000316301;6.2896;-15.2894;4.0270;-0.0039;-0.0282;-0.0168
0000316312;6.2082;-15.2989;4.0773;0.0035;-0.0232;-0.0184
0000316320;6.2130;-15.5072;4.0941;0.0116;-0.0254;-0.0254
0000316332;6.1339;-15.2654;4.0677;0.0184;-0.0282;-0.0292
0000316340;6.0142;-15.3157;4.0869;0.0242;-0.0302;-0.0346
0000316352;6.1196;-15.2678;4.1468;0.0213;-0.0438;-0.0446
0000316360;6.1962;-15.1553;4.0869;0.0088;-0.0488;-0.0378
0000316372;6.1699;-15.0691;4.1468;0.0027;-0.0529;-0.0396
0000316380;6.2489;-15.1409;4.1228;0.0035;-0.0621;-0.0434
0000316391;6.2968;-15.2223;4.1731;-0.0019;-0.0572;-0.0514
0000316399;6.3638;-15.2223;4.0941;-0.0033;-0.0509;-0.0517
0000316407;6.4141;-15.1888;4.0725;-0.0153;-0.0422;-0.0494
0000316419;6.3997;-15.1553;3.9959;-0.0203;-0.0330;-0.0580
0000316427;6.3255;-15.2367;4.0055;-0.0288;-0.0175;-0.0544
0000316438;6.4308;-15.1314;3.9816;-0.0238;-0.0055;-0.0625
0000316446;6.3590;-15.3157;3.9528;-0.0161;-0.0047;-0.0706
0000316458;6.1196;-15.4905;3.9409;-0.0072;0.0003;-0.0783
0000316466;6.2537;-15.3492;3.8331;-0.0028;0.0055;-0.0753
0000316534;6.3398;-15.5336;4.2737;0.1267;0.0241;-0.0480
0000316542;6.1723;-15.3660;4.3622;0.1322;0.0248;-0.0442
0000316554;6.2225;-15.2271;4.2713;0.1476;0.0207;-0.0414
0000316562;6.0861;-15.2966;4.3000;0.1524;0.0199;-0.0410
0000316570;6.2584;-15.1912;4.3048;0.1628;0.0145;-0.0414
0000316581;6.3590;-14.9542;4.3598;0.1715;0.0155;-0.0310
0000316589;6.1723;-15.1816;4.4149;0.1821;0.0035;-0.0290
0000316601;6.1866;-15.1505;4.3455;0.1903;0.0039;-0.0273
0000316609;6.3686;-15.0595;4.4772;0.2036;-0.0003;-0.0349
0000316621;6.2632;-15.1936;4.5993;0.2188;0.0052;-0.0254
0000316629;6.1579;-15.1792;4.5681;0.2257;0.0093;-0.0276
0000316641;6.1770;-15.1792;4.6088;0.2353;0.0111;-0.0233
0000316649;6.0454;-15.1768;4.7094;0.2457;0.0099;-0.0185
0000316657;6.2848;-14.9374;4.6974;0.2734;-0.0020;-0.0289
0000316669;6.1004;-15.1936;4.7525;0.3028;-0.0157;-0.0276
0000316677;6.0118;-15.1649;4.7836;0.3312;-0.0332;-0.0314
0000316689;6.0166;-15.0452;4.7381;0.3660;-0.0518;-0.0256
0000316697;5.8849;-14.9614;4.8387;0.3881;-0.0628;-0.0140
0000316709;6.0837;-14.8393;4.8483;0.4108;-0.0652;0.0089
0000316717;6.0238;-14.9829;4.7621;0.4219;-0.0513;0.0222
0000316729;6.2441;-14.7124;4.7908;0.4286;-0.0260;0.0334
0000316737;6.4883;-14.5759;4.7932;0.4386;-0.0104;0.0338
0000316745;6.4835;-14.6741;4.7357;0.4406;0.0144;0.0334
0000316813;6.0334;-14.9470;5.2385;0.6827;0.0891;-0.0412
0000316821;5.8419;-15.1098;5.4731;0.7537;0.0947;-0.0245
0000316833;5.6144;-15.1146;5.7485;0.8863;0.0759;-0.0248
0000316841;5.7988;-14.7555;5.4995;0.9383;0.0572;-0.0384
0000316853;6.3303;-13.9127;5.0206;0.9983;0.0225;-0.0771
0000316861;6.8354;-13.3405;4.8004;0.9948;0.0405;-0.0865
0000316873;7.1251;-12.6869;4.5514;0.9533;0.0909;-0.0633
0000316881;7.1395;-12.4211;4.6855;0.9109;0.1282;-0.0416
0000316889;7.2113;-12.2248;4.8507;0.8617;0.1680;-0.0192
0000316901;6.7971;-12.3996;4.7836;0.7801;0.1943;-0.0205
0000316909;6.5745;-12.5839;4.6687;0.7430;0.2066;-0.0285
0000316921;6.2728;-12.7084;4.8698;0.7043;0.2080;-0.0393
0000316929;5.8442;-13.1226;5.0996;0.6839;0.2006;-0.0444
0000316940;5.8275;-13.4434;5.5761;0.6650;0.1661;-0.0682
0000316948;5.5905;-14.0540;5.6024;0.6718;0.1319;-0.1047
0000316960;5.3846;-14.0683;5.3654;0.6940;0.0833;-0.1302
0000316968;5.5210;-13.9031;5.2720;0.7218;0.0377;-0.1336
0000316976;5.6312;-13.4554;5.0350;0.7161;0.0144;-0.1054
0000316988;5.7748;-12.8042;5.1427;0.6734;-0.0076;-0.0222
0000316996;5.9568;-12.6773;5.1188;0.6197;-0.0007;0.0414
0000317008;6.3710;-12.9622;5.2601;0.5670;0.0238;0.1118
0000317016;6.3638;-13.5344;5.4444;0.5385;0.0350;0.1239
0000317084;6.4069;-12.9215;5.7916;0.7228;-0.0377;-0.0838
0000317092;6.4596;-12.6462;5.7868;0.6839;-0.0226;-0.0790
0000317104;6.4189;-12.2775;5.7245;0.6316;-0.0029;-0.0765
0000317112;6.7038;-12.0835;5.8059;0.5875;0.0318;-0.0620
0000317123;6.5553;-12.4762;6.0789;0.5516;0.0666;-0.0657
0000317131;6.5601;-12.9383;6.2608;0.5431;0.0747;-0.0943
0000317139;6.5074;-13.3477;6.5027;0.5610;0.0722;-0.1358
0000317151;6.2489;-13.9797;6.5529;0.5922;0.0691;-0.1884
0000317159;6.2010;-13.7140;6.3973;0.6214;0.0758;-0.2045
0000317171;6.0118;-13.2064;5.9879;0.6518;0.0645;-0.2165
0000317179;5.9352;-12.7826;6.2273;0.6386;0.0494;-0.2053
0000317191;6.1028;-12.2487;6.3542;0.6205;0.0132;-0.2026
0000317199;6.0023;-12.3828;6.5721;0.5986;0.0009;-0.1912
0000317211;6.1603;-12.3062;6.6295;0.5606;-0.0290;-0.1700
0000317219;6.0382;-12.5480;6.7612;0.5133;-0.0414;-0.1471
0000317227;6.1292;-12.4786;6.6559;0.4644;-0.0472;-0.1282
0000317239;6.0980;-12.5743;6.7062;0.3992;-0.0494;-0.0898
0000317247;6.2991;-12.6677;6.3231;0.3697;-0.0402;-0.0694
0000317259;6.5505;-12.4858;6.5625;0.3391;-0.0278;-0.0565
0000317267;6.5864;-12.4594;6.7756;0.2984;-0.0004;-0.0446
0000317280;6.8666;-12.3541;6.7708;0.2168;0.0409;-0.0346
0000317287;6.9025;-12.3469;6.7397;0.1747;0.0574;-0.0386
0000317355;5.7078;-13.1944;6.9959;0.0350;0.0108;-0.0100
0000317363;5.7796;-13.1992;7.1994;0.0398;-0.0151;-0.0240
0000317371;5.8706;-13.4410;7.2233;0.0446;-0.0306;-0.0418
0000317383;6.2608;-13.2782;7.4484;0.0350;-0.0386;-0.0601
0000317391;6.3398;-13.3573;7.3933;0.0224;-0.0254;-0.0614
0000317403;6.4308;-13.1873;7.3478;0.0057;0.0023;-0.0722
0000317411;6.5529;-13.1466;7.3191;-0.0047;0.0345;-0.0671
0000317423;6.5146;-12.9646;7.1730;-0.0282;0.0721;-0.0842
0000317431;6.4620;-12.8569;7.1778;-0.0421;0.0899;-0.1148
0000317443;6.2728;-12.8042;7.3526;-0.0553;0.1037;-0.1575
0000317451;6.2058;-12.9215;7.3502;-0.0550;0.1077;-0.1811
0000317463;5.9496;-12.9574;7.6375;-0.0847;0.1204;-0.1745
0000317471;6.1387;-12.9454;7.6040;-0.1114;0.1256;-0.1507
0000317479;5.9041;-12.9766;7.6088;-0.1374;0.1278;-0.1295
0000317491;5.7054;-12.8521;7.4292;-0.1781;0.1319;-0.0729
0000317499;5.4133;-12.8832;7.2712;-0.2122;0.1100;-0.0506
0000317511;5.3391;-12.7395;7.2305;-0.2722;0.0882;-0.0049
0000317519;5.7628;-12.4235;7.4699;-0.3095;0.0737;0.0177
0000317531;5.8466;-12.6917;7.2808;-0.3465;0.0650;0.0564
0000317539;5.8993;-12.8401;7.2927;-0.3579;0.0421;0.0665
0000317551;5.8802;-13.1537;7.3119;-0.3673;0.0384;0.1011
0000317559;6.0334;-13.3285;6.9504;-0.3565;0.0330;0.1131
0000317627;6.1914;-13.0364;7.1132;-0.3712;-0.0406;-0.0035
0000317635;6.4380;-12.8952;7.1251;-0.3856;-0.0225;-0.0052
0000317643;6.3662;-12.8688;7.0749;-0.3988;-0.0121;-0.0081
0000317655;6.2321;-12.8808;6.9384;-0.4108;0.0028;-0.0043
0000317663;6.1339;-12.9838;6.9983;-0.4182;0.0136;0.0009
0000317675;5.8155;-12.9191;7.1108;-0.4266;0.0057;0.0025
0000317683;5.6790;-12.9359;6.9192;-0.4358;-0.0011;0.0064
0000317695;5.4013;-13.1729;6.8474;-0.4401;-0.0234;0.0236
0000317703;5.4109;-13.0915;6.8929;-0.4387;-0.0358;0.0364
0000317715;5.6264;-13.0125;6.8163;-0.4421;-0.0593;0.0637
0000317723;5.7293;-13.0915;6.8714;-0.4417;-0.0540;0.0887
0000317731;5.7604;-13.1490;6.8115;-0.4381;-0.0592;0.1082
0000317743;5.8035;-13.2615;6.7086;-0.4202;-0.0634;0.1364
0000317751;5.6503;-13.3261;6.6607;-0.4106;-0.0650;0.1420
0000317763;5.6096;-13.4099;6.6008;-0.4105;-0.0649;0.1394
0000317771;5.5976;-13.2663;6.5553;-0.4052;-0.0709;0.1146
0000317783;5.8754;-13.2735;6.4859;-0.4074;-0.0715;0.0778
0000317791;5.7365;-13.3022;6.3375;-0.4138;-0.0646;0.0605
0000317803;6.1363;-13.2375;6.4787;-0.4227;-0.0578;0.0159
0000317811;6.3279;-13.1849;6.5050;-0.4291;-0.0510;-0.0111
0000317823;6.1794;-13.5248;6.4907;-0.4443;-0.0476;-0.0581
0000317831;6.2106;-13.5464;6.3470;-0.4475;-0.0397;-0.0766
0000317899;6.1459;-14.3030;6.6295;-0.5011;-0.0937;-0.0703
0000317907;5.8754;-14.5160;6.7373;-0.4988;-0.0901;-0.0614
0000317915;5.8562;-14.5328;6.4979;-0.5037;-0.0799;-0.0498
0000317927;6.0501;-14.6884;5.9472;-0.5184;-0.0767;-0.0552
0000317935;6.0813;-14.6501;5.9831;-0.5169;-0.0634;-0.0517
0000317947;6.2704;-14.7555;6.2058;-0.4824;-0.0513;-0.0626
0000317955;6.2968;-15.0236;6.0669;-0.4602;-0.0356;-0.0681
0000317967;6.2584;-15.1337;6.0932;-0.4257;-0.0179;-0.0855
0000317975;6.2728;-15.0595;6.0454;-0.4008;-0.0164;-0.0909
0000317987;5.9472;-15.0787;5.8730;-0.3721;-0.0266;-0.0930
0000317995;5.7317;-14.8871;5.6455;-0.3527;-0.0417;-0.0959
0000318007;5.6862;-14.4346;5.5737;-0.3373;-0.0729;-0.0761
0000318015;5.7269;-14.2359;5.4133;-0.3440;-0.0857;-0.0640
0000318023;5.9209;-14.1258;5.2936;-0.3611;-0.0885;-0.0357
0000318035;6.1220;-14.1354;5.4875;-0.3782;-0.0770;-0.0060
0000318043;6.1531;-14.3652;5.4660;-0.3838;-0.0698;0.0007
0000318055;6.4955;-14.4299;5.4181;-0.3734;-0.0444;0.0027
0000318063;6.5936;-14.4322;5.4971;-0.3704;-0.0246;-0.0004
0000318075;6.3997;-14.8249;5.5952;-0.3692;-0.0092;-0.0061
0000318083;6.4069;-14.8704;5.6743;-0.3563;-0.0033;-0.0204
0000318095;6.2273;-15.0164;5.7389;-0.3357;-0.0089;-0.0244
0000318103;6.1244;-14.9614;5.7676;-0.3096;-0.0301;-0.0384
0000318171;6.2944;-14.6980;5.2098;-0.2629;-0.0302;-0.0374
0000318179;6.4787;-14.5256;5.2720;-0.2509;-0.0228;-0.0430
0000318191;6.2584;-14.7626;5.2361;-0.2246;0.0005;-0.0481
0000318199;6.3829;-14.4873;5.2265;-0.2161;0.0191;-0.0508
0000318207;6.3614;-14.5089;5.1595;-0.2025;0.0240;-0.0580
0000318220;6.2896;-14.4299;5.1954;-0.2026;0.0294;-0.0604
0000318227;6.2776;-14.4993;5.1858;-0.1917;0.0334;-0.0598
0000318239;6.0310;-14.5951;5.1404;-0.1992;0.0256;-0.0604
0000318247;5.9472;-14.5160;5.0374;-0.1912;0.0180;-0.0634
0000318260;6.0406;-14.4682;5.0422;-0.1970;0.0024;-0.0653
0000318269;5.8682;-14.6166;5.0182;-0.1978;-0.0149;-0.0683
0000318282;5.8754;-14.7507;4.9680;-0.1860;-0.0131;-0.0694
0000318291;6.0693;-14.6070;4.9967;-0.1899;-0.0124;-0.0626
0000318304;6.1866;-14.6836;4.9991;-0.1791;-0.0179;-0.0617
0000318313;6.1268;-14.8057;4.9273;-0.1624;-0.0341;-0.0650
0000318322;5.8993;-14.8417;5.0063;-0.1669;-0.0296;-0.0612
0000318335;6.0501;-14.9111;5.1834;-0.1728;-0.0322;-0.0461
0000318344;6.0645;-14.9542;5.1571;-0.1637;-0.0412;-0.0382
0000318357;5.7964;-15.1816;5.2337;-0.1565;-0.0346;-0.0165
0000318366;5.8227;-15.2726;5.1308;-0.1588;-0.0369;-0.0105
0000318379;5.9879;-15.2032;5.1691;-0.1544;-0.0409;-0.0105
0000318388;6.0334;-15.1170;4.9440;-0.1408;-0.0492;-0.0092
0000318457;5.9017;-14.8752;4.6687;-0.1805;-0.1171;0.0140
0000318466;5.8586;-15.1026;4.7285;-0.1785;-0.1100;0.0276
0000318479;5.9304;-15.0883;4.8267;-0.1744;-0.1147;0.0362
0000318488;6.1220;-15.1337;4.8052;-0.1683;-0.1136;0.0370
0000318501;6.3805;-14.9087;4.7788;-0.1771;-0.0997;0.0437
0000318510;6.1962;-14.9781;4.7285;-0.1784;-0.1009;0.0362
0000318519;6.1818;-14.9829;4.6831;-0.1919;-0.0874;0.0377
0000318532;6.1603;-15.0093;4.7094;-0.1923;-0.0810;0.0221
0000318541;6.1986;-15.0236;4.7118;-0.1989;-0.0652;0.0257
0000318554;6.0190;-15.1625;4.6831;-0.1916;-0.0577;0.0167
0000318563;6.2249;-14.9997;4.7070;-0.1876;-0.0432;0.0165
0000318576;6.1842;-15.1912;4.6495;-0.1819;-0.0386;0.0115
0000318585;6.0047;-15.2104;4.7262;-0.1608;-0.0382;0.0087
0000318598;6.2201;-15.0212;4.7525;-0.1462;-0.0362;0.0024
0000318607;5.9568;-15.0763;4.6878;-0.1464;-0.0270;0.0044
0000318620;6.0047;-14.9638;4.7501;-0.1440;-0.0286;0.0013
0000318629;6.1411;-14.8536;4.8219;-0.1398;-0.0382;-0.0016
0000318638;5.9352;-14.9949;4.6950;-0.1471;-0.0437;-0.0040
0000318651;5.9544;-15.0547;4.7549;-0.1347;-0.0522;-0.0079
0000318660;5.7820;-15.0811;4.8459;-0.1210;-0.0561;-0.0079
0000318673;6.0238;-15.1218;4.7716;-0.1079;-0.0580;-0.0104
0000318682;6.0861;-15.0116;4.8052;-0.1037;-0.0577;-0.0095
0000318750;6.2848;-14.9877;4.5322;-0.0786;-0.0153;-0.0262
0000318759;6.3375;-14.9398;4.5849;-0.0662;-0.0003;-0.0244
0000318775;6.3255;-15.0930;4.5322;-0.0472;0.0123;-0.0274
0000318784;6.3925;-14.9494;4.3910;-0.0500;0.0273;-0.0177
0000318797;6.0478;-15.2295;4.4508;-0.0493;0.0272;-0.0229
0000318806;6.0118;-15.2247;4.5274;-0.0402;0.0165;-0.0306
0000318815;6.0693;-15.1146;4.4484;-0.0438;0.0193;-0.0244
0000318827;5.9807;-15.1673;4.4963;-0.0349;0.0103;-0.0294
0000318836;6.0478;-15.1984;4.5418;-0.0357;-0.0011;-0.0208
0000318849;6.0573;-15.2367;4.4005;-0.0310;-0.0091;-0.0159
0000318858;6.0190;-15.2128;4.4724;-0.0284;-0.0203;-0.0071
0000318870;6.0142;-15.0715;4.5633;-0.0129;-0.0366;0.0029
0000318879;6.1603;-14.9518;4.5226;-0.0105;-0.0477;0.0121
0000318892;6.0549;-15.0212;4.5179;-0.0028;-0.0621;0.0245
0000318901;6.1627;-14.8057;4.5514;0.0027;-0.0819;0.0217
0000318913;6.1028;-14.8943;4.5897;0.0005;-0.0915;0.0274
0000318922;6.1363;-14.8943;4.5945;-0.0079;-0.0834;0.0298
0000318931;5.9472;-14.7507;4.5657;-0.0100;-0.0881;0.0197
0000319000;6.0573;-14.9757;4.6352;-0.0168;-0.0211;0.0200
0000319009;5.9975;-15.0045;4.5849;-0.0218;-0.0121;0.0233
0000319021;5.9927;-14.9781;4.5442;-0.0200;-0.0135;0.0165
0000319030;6.0693;-14.8848;4.6017;-0.0211;-0.0091;0.0105
0000319043;5.9448;-15.0978;4.5777;-0.0157;-0.0033;-0.0005
0000319052;6.0908;-14.9757;4.6519;-0.0123;0.0021;-0.0028
0000319064;5.9999;-14.8800;4.6328;-0.0121;0.0025;-0.0021
0000319073;5.9759;-14.9255;4.5969;-0.0051;0.0000;-0.0072
0000319086;5.7652;-14.9422;4.5753;-0.0105;-0.0001;0.0007
0000319095;5.7868;-14.8943;4.5849;-0.0064;-0.0105;-0.0032
0000319104;5.9161;-14.9231;4.6759;-0.0083;-0.0108;0.0019
0000319116;5.9735;-14.9302;4.6687;-0.0097;-0.0208;-0.0003
0000319125;5.7892;-14.9470;4.5849;-0.0052;-0.0266;-0.0029
0000319138;6.0238;-14.8632;4.6448;-0.0068;-0.0373;-0.0093
0000319147;5.8466;-14.8967;4.7214;-0.0124;-0.0340;-0.0033
0000319159;5.9137;-14.8895;4.6950;-0.0145;-0.0378;-0.0036
0000319168;5.8921;-14.7890;4.5274;-0.0201;-0.0389;-0.0061
0000319181;5.9975;-14.7962;4.6519;-0.0244;-0.0408;-0.0075
0000319190;6.0047;-14.8871;4.6232;-0.0233;-0.0464;-0.0143
0000319202;5.9568;-14.8704;4.5993;-0.0354;-0.0417;-0.0121
0000319211;5.9711;-14.8632;4.5346;-0.0406;-0.0401;-0.0143
0000319280;6.0861;-15.0069;4.5586;-0.0413;-0.0240;-0.0109
0000319289;6.1052;-14.9877;4.5179;-0.0318;-0.0304;-0.0187
0000319298;6.0789;-14.9183;4.5945;-0.0388;-0.0228;-0.0108
0000319310;5.7748;-15.0811;4.5897;-0.0400;-0.0188;-0.0128
0000319319;6.0047;-14.8991;4.5394;-0.0442;-0.0266;-0.0209
0000319332;6.0693;-14.9278;4.6376;-0.0416;-0.0264;-0.0224
0000319341;6.1483;-14.9446;4.5442;-0.0445;-0.0232;-0.0112
0000319353;6.1746;-14.8680;4.5777;-0.0429;-0.0244;-0.0123
0000319362;6.1890;-14.8393;4.5370;-0.0410;-0.0222;-0.0161
0000319375;6.0669;-15.0452;4.6878;-0.0352;-0.0197;-0.0123
0000319384;6.1004;-14.9781;4.5466;-0.0341;-0.0188;-0.0144
0000319396;5.9017;-14.9805;4.5274;-0.0324;-0.0229;-0.0137
0000319405;5.9975;-14.8632;4.4867;-0.0269;-0.0266;-0.0159
0000319418;5.9472;-15.0045;4.5011;-0.0354;-0.0236;-0.0125
0000319427;6.1196;-14.8752;4.5131;-0.0325;-0.0220;-0.0140
0000319436;6.1339;-14.9255;4.4915;-0.0316;-0.0189;-0.0097
0000319448;5.9256;-15.0691;4.4484;-0.0306;-0.0181;-0.0103
0000319457;5.8466;-15.1266;4.4125;-0.0242;-0.0265;-0.0183
0000319470;6.0047;-15.0452;4.4604;-0.0238;-0.0286;-0.0167
0000319479;5.9927;-14.9901;4.5179;-0.0254;-0.0290;-0.0145
0000319491;6.0358;-14.9662;4.5418;-0.0222;-0.0332;-0.0088
0000319500;6.0956;-15.0308;4.3766;-0.0264;-0.0216;-0.0041
0000319567;5.9496;-15.0308;4.4484;-0.0400;-0.0370;-0.0127
0000319576;5.9256;-14.9709;4.4508;-0.0376;-0.0388;-0.0099
0000319588;5.9975;-15.0452;4.4987;-0.0278;-0.0365;-0.0159
0000319597;6.1268;-14.8991;4.5083;-0.0345;-0.0328;-0.0104
0000319606;5.9496;-15.0859;4.5633;-0.0228;-0.0385;-0.0196
0000319619;5.8969;-15.0308;4.5681;-0.0221;-0.0398;-0.0173
0000319628;5.9999;-15.0332;4.5442;-0.0245;-0.0352;-0.0068
0000319640;5.9735;-14.9135;4.4915;-0.0238;-0.0326;-0.0077
0000319649;6.0454;-14.9183;4.5059;-0.0232;-0.0326;-0.0107
0000319662;5.9927;-15.0380;4.4796;-0.0181;-0.0396;-0.0127
0000319671;6.0334;-14.9231;4.4652;-0.0213;-0.0341;-0.0060
0000319683;5.9807;-14.9685;4.4987;-0.0236;-0.0432;-0.0145
0000319692;6.2082;-14.8560;4.4149;-0.0218;-0.0325;-0.0101
0000319705;6.1794;-14.8967;4.3718;-0.0218;-0.0353;-0.0115
0000319714;5.9903;-15.0093;4.5921;-0.0264;-0.0360;-0.0137
0000319726;6.0190;-14.9685;4.4819;-0.0270;-0.0302;-0.0140
0000319735;5.9735;-15.0619;4.5274;-0.0180;-0.0374;-0.0189
0000319744;6.0861;-15.0571;4.4891;-0.0184;-0.0346;-0.0184
0000319757;6.0765;-14.9111;4.5538;-0.0222;-0.0334;-0.0151
0000319766;6.1268;-14.8177;4.4412;-0.0212;-0.0334;-0.0171
0000319778;6.1986;-14.8991;4.4245;-0.0237;-0.0314;-0.0164
0000319787;6.0023;-15.0069;4.4724;-0.0272;-0.0377;-0.0181
0000319853;5.9544;-14.9638;4.4173;-0.0266;-0.0308;-0.0127
0000319862;5.9376;-14.9757;4.3479;-0.0216;-0.0362;-0.0226
0000319874;6.1268;-14.8536;4.5226;-0.0213;-0.0342;-0.0175
0000319883;6.0214;-15.0021;4.4077;-0.0244;-0.0268;-0.0152
0000319896;6.0238;-15.0140;4.4029;-0.0199;-0.0282;-0.0188
0000319905;6.0286;-14.8752;4.3910;-0.0163;-0.0316;-0.0209
0000319917;6.0430;-14.9350;4.4867;-0.0168;-0.0329;-0.0249
0000319926;5.8514;-15.0978;4.4532;-0.0226;-0.0272;-0.0165
0000319935;6.0262;-14.8680;4.4149;-0.0226;-0.0329;-0.0217
0000319948;6.0956;-14.9542;4.4628;-0.0197;-0.0370;-0.0195
0000319957;5.9233;-14.9087;4.5226;-0.0268;-0.0268;-0.0129
0000319969;5.9304;-15.0332;4.4939;-0.0293;-0.0237;-0.0152
0000319978;5.9951;-15.0595;4.4556;-0.0250;-0.0357;-0.0234
0000319991;5.9999;-14.9662;4.4293;-0.0264;-0.0312;-0.0165
0000320000;5.9855;-15.0715;4.5298;-0.0244;-0.0301;-0.0189
0000320012;5.9400;-14.9925;4.4365;-0.0317;-0.0312;-0.0157
0000320021;6.0094;-15.0907;4.4388;-0.0266;-0.0350;-0.0204
0000320034;6.2321;-14.9326;4.4604;-0.0276;-0.0366;-0.0205
0000320043;6.0813;-14.9446;4.4053;-0.0340;-0.0321;-0.0201
0000320055;6.0430;-14.9278;4.3479;-0.0345;-0.0296;-0.0121
0000320064;6.0071;-14.9829;4.4149;-0.0346;-0.0344;-0.0149
0000320073;5.9687;-15.1218;4.4580;-0.0266;-0.0324;-0.0185
0000320139;6.2130;-14.8464;4.3981;-0.0280;-0.0321;-0.0120
0000320148;6.0334;-15.0069;4.4317;-0.0310;-0.0350;-0.0117
0000320160;5.8323;-14.9805;4.4580;-0.0244;-0.0348;-0.0144
0000320169;5.9759;-14.9805;4.4245;-0.0238;-0.0393;-0.0143
0000320182;6.0118;-14.9997;4.4341;-0.0224;-0.0389;-0.0112
0000320191;6.0358;-15.0523;4.4628;-0.0208;-0.0318;-0.0077
0000320202;6.0334;-14.9494;4.4508;-0.0200;-0.0353;-0.0099
0000320211;6.0430;-14.9135;4.5657;-0.0240;-0.0308;-0.0143
0000320225;6.0166;-14.9877;4.4221;-0.0286;-0.0329;-0.0027
0000320234;6.0980;-14.9398;4.4029;-0.0308;-0.0329;-0.0076
0000320247;6.0071;-15.0260;4.3790;-0.0334;-0.0230;-0.0028
0000320256;6.0238;-14.9422;4.4365;-0.0393;-0.0256;-0.0085
0000320265;5.9256;-15.0308;4.4460;-0.0336;-0.0264;-0.0093
0000320277;5.9424;-15.0954;4.4029;-0.0336;-0.0249;-0.0081
0000320286;5.9616;-15.1002;4.4412;-0.0261;-0.0361;-0.0095
0000320299;5.8419;-15.1194;4.3958;-0.0233;-0.0305;-0.0099
0000320308;6.0166;-15.0284;4.3527;-0.0250;-0.0324;-0.0075
0000320320;6.0166;-15.0140;4.4341;-0.0242;-0.0342;-0.0123
0000320329;5.9424;-15.0547;4.4149;-0.0269;-0.0324;-0.0032
0000320342;5.9448;-15.1409;4.3790;-0.0245;-0.0305;-0.0075
0000320351;5.9568;-15.1170;4.3527;-0.0233;-0.0280;-0.0117
0000320418;5.9687;-14.9422;4.4460;-0.0277;-0.0342;-0.0125
0000320427;6.0166;-15.1864;4.3981;-0.0301;-0.0317;-0.0128
0000320440;5.8897;-15.1960;4.4388;-0.0222;-0.0338;-0.0157
0000320449;6.0645;-14.9877;4.4317;-0.0168;-0.0356;-0.0204
0000320458;5.9711;-15.0069;4.4149;-0.0230;-0.0340;-0.0140
0000320470;6.0645;-14.9470;4.4341;-0.0107;-0.0384;-0.0167
0000320479;6.0214;-15.1433;4.4029;-0.0200;-0.0344;-0.0105
0000320492;5.9592;-15.0859;4.3862;-0.0135;-0.0357;-0.0179
0000320501;6.0525;-14.8728;4.4412;-0.0165;-0.0349;-0.0136
0000320513;5.8730;-14.9877;4.5250;-0.0191;-0.0313;-0.0127
0000320522;5.8969;-15.1098;4.4460;-0.0155;-0.0358;-0.0207
0000320535;5.9400;-15.0069;4.4891;-0.0199;-0.0342;-0.0160
0000320544;6.0118;-15.0356;4.4317;-0.0244;-0.0313;-0.0189
0000320556;5.8610;-15.0907;4.4365;-0.0276;-0.0328;-0.0179
0000320565;6.0118;-15.0571;4.3287;-0.0254;-0.0310;-0.0144
0000320578;5.9400;-15.0404;4.3455;-0.0229;-0.0292;-0.0137
0000320587;6.1459;-14.9853;4.4412;-0.0179;-0.0340;-0.0230
0000320596;6.1435;-15.0188;4.3311;-0.0209;-0.0276;-0.0160
0000320608;5.8634;-15.1984;4.3790;-0.0143;-0.0301;-0.0183
0000320617;5.8897;-15.0739;4.3766;-0.0157;-0.0326;-0.0195
0000320630;6.0908;-14.9374;4.3670;-0.0125;-0.0358;-0.0200
0000320639;5.9783;-14.9733;4.3551;-0.0201;-0.0292;-0.0125
0000320706;6.0118;-15.0069;4.3934;-0.0117;-0.0380;-0.0240
0000320715;6.0190;-14.9015;4.3527;-0.0149;-0.0300;-0.0156
0000320728;5.8849;-15.0859;4.3598;-0.0121;-0.0362;-0.0201
0000320737;5.9664;-15.0332;4.4005;-0.0183;-0.0301;-0.0177
0000320749;6.0238;-14.8512;4.4125;-0.0172;-0.0317;-0.0165
0000320758;6.0693;-14.9997;4.3694;-0.0177;-0.0346;-0.0163
0000320771;5.9089;-15.0308;4.4532;-0.0207;-0.0322;-0.0160
0000320780;5.9185;-15.1337;4.4125;-0.0160;-0.0374;-0.0168
0000320789;5.8514;-15.1146;4.4293;-0.0200;-0.0305;-0.0117
0000320801;6.1459;-14.9039;4.3551;-0.0165;-0.0332;-0.0103
0000320810;6.0094;-14.9805;4.4173;-0.0069;-0.0369;-0.0148
0000320823;5.9951;-15.1146;4.4029;-0.0089;-0.0350;-0.0173
0000320832;6.0094;-14.9973;4.3670;-0.0145;-0.0312;-0.0111
0000320844;6.0717;-15.0452;4.4604;-0.0077;-0.0340;-0.0141
0000320853;5.9113;-15.0212;4.4173;-0.0191;-0.0285;-0.0100
0000320866;6.1100;-15.0045;4.3718;-0.0197;-0.0292;-0.0121
0000320875;6.0885;-15.0667;4.4317;-0.0172;-0.0306;-0.0151
0000320887;5.9640;-15.0571;4.4101;-0.0177;-0.0328;-0.0192
0000320896;6.0621;-15.1314;4.3934;-0.0129;-0.0337;-0.0171
0000320909;5.9687;-15.0907;4.3694;-0.0140;-0.0321;-0.0129
0000320918;6.0023;-15.1002;4.4053;-0.0155;-0.0269;-0.0092
0000320927;6.0621;-14.9087;4.3191;-0.0187;-0.0289;-0.0119
0000320994;6.0310;-14.9997;4.3670;-0.0185;-0.0294;-0.0079
0000321003;5.9376;-15.0763;4.4436;-0.0147;-0.0377;-0.0172
0000321016;6.0932;-14.9374;4.4029;-0.0139;-0.0360;-0.0173
0000321025;5.9687;-15.0045;4.4005;-0.0188;-0.0282;-0.0120
0000321037;6.0501;-14.8967;4.4891;-0.0117;-0.0309;-0.0120
0000321046;5.8897;-15.0859;4.4221;-0.0075;-0.0356;-0.0177
0000321059;6.0166;-14.8632;4.3886;-0.0124;-0.0352;-0.0193
0000321068;6.0047;-14.9733;4.3910;-0.0120;-0.0349;-0.0120
0000321080;6.0118;-15.0188;4.4077;-0.0173;-0.0329;-0.0079
0000321089;6.0142;-15.0739;4.4293;-0.0101;-0.0340;-0.0153
0000321102;6.0214;-15.0332;4.4700;-0.0107;-0.0380;-0.0171
0000321111;5.8371;-15.0835;4.4436;-0.0175;-0.0369;-0.0140
0000321120;6.0071;-15.0523;4.4053;-0.0127;-0.0340;-0.0143
0000321132;5.9376;-15.1122;4.4173;-0.0147;-0.0328;-0.0116
0000321141;6.0454;-15.1002;4.3574;-0.0140;-0.0341;-0.0148
0000321154;6.1196;-14.9949;4.4412;-0.0125;-0.0356;-0.0161
0000321163;6.0023;-15.1026;4.4412;-0.0147;-0.0310;-0.0111
0000321175;6.0382;-15.1026;4.3766;-0.0161;-0.0368;-0.0135
0000321184;6.0166;-15.0643;4.4245;-0.0200;-0.0297;-0.0111
0000321197;5.9185;-15.1098;4.3838;-0.0153;-0.0297;-0.0155
0000321206;6.0406;-15.0547;4.4077;-0.0145;-0.0354;-0.0152
0000321273;5.9017;-15.0691;4.3718;-0.0136;-0.0378;-0.0155
0000321282;6.1339;-14.8919;4.4604;-0.0169;-0.0306;-0.0099
0000321291;6.0501;-15.0260;4.4029;-0.0057;-0.0376;-0.0179
0000321304;6.0813;-14.9877;4.3407;-0.0135;-0.0306;-0.0092
0000321313;6.1172;-15.0571;4.4317;-0.0123;-0.0380;-0.0159
0000321325;6.0813;-14.9111;4.3790;-0.0117;-0.0430;-0.0148
0000321334;5.9807;-14.9781;4.4772;-0.0203;-0.0312;-0.0056
0000321347;5.9352;-15.0930;4.4604;-0.0171;-0.0314;-0.0123
0000321356;5.9041;-15.0835;4.3407;-0.0189;-0.0332;-0.0117
0000321368;6.1435;-14.9302;4.3742;-0.0167;-0.0341;-0.0105
0000321377;5.8299;-15.1673;4.3670;-0.0167;-0.0328;-0.0139
0000321390;6.0166;-14.9518;4.4365;-0.0133;-0.0362;-0.0172
0000321399;5.9592;-15.0380;4.3958;-0.0116;-0.0364;-0.0156
0000321411;6.0932;-15.0356;4.3383;-0.0068;-0.0368;-0.0149
0000321420;5.9999;-14.9901;4.3574;-0.0100;-0.0269;-0.0072
0000321429;6.0645;-15.0835;4.3646;-0.0084;-0.0310;-0.0135
0000321442;5.8682;-15.1074;4.4125;-0.0096;-0.0269;-0.0133
0000321451;6.0669;-14.9159;4.3120;-0.0073;-0.0330;-0.0156
0000321463;6.0693;-15.1385;4.3958;-0.0111;-0.0300;-0.0131
0000321472;5.9592;-15.0643;4.4125;-0.0087;-0.0358;-0.0192
0000321485;5.9903;-15.0236;4.4748;-0.0097;-0.0340;-0.0209
0000321494;5.9592;-15.0069;4.3311;-0.0177;-0.0268;-0.0147
0000321562;5.9592;-15.0236;4.3622;-0.0067;-0.0309;-0.0159
0000321571;6.0286;-14.9350;4.4173;-0.0101;-0.0318;-0.0171
0000321584;5.9568;-15.0811;4.4365;-0.0087;-0.0314;-0.0132
0000321593;5.9783;-15.0476;4.3622;-0.0033;-0.0334;-0.0195
0000321605;6.0238;-14.9111;4.3981;-0.0068;-0.0376;-0.0172
0000321614;6.0765;-14.8010;4.4484;-0.0153;-0.0325;-0.0137
0000321623;6.0023;-14.9685;4.3551;-0.0160;-0.0382;-0.0236
0000321637;6.0214;-14.9470;4.4604;-0.0184;-0.0349;-0.0163
0000321646;6.0166;-14.9350;4.4460;-0.0228;-0.0366;-0.0101
0000321659;6.0525;-15.0930;4.3886;-0.0226;-0.0337;-0.0115
0000321668;6.1459;-14.8967;4.4484;-0.0185;-0.0402;-0.0199
0000321680;5.9879;-15.0045;4.4293;-0.0185;-0.0392;-0.0132
0000321689;5.9903;-15.0715;4.3574;-0.0080;-0.0430;-0.0180
0000321702;5.8873;-15.1002;4.3479;-0.0045;-0.0424;-0.0156
0000321711;6.0621;-14.9662;4.4149;-0.0039;-0.0370;-0.0123
0000321723;6.1603;-15.0140;4.3335;0.0001;-0.0396;-0.0116
0000321732;6.1292;-14.8991;4.4005;-0.0012;-0.0372;-0.0124
0000321745;5.9280;-15.0691;4.3479;-0.0095;-0.0317;-0.0140
0000321754;5.9640;-15.0045;4.4245;-0.0185;-0.0309;-0.0165
0000321763;6.1579;-14.8297;4.3814;-0.0321;-0.0340;-0.0161
0000321775;5.9209;-14.9949;4.3598;-0.0556;-0.0318;-0.0119
0000321784;6.1507;-14.8704;4.4724;-0.0546;-0.0416;-0.0167
0000321852;5.8897;-15.4594;4.4005;-0.0059;-0.0289;-0.0155
0000321861;6.1004;-15.2104;4.3958;0.0193;-0.0258;-0.0128
0000321873;6.0430;-15.2822;4.3958;0.0490;-0.0253;-0.0159
0000321882;5.9759;-15.3875;4.2832;0.0685;-0.0306;-0.0188
0000321895;5.9807;-15.2798;4.3383;0.0791;-0.0289;-0.0137
0000321904;6.0166;-15.3205;4.2306;0.0966;-0.0392;-0.0169
0000321916;5.8395;-15.3301;4.2210;0.0967;-0.0373;-0.0204
0000321925;5.9807;-15.2750;4.1468;0.0909;-0.0268;-0.0133
0000321934;6.0334;-15.1337;4.2665;0.0889;-0.0369;-0.0180
0000321947;5.8371;-15.1912;4.1731;0.0625;-0.0332;-0.0115
0000321956;5.9496;-14.9518;4.1827;0.0514;-0.0388;-0.0205
0000321968;6.0885;-15.0188;4.2737;0.0348;-0.0409;-0.0211
0000321977;5.8299;-15.0021;4.2353;0.0232;-0.0361;-0.0167
0000321990;5.9256;-14.9925;4.3096;0.0133;-0.0334;-0.0169
0000321999;6.1459;-14.8848;4.4101;0.0161;-0.0325;-0.0167
0000322011;5.9592;-15.0164;4.4580;0.0133;-0.0329;-0.0144
0000322020;6.0094;-14.9255;4.4915;0.0103;-0.0318;-0.0201
0000322033;5.9903;-14.9111;4.5155;0.0160;-0.0338;-0.0187
0000322042;6.1459;-14.7028;4.5777;0.0189;-0.0326;-0.0193
0000322051;5.9496;-14.8369;4.6974;0.0147;-0.0309;-0.0172
0000322063;5.9568;-14.8656;4.6256;0.0124;-0.0276;-0.0201
0000322072;5.9640;-14.9494;4.6376;0.0149;-0.0348;-0.0221
0000322141;6.2273;-14.8081;4.6663;0.0131;-0.0350;-0.0057
0000322150;6.1076;-14.8680;4.5083;0.0148;-0.0390;-0.0061
0000322162;5.9831;-14.8129;4.5538;0.0051;-0.0312;0.0028
0000322171;6.1220;-14.6286;4.5442;0.0036;-0.0356;-0.0025
0000322184;5.9975;-14.8249;4.4652;-0.0160;-0.0306;0.0007
0000322193;5.9664;-14.7148;4.5107;-0.0266;-0.0377;-0.0075
0000322205;5.9592;-14.9566;4.5514;-0.0388;-0.0380;-0.0132
0000322214;5.8969;-14.9063;4.3718;-0.0470;-0.0341;-0.0049
0000322223;6.1507;-14.8129;4.4963;-0.0568;-0.0377;-0.0075
0000322236;6.1268;-14.9494;4.3981;-0.0617;-0.0362;-0.0061
0000322245;6.1723;-14.9614;4.4628;-0.0661;-0.0305;-0.0067
0000322257;6.0358;-14.9901;4.3383;-0.0614;-0.0304;-0.0100
0000322266;6.0813;-14.9614;4.3527;-0.0659;-0.0316;-0.0059
0000322279;5.9544;-15.1242;4.3598;-0.0622;-0.0317;-0.0132
0000322288;5.9664;-15.1864;4.4101;-0.0602;-0.0286;-0.0067
0000322300;6.0286;-15.0116;4.3646;-0.0570;-0.0325;-0.0172
0000322309;5.8897;-15.1385;4.4293;-0.0578;-0.0292;-0.0111
0000322322;5.8059;-15.0835;4.4724;-0.0537;-0.0361;-0.0151
0000322331;5.8466;-15.1601;4.4939;-0.0554;-0.0316;-0.0111
0000322343;6.0501;-14.9685;4.4101;-0.0425;-0.0305;-0.0108
0000322352;6.0501;-15.0547;4.5107;-0.0424;-0.0302;-0.0083
0000322361;6.1651;-14.9135;4.4365;-0.0324;-0.0386;-0.0111
0000322430;5.9975;-15.0069;4.4963;-0.0329;-0.0246;-0.0096
0000322437;5.9352;-15.1146;4.4676;-0.0330;-0.0242;-0.0120
0000322448;6.0501;-15.0260;4.4700;-0.0293;-0.0294;-0.0124
0000322456;6.0885;-14.9709;4.5011;-0.0270;-0.0266;-0.0180
0000322468;5.9999;-15.0045;4.3934;-0.0266;-0.0265;-0.0151
0000322476;5.9783;-15.0021;4.4532;-0.0285;-0.0285;-0.0193
