time;acc_x;acc_y;acc_z;gyro_x;gyro_y;gyro_z
0000190909;5.8538;-16.0220;0.8021;-0.0237;0.0185;-0.0401
0000190917;5.6719;-16.1393;0.7901;-0.0156;0.0165;-0.0436
0000190924;5.6838;-16.0459;0.8140;-0.0131;0.0261;-0.0354
0000190932;5.7078;-16.1106;0.7877;-0.0113;0.0216;-0.0436
0000190941;5.7054;-16.0651;0.6967;-0.0129;0.0312;-0.0360
0000190949;5.7030;-15.9789;0.7230;-0.0149;0.0297;-0.0310
0000190961;5.5210;-15.9909;0.6656;-0.0317;0.0281;-0.0250
0000190969;5.7245;-15.7945;0.6321;-0.0289;0.0120;-0.0262
0000190977;5.4372;-15.9334;0.5962;-0.0376;0.0027;-0.0168
0000190988;5.3463;-15.8760;0.6273;-0.0378;-0.0143;-0.0224
0000190996;5.3750;-15.9597;0.6273;-0.0473;-0.0330;-0.0230
0000191008;5.3295;-15.9645;0.6225;-0.0472;-0.0556;-0.0317
0000191016;5.3917;-16.0124;0.7111;-0.0393;-0.0702;-0.0345
0000191027;5.4468;-16.0220;0.7374;-0.0397;-0.0730;-0.0195
0000191035;5.5210;-15.9909;0.7326;-0.0349;-0.0871;-0.0229
0000191047;5.7006;-15.9286;0.7183;-0.0376;-0.0925;-0.0212
0000191055;5.6790;-15.8161;0.7518;-0.0484;-0.0962;-0.0237
0000191066;5.6312;-15.8161;0.7183;-0.0568;-0.0927;-0.0215
0000191074;5.4708;-15.9167;0.7638;-0.0596;-0.0983;-0.0245
0000191142;4.9560;-16.2782;0.8811;-0.0380;-0.1276;0.0079
0000191150;4.7190;-16.3428;0.7661;-0.0155;-0.1360;0.0218
0000191158;4.7932;-16.3141;0.8356;-0.0048;-0.1545;0.0203
0000191169;5.2505;-16.0914;0.7781;-0.0005;-0.2024;0.0145
0000191177;5.4324;-16.0412;0.6991;-0.0007;-0.2392;0.0040
0000191189;5.9711;-15.8688;0.7159;-0.0096;-0.2742;-0.0232
0000191197;6.3279;-15.7922;0.7207;-0.0284;-0.2665;-0.0264
0000191208;6.5721;-15.7874;0.7853;-0.0377;-0.2479;-0.0176
0000191216;6.3063;-15.8903;0.7853;-0.0433;-0.2008;0.0089
0000191228;5.7820;-16.0459;0.7614;-0.0302;-0.1563;0.0332
0000191236;5.5162;-16.1656;0.7590;-0.0386;-0.1423;0.0313
0000191247;5.1643;-16.3811;0.8045;-0.0377;-0.1456;0.0069
0000191255;5.5043;-16.2997;0.7973;-0.0268;-0.1516;-0.0181
0000191263;5.9161;-16.2614;0.7566;-0.0099;-0.1448;-0.0310
0000191275;6.4380;-16.1728;0.8667;0.0164;-0.1216;-0.0469
0000191283;6.4643;-16.0699;0.8021;0.0353;-0.1063;-0.0478
0000191294;6.4739;-15.9741;0.9409;0.0274;-0.0496;-0.0334
0000191302;6.5625;-15.9406;0.8906;0.0161;-0.0140;-0.0169
0000191314;6.4835;-15.9382;0.9337;0.0035;0.0289;0.0012
0000191322;6.3494;-15.9645;0.7997;-0.0047;0.0532;0.0108
0000191334;6.0669;-15.9789;0.8092;-0.0055;0.0697;0.0089
0000191342;5.9041;-16.0412;0.9385;-0.0051;0.0873;0.0087
0000191410;5.7341;-16.1417;0.8547;0.0325;0.2726;-0.0025
0000191418;5.6407;-16.0076;0.7997;0.0293;0.2771;-0.0080
0000191426;5.6862;-15.8257;0.8499;0.0268;0.2717;-0.0177
0000191437;5.6575;-15.9262;0.8260;0.0218;0.2669;-0.0229
0000191445;5.6910;-15.8927;0.7063;0.0164;0.2542;-0.0342
0000191457;5.6479;-16.0005;0.7829;0.0096;0.2574;-0.0230
0000191465;5.6096;-16.0052;0.7614;0.0207;0.2510;-0.0109
0000191476;5.4779;-16.1585;0.6991;0.0265;0.2494;-0.0023
0000191484;5.2601;-16.2614;0.7183;0.0409;0.2394;0.0023
0000191496;5.2289;-16.0914;0.6560;0.0444;0.2282;0.0024
0000191504;5.1787;-16.0651;0.7302;0.0412;0.2064;-0.0053
0000191512;5.3702;-15.8520;0.7494;0.0310;0.1892;0.0007
0000191523;5.2984;-16.0196;0.8643;0.0285;0.1619;-0.0028
0000191531;4.9752;-16.0651;0.7398;0.0349;0.1475;-0.0017
0000191543;4.9009;-16.2064;0.5626;0.0601;0.1271;0.0031
0000191551;5.2720;-15.9909;0.6153;0.0481;0.0886;-0.0160
0000191562;5.3439;-15.8400;0.6776;0.0121;0.0338;-0.0203
0000191570;5.3079;-15.9167;0.6800;0.0040;0.0305;0.0135
0000191578;5.1930;-16.0675;0.6536;0.0180;0.0195;0.0357
0000191590;5.1140;-15.9454;0.5866;0.0187;-0.0285;0.0369
0000191598;5.1020;-15.9765;0.5962;0.0159;-0.0767;0.0129
0000191610;5.2816;-15.9382;0.6488;-0.0019;-0.1388;-0.0160
0000191618;5.3798;-16.1417;0.6321;-0.0238;-0.1656;-0.0242
0000191686;5.4588;-16.0172;0.7398;-0.0236;-0.2158;-0.0073
0000191694;5.5952;-15.8592;0.8212;-0.0240;-0.2152;-0.0163
0000191705;5.6958;-15.8568;0.8811;-0.0262;-0.2106;-0.0183
0000191713;5.6790;-15.9957;0.8308;-0.0252;-0.2016;-0.0177
0000191725;5.7557;-15.9741;0.7398;-0.0325;-0.1897;-0.0157
0000191733;5.8107;-15.8352;0.7973;-0.0302;-0.1876;-0.0133
0000191744;5.8059;-15.9454;0.9050;-0.0408;-0.1711;-0.0033
0000191752;5.8083;-15.9310;0.7805;-0.0465;-0.1611;0.0011
0000191760;5.7269;-15.9574;0.7590;-0.0565;-0.1478;0.0043
0000191772;5.8634;-15.8089;0.7087;-0.0529;-0.1434;0.0027
0000191780;5.7437;-15.9550;0.6991;-0.0557;-0.1342;0.0064
0000191791;5.8323;-16.0435;0.7805;-0.0528;-0.1280;0.0020
0000191799;5.8131;-15.9143;0.7350;-0.0506;-0.1199;0.0051
0000191811;5.7724;-16.0316;0.7470;-0.0445;-0.1144;0.0043
0000191819;5.7796;-15.9741;0.8116;-0.0410;-0.1066;0.0005
0000191830;5.8251;-16.0388;0.8667;-0.0345;-0.1069;0.0015
0000191838;5.6120;-16.0244;0.7805;-0.0393;-0.0937;0.0100
0000191846;5.6551;-16.0579;0.8882;-0.0426;-0.0906;0.0063
0000191858;5.7604;-15.9119;0.8428;-0.0473;-0.0879;-0.0005
0000191866;5.6767;-15.9143;0.8116;-0.0456;-0.0926;-0.0015
0000191878;5.5809;-16.0914;0.8906;-0.0537;-0.0835;0.0021
0000191886;5.7365;-16.0627;0.7661;-0.0564;-0.0822;0.0004
0000191954;5.6527;-16.0220;0.7254;-0.0461;-0.0754;-0.0064
0000191962;5.7844;-15.9717;0.6512;-0.0432;-0.0751;-0.0133
0000191973;5.6838;-15.9143;0.6991;-0.0434;-0.0761;-0.0051
0000191981;5.4396;-16.1369;0.6536;-0.0401;-0.0791;-0.0109
0000191993;5.6767;-16.1034;0.7015;-0.0365;-0.0794;-0.0083
0000192001;5.6790;-15.7874;0.7135;-0.0370;-0.0802;-0.0100
0000192012;5.6767;-15.9957;0.7398;-0.0405;-0.0730;-0.0061
0000192020;5.7317;-16.0076;0.7685;-0.0310;-0.0746;-0.0093
0000192028;5.5881;-16.1273;0.7709;-0.0358;-0.0715;-0.0041
0000192040;5.8323;-15.9119;0.8068;-0.0314;-0.0683;-0.0069
0000192048;5.7676;-15.9143;0.8452;-0.0313;-0.0617;-0.0016
0000192059;5.6719;-15.9502;0.7805;-0.0330;-0.0572;-0.0084
0000192067;5.6120;-15.9909;0.7925;-0.0329;-0.0534;-0.0077
0000192079;5.6431;-16.1992;0.8428;-0.0345;-0.0500;-0.0123
0000192087;5.7174;-16.0316;0.7566;-0.0349;-0.0458;-0.0117
0000192098;5.5378;-16.1704;0.8140;-0.0242;-0.0492;-0.0176
0000192106;5.7269;-16.0938;0.7278;-0.0272;-0.0405;-0.0168
0000192118;5.6000;-16.1561;0.7494;-0.0152;-0.0428;-0.0165
0000192126;5.7389;-16.0866;0.7709;-0.0245;-0.0340;-0.0125
0000192138;5.6982;-15.9741;0.7230;-0.0222;-0.0321;-0.0128
0000192146;5.6814;-16.0172;0.7733;-0.0257;-0.0281;-0.0100
0000192154;5.6336;-16.0412;0.8691;-0.0212;-0.0342;-0.0183
0000192222;5.7676;-16.0005;0.7326;-0.0217;-0.0156;-0.0124
0000192230;5.7509;-16.0675;0.7518;-0.0165;-0.0160;-0.0084
0000192241;5.7557;-15.9717;0.7590;-0.0059;-0.0193;-0.0096
0000192249;5.5522;-16.0890;0.7326;-0.0023;-0.0153;-0.0157
0000192261;5.6000;-15.9813;0.7757;-0.0003;-0.0185;-0.0127
0000192269;5.6503;-16.0531;0.6536;-0.0033;-0.0129;-0.0089
0000192281;5.5498;-16.1369;0.6225;-0.0041;-0.0063;-0.0065
0000192289;5.6168;-15.9789;0.6895;-0.0077;-0.0104;-0.0120
0000192300;5.7078;-15.9933;0.7183;-0.0047;-0.0105;-0.0124
0000192308;5.7245;-15.9262;0.7183;-0.0108;-0.0025;-0.0059
0000192320;5.5881;-16.0100;0.6201;-0.0117;-0.0028;-0.0089
0000192328;5.7150;-16.0028;0.7278;-0.0020;-0.0100;-0.0163
0000192336;5.6479;-16.0005;0.6105;-0.0052;-0.0071;-0.0105
0000192347;5.5282;-16.0771;0.7422;-0.0084;-0.0064;-0.0115
0000192355;5.4636;-16.1082;0.7566;-0.0083;-0.0091;-0.0124
0000192367;5.6407;-15.9597;0.7518;-0.0168;-0.0056;-0.0132
0000192375;5.6144;-16.0412;0.7326;-0.0155;-0.0032;-0.0107
0000192386;5.6360;-15.9119;0.7015;-0.0208;-0.0003;-0.0108
0000192394;5.7604;-15.9430;0.8021;-0.0203;-0.0055;-0.0117
0000192406;5.7341;-15.8760;0.6991;-0.0254;-0.0024;-0.0088
0000192414;5.6048;-16.0627;0.7326;-0.0228;-0.0101;-0.0140
0000192478;5.6503;-16.0507;0.6823;-0.0133;-0.0056;-0.0048
0000192486;5.5234;-16.0268;0.6369;-0.0156;-0.0095;-0.0064
0000192498;5.5569;-15.9478;0.6800;-0.0096;-0.0132;-0.0049
0000192506;5.6096;-16.0100;0.6512;-0.0128;-0.0071;0.0000
0000192514;5.6431;-16.0555;0.7685;-0.0112;-0.0144;-0.0049
0000192525;5.5354;-16.0675;0.6919;-0.0128;-0.0125;0.0016
0000192533;5.5976;-15.9981;0.6823;-0.0087;-0.0183;-0.0067
0000192545;5.4564;-15.9813;0.7230;-0.0020;-0.0233;-0.0097
0000192553;5.5378;-15.9669;0.7470;-0.0096;-0.0196;-0.0061
0000192564;5.6647;-15.8616;0.6919;-0.0084;-0.0208;-0.0031
0000192572;5.6072;-16.0124;0.7207;-0.0080;-0.0192;-0.0088
0000192584;5.6120;-15.9334;0.7183;-0.0148;-0.0199;-0.0080
0000192592;5.5091;-16.0316;0.7685;-0.0100;-0.0205;-0.0103
0000192603;5.4827;-16.0483;0.7326;-0.0087;-0.0222;-0.0123
0000192611;5.5665;-15.9669;0.7302;-0.0111;-0.0209;-0.0076
0000192619;5.4277;-16.0747;0.6776;-0.0135;-0.0191;-0.0071
0000192631;5.4899;-16.0100;0.5794;-0.0116;-0.0266;-0.0080
0000192639;5.4947;-16.0579;0.6704;-0.0041;-0.0342;-0.0157
0000192650;5.6168;-15.9813;0.7542;-0.0061;-0.0317;-0.0181
0000192658;5.5474;-15.9885;0.7949;-0.0056;-0.0298;-0.0132
0000192670;5.5809;-15.9957;0.7135;-0.0023;-0.0257;-0.0189
0000192678;5.5641;-15.9885;0.6752;-0.0048;-0.0213;-0.0127
0000192745;5.5809;-16.0364;0.7446;-0.0125;-0.0276;-0.0169
0000192753;5.5545;-16.0627;0.7302;-0.0132;-0.0230;-0.0159
0000192765;5.5641;-15.9310;0.7111;-0.0169;-0.0253;-0.0177
0000192773;5.5186;-16.0435;0.7039;-0.0076;-0.0310;-0.0233
0000192784;5.4803;-16.0579;0.7638;-0.0027;-0.0330;-0.0181
0000192792;5.5857;-16.0005;0.6225;-0.0051;-0.0320;-0.0144
0000192800;5.5306;-15.9430;0.7757;0.0003;-0.0348;-0.0151
0000192812;5.4803;-16.1106;0.7326;-0.0051;-0.0326;-0.0135
0000192820;5.4636;-16.0435;0.6584;-0.0060;-0.0385;-0.0144
0000192831;5.6383;-15.9526;0.6680;-0.0159;-0.0294;-0.0076
0000192839;5.5905;-16.0651;0.7614;-0.0125;-0.0373;-0.0145
0000192851;5.4899;-15.9909;0.6871;-0.0119;-0.0321;-0.0147
0000192859;5.6144;-16.0483;0.7805;-0.0115;-0.0277;-0.0088
0000192870;5.5067;-16.0483;0.6680;-0.0019;-0.0357;-0.0145
0000192878;5.5976;-16.0028;0.6943;0.0003;-0.0298;-0.0101
0000192890;5.6000;-15.9071;0.7805;0.0035;-0.0333;-0.0151
0000192898;5.5354;-16.0866;0.6680;0.0079;-0.0417;-0.0181
0000192909;5.5713;-16.0196;0.7159;-0.0001;-0.0412;-0.0254
0000192917;5.6958;-15.8807;0.7015;0.0036;-0.0372;-0.0179
0000192925;5.5641;-15.8831;0.7015;-0.0037;-0.0325;-0.0163
0000192937;5.6336;-15.8807;0.7518;-0.0097;-0.0313;-0.0128
0000192945;5.7221;-15.9262;0.6728;-0.0065;-0.0356;-0.0157
0000193012;5.6479;-15.8568;0.7614;-0.0045;-0.0394;-0.0173
0000193020;5.5282;-16.0459;0.7470;-0.0029;-0.0368;-0.0168
0000193032;5.4803;-16.1489;0.7111;-0.0024;-0.0405;-0.0204
0000193040;5.6192;-16.0459;0.6991;0.0064;-0.0476;-0.0238
0000193051;5.6838;-16.0148;0.7207;0.0001;-0.0466;-0.0221
0000193059;5.5737;-16.0220;0.7566;0.0000;-0.0389;-0.0143
0000193071;5.5689;-15.9454;0.7997;-0.0021;-0.0382;-0.0144
0000193079;5.5737;-16.1609;0.6919;-0.0057;-0.0397;-0.0160
0000193087;5.7341;-16.0005;0.7997;-0.0001;-0.0441;-0.0175
0000193098;5.5809;-16.0483;0.8140;0.0012;-0.0393;-0.0207
0000193106;5.4947;-16.0723;0.7446;0.0003;-0.0384;-0.0171
0000193118;5.6599;-16.0316;0.7709;0.0005;-0.0377;-0.0183
0000193126;5.5976;-15.9262;0.7207;0.0012;-0.0416;-0.0211
0000193137;5.5162;-16.0100;0.7853;-0.0061;-0.0354;-0.0172
0000193145;5.5593;-16.0292;0.7518;-0.0051;-0.0388;-0.0205
0000193157;5.8012;-15.8376;0.8643;-0.0080;-0.0309;-0.0156
0000193165;5.4588;-16.1920;0.7638;-0.0060;-0.0292;-0.0121
0000193176;5.5737;-16.0364;0.8499;0.0008;-0.0349;-0.0171
0000193184;5.6360;-16.0005;0.7877;-0.0053;-0.0334;-0.0136
0000193196;5.5043;-16.1178;0.7039;-0.0055;-0.0338;-0.0169
0000193204;5.5929;-16.1513;0.7590;-0.0036;-0.0314;-0.0151
0000193212;5.3822;-16.1585;0.7973;0.0063;-0.0337;-0.0181
0000193279;5.5402;-16.0747;0.7039;-0.0024;-0.0325;-0.0152
0000193287;5.6455;-15.9765;0.7230;0.0057;-0.0342;-0.0164
0000193299;5.7700;-15.9741;0.8547;-0.0012;-0.0324;-0.0152
0000193307;5.8490;-15.9071;0.7350;0.0012;-0.0318;-0.0148
0000193318;5.5593;-15.9310;0.8404;-0.0060;-0.0240;-0.0105
0000193326;5.6336;-16.0507;0.8619;-0.0031;-0.0328;-0.0152
0000193338;5.6383;-15.9909;0.7230;-0.0068;-0.0304;-0.0169
0000193346;5.7269;-15.8400;0.7230;-0.0095;-0.0280;-0.0129
0000193357;5.6336;-15.9981;0.7302;-0.0111;-0.0272;-0.0143
0000193365;5.8514;-15.8400;0.7781;-0.0091;-0.0268;-0.0085
0000193373;5.6264;-16.0579;0.6536;-0.0093;-0.0274;-0.0081
0000193385;5.7916;-15.8640;0.6752;-0.0077;-0.0308;-0.0140
0000193393;5.5929;-16.0914;0.7590;-0.0059;-0.0316;-0.0093
0000193404;5.6240;-16.0124;0.6656;-0.0061;-0.0320;-0.0147
0000193412;5.5737;-16.0579;0.7039;-0.0083;-0.0353;-0.0157
0000193424;5.5474;-16.0675;0.8164;-0.0135;-0.0374;-0.0149
0000193432;5.5689;-16.1417;0.8715;-0.0096;-0.0306;-0.0137
0000193443;5.5641;-16.1609;0.7757;-0.0100;-0.0330;-0.0205
0000193451;5.6407;-16.0866;0.7661;-0.0157;-0.0257;-0.0095
0000193463;5.6096;-16.1010;0.8380;-0.0127;-0.0274;-0.0079
0000193471;5.6743;-16.0364;0.7398;-0.0131;-0.0254;-0.0107
0000193538;5.4947;-16.1752;0.8308;-0.0159;-0.0274;-0.0083
0000193546;5.5354;-15.9621;0.7518;-0.0129;-0.0322;-0.0136
0000193554;5.6216;-15.9406;0.7542;-0.0124;-0.0322;-0.0107
0000193566;5.5689;-16.0723;0.7207;-0.0152;-0.0281;-0.0065
0000193574;5.6503;-16.0627;0.7590;-0.0147;-0.0294;-0.0100
0000193585;5.5162;-16.0124;0.7781;-0.0145;-0.0337;-0.0133
0000193593;5.5857;-15.9238;0.8356;-0.0151;-0.0290;-0.0081
0000193605;5.5426;-16.0292;0.7781;-0.0132;-0.0306;-0.0103
0000193613;5.4492;-16.1537;0.7614;-0.0211;-0.0241;-0.0027
0000193625;5.6000;-15.9502;0.7542;-0.0168;-0.0220;-0.0069
0000193633;5.5450;-16.0220;0.7709;-0.0159;-0.0317;-0.0096
0000193644;5.5162;-16.1609;0.7326;-0.0169;-0.0285;-0.0099
0000193652;5.6790;-15.9334;0.7063;-0.0195;-0.0313;-0.0120
0000193664;5.6024;-16.0699;0.7997;-0.0215;-0.0314;-0.0141
0000193672;5.6120;-16.0340;0.7614;-0.0205;-0.0257;-0.0072
0000193680;5.6647;-15.9933;0.8260;-0.0203;-0.0298;-0.0081
0000193691;5.7006;-15.8640;0.7781;-0.0201;-0.0276;-0.0040
0000193699;5.5569;-16.1202;0.7087;-0.0148;-0.0362;-0.0111
0000193711;5.5809;-16.0938;0.8045;-0.0218;-0.0266;-0.0036
0000193719;5.6360;-15.9957;0.8260;-0.0184;-0.0273;-0.0115
0000193786;5.5498;-16.0651;0.7685;-0.0103;-0.0318;-0.0121
0000193794;5.6743;-15.8951;0.8787;-0.0085;-0.0329;-0.0097
0000193806;5.4372;-15.9957;0.7709;-0.0144;-0.0317;-0.0117
0000193814;5.6192;-16.0028;0.8021;-0.0131;-0.0328;-0.0157
0000193825;5.5713;-16.0507;0.8499;-0.0144;-0.0236;-0.0132
0000193833;5.5689;-16.0938;0.8188;-0.0032;-0.0284;-0.0197
0000193845;5.5713;-16.0196;0.9385;0.0025;-0.0336;-0.0225
0000193853;5.5258;-16.1321;0.8140;0.0039;-0.0336;-0.0238
0000193861;5.4348;-16.1297;0.9026;0.0061;-0.0285;-0.0148
0000193872;5.6623;-16.2135;0.9720;0.0147;-0.0298;-0.0188
0000193880;5.6192;-16.1824;0.9050;0.0257;-0.0338;-0.0207
0000193892;5.7413;-16.2638;1.0606;0.0397;-0.0389;-0.0268
0000193900;5.6910;-16.1585;1.0630;0.0493;-0.0336;-0.0242
0000193911;5.6192;-16.2159;1.1109;0.0597;-0.0420;-0.0321
0000193919;5.4516;-16.3596;1.2234;0.0642;-0.0349;-0.0304
0000193931;5.6383;-16.2566;1.2234;0.0870;-0.0504;-0.0380
0000193939;5.5019;-16.3835;1.2857;0.0971;-0.0545;-0.0433
0000193950;5.5929;-16.2351;1.2115;0.1204;-0.0690;-0.0520
0000193958;5.4037;-16.4242;1.3024;0.1250;-0.0683;-0.0438
0000193966;5.4420;-16.2854;1.3024;0.1374;-0.0781;-0.0529
0000193978;5.4803;-16.1585;1.3216;0.1446;-0.0875;-0.0525
0000193986;5.5402;-16.1489;1.2977;0.1571;-0.0990;-0.0553
0000194053;5.6455;-16.3907;1.6544;0.2617;-0.1783;-0.0657
0000194061;5.7868;-16.1585;1.5874;0.2750;-0.1743;-0.0566
0000194073;5.8754;-16.4410;1.7095;0.3036;-0.1688;-0.0524
0000194081;5.9352;-16.3404;1.8603;0.3320;-0.1692;-0.0556
0000194092;6.2560;-16.2375;1.7741;0.3573;-0.1486;-0.0424
0000194100;6.2632;-16.1154;1.9058;0.3785;-0.1394;-0.0449
0000194112;6.3231;-16.1082;1.9585;0.4151;-0.1075;-0.0474
0000194120;6.1770;-16.1585;1.9824;0.4431;-0.0897;-0.0488
0000194128;6.0956;-16.2351;2.4397;0.4726;-0.0747;-0.0485
0000194139;6.4141;-16.2159;2.4565;0.5223;-0.0494;-0.0542
0000194147;6.2441;-16.2662;2.4756;0.5565;-0.0234;-0.0532
0000194159;6.4236;-16.0555;2.7366;0.6071;0.0249;-0.0412
0000194167;6.3494;-15.9334;2.7629;0.6486;0.0452;-0.0497
0000194178;6.3829;-15.6581;2.8946;0.6948;0.0810;-0.0560
0000194186;6.2153;-15.4498;2.9209;0.7230;0.1087;-0.0703
0000194198;6.2441;-14.9590;2.8299;0.7560;0.1364;-0.1083
0000194206;6.1339;-14.6262;2.8874;0.7699;0.1483;-0.1386
0000194214;6.2082;-14.3915;2.9042;0.7540;0.1681;-0.1787
0000194225;6.0478;-14.0468;2.6647;0.7400;0.1653;-0.2677
0000194233;6.0214;-13.7307;2.6001;0.7217;0.1544;-0.3192
0000194245;5.7437;-13.7667;2.6001;0.7072;0.1292;-0.3612
0000194253;5.5402;-13.8433;2.8132;0.7201;0.1079;-0.3693
0000194316;5.4708;-13.5679;2.2314;1.0800;-0.2470;-0.1713
0000194324;5.7700;-13.3956;2.3080;1.0944;-0.2599;-0.1311
0000194336;6.1770;-13.6015;2.3559;1.1145;-0.2521;-0.0616
0000194344;6.5649;-13.6015;2.3535;1.1342;-0.2321;-0.0081
0000194352;6.7014;-13.7619;2.5283;1.1501;-0.2088;0.0434
0000194363;6.6798;-13.9486;2.4636;1.1728;-0.1711;0.0941
0000194371;6.6008;-13.9750;2.3487;1.1815;-0.1519;0.0999
0000194383;6.0908;-13.9319;2.3104;1.1762;-0.1208;0.0854
0000194391;5.5881;-13.8696;2.4852;1.1703;-0.1148;0.0735
0000194402;5.4205;-13.6637;2.4445;1.1343;-0.1422;0.0314
0000194410;5.2984;-13.4794;2.8180;1.1126;-0.1891;0.0025
0000194422;5.1332;-13.4554;2.7629;1.0880;-0.2547;-0.0077
0000194430;5.1691;-13.3836;2.5977;1.0600;-0.2975;-0.0057
0000194441;5.3367;-13.5368;2.5905;0.9896;-0.3552;-0.0036
0000194449;5.3199;-13.5775;2.9209;0.9811;-0.3872;0.0012
0000194457;5.4612;-13.6613;2.8754;0.9518;-0.4141;0.0426
0000194469;5.9520;-13.8552;2.8276;0.9154;-0.4429;0.1003
0000194477;6.2776;-14.1497;3.0287;0.9122;-0.4562;0.1351
0000194488;6.4332;-14.3077;2.7557;0.8930;-0.4521;0.1807
0000194496;6.5769;-14.5113;2.9425;0.9058;-0.4289;0.1915
0000194508;6.6702;-14.2862;3.1699;0.8958;-0.3877;0.1655
0000194516;6.3829;-14.2168;3.3591;0.8737;-0.3647;0.1204
0000194583;6.4380;-14.8105;4.6040;0.6428;-0.3545;-0.0113
0000194591;6.6990;-15.2152;4.5538;0.6683;-0.3268;0.0253
0000194599;6.9623;-15.6916;4.7046;0.6865;-0.2972;0.0649
0000194611;7.2999;-15.3995;4.5203;0.7377;-0.2421;0.1071
0000194619;6.8546;-15.2152;4.6136;0.7405;-0.2224;0.1062
0000194630;6.7014;-14.3341;4.9536;0.7342;-0.2058;0.0731
0000194638;6.2848;-14.0061;4.7333;0.6904;-0.2188;0.0278
0000194650;6.3782;-13.5608;5.1715;0.6161;-0.2344;-0.0365
0000194658;6.0861;-13.7978;5.3965;0.5726;-0.2386;-0.0594
0000194669;6.3231;-13.9319;5.4205;0.5201;-0.2278;-0.0577
0000194677;6.5936;-14.2335;5.5210;0.5077;-0.2073;-0.0402
0000194685;6.5817;-14.5879;5.4612;0.4927;-0.1779;-0.0268
0000194697;7.0318;-14.6094;5.7245;0.4908;-0.1267;-0.0230
0000194705;7.2305;-14.6597;5.7700;0.4934;-0.0959;-0.0342
0000194716;7.2065;-14.5424;5.8586;0.4756;-0.0424;-0.0364
0000194724;7.1850;-14.4945;5.8131;0.4475;-0.0024;-0.0310
0000194736;6.6607;-14.4011;5.6551;0.4162;0.0456;-0.0148
0000194744;6.5386;-13.8959;5.8538;0.4053;0.0597;-0.0109
0000194755;5.7581;-13.7188;5.6982;0.3619;0.0416;-0.0322
0000194763;5.5737;-13.5632;5.7102;0.3064;0.0152;-0.0565
0000194775;5.5833;-13.5943;5.9759;0.2610;-0.0556;-0.1156
0000194783;5.5378;-13.8457;5.9544;0.2198;-0.1021;-0.1459
0000194791;5.6527;-14.3963;6.0334;0.1727;-0.1387;-0.1604
0000194858;6.8833;-13.4913;6.1028;0.1462;0.1696;-0.0681
0000194866;6.6367;-13.3453;6.2201;0.0854;0.1993;-0.0782
0000194878;5.7437;-13.7954;6.3015;-0.0119;0.1916;-0.1286
0000194886;5.7844;-13.7810;6.3758;-0.0288;0.1752;-0.1511
0000194897;5.7437;-14.2383;6.5050;-0.0103;0.1528;-0.1731
0000194905;6.0789;-14.2048;6.8019;0.0015;0.1491;-0.1637
0000194917;6.6822;-14.2934;7.1563;0.0265;0.1400;-0.1576
0000194925;6.8115;-14.3077;7.0820;0.0213;0.1528;-0.1364
0000194933;6.8546;-14.4634;7.0844;-0.0330;0.1747;-0.1348
0000194945;6.9456;-14.4538;7.0102;-0.0464;0.1966;-0.1186
0000194953;6.7181;-14.6429;6.5888;-0.1126;0.2090;-0.1126
0000194965;6.4715;-14.2599;6.5769;-0.1392;0.2220;-0.1147
0000194973;6.2560;-14.1354;6.5050;-0.1868;0.2194;-0.1171
0000194985;6.0573;-13.8792;6.3542;-0.2442;0.2182;-0.1222
0000194993;6.0238;-13.4626;6.6559;-0.2670;0.2194;-0.1284
0000195005;6.1914;-13.1346;6.9288;-0.3479;0.2024;-0.1430
0000195013;6.3782;-13.0508;7.0126;-0.4135;0.1951;-0.1652
0000195025;6.2153;-13.4339;7.3191;-0.5291;0.1933;-0.1863
0000195033;6.3111;-13.7044;7.2113;-0.6170;0.1869;-0.2096
0000195041;6.2441;-14.4035;7.0461;-0.6964;0.1943;-0.2140
0000195053;6.0621;-15.2942;6.7014;-0.7553;0.2009;-0.2198
0000195061;6.1292;-15.2894;6.5027;-0.7604;0.2044;-0.2194
0000195129;6.2058;-13.7355;5.3774;-0.9249;0.3672;-0.0458
0000195137;5.9185;-14.1665;5.2864;-0.9839;0.3613;-0.0629
0000195149;5.5522;-14.7507;5.3319;-1.0371;0.3277;-0.0915
0000195157;5.3917;-15.5503;5.3151;-1.0345;0.2971;-0.1005
0000195169;5.5258;-15.9669;4.9991;-1.0094;0.2430;-0.0951
0000195177;5.6216;-16.0100;4.9177;-0.9798;0.2168;-0.0830
0000195189;5.8706;-16.1273;5.1763;-0.9369;0.1816;-0.0445
0000195197;6.0430;-15.9047;5.1356;-0.9112;0.1593;-0.0139
0000195205;6.2632;-15.8424;5.0518;-0.8957;0.1528;0.0132
0000195217;6.0932;-15.7634;4.9464;-0.8771;0.1549;0.0509
0000195225;6.0238;-15.8376;4.9273;-0.8773;0.1591;0.0625
0000195237;5.7581;-15.7706;4.7142;-0.8966;0.1731;0.0641
0000195245;5.7628;-15.6796;4.6400;-0.9152;0.1644;0.0521
0000195257;5.7988;-15.7275;4.2377;-0.9264;0.1721;0.0381
0000195265;5.9233;-15.7754;4.2210;-0.9272;0.1729;0.0224
0000195277;6.0190;-15.6629;4.0199;-0.9226;0.1637;0.0025
0000195285;5.7604;-15.6916;3.8523;-0.9124;0.1454;-0.0199
0000195293;5.8634;-15.6006;3.7302;-0.9080;0.1339;-0.0139
0000195305;5.5665;-15.6006;3.5985;-0.8938;0.1070;-0.0080
0000195313;5.5545;-15.6581;3.5626;-0.8857;0.0805;-0.0139
0000195325;5.7126;-15.5049;3.3662;-0.8625;0.0397;-0.0051
0000195333;5.7102;-15.5192;3.2010;-0.8436;0.0112;-0.0013
0000195401;6.3303;-15.7323;2.9113;-0.7939;0.0200;-0.0075
0000195409;6.1483;-15.8233;2.8730;-0.7882;0.0304;-0.0047
0000195421;6.1723;-15.9310;2.8299;-0.7737;0.0601;-0.0065
0000195429;6.0238;-16.0412;2.8802;-0.7637;0.0649;-0.0059
0000195441;6.0908;-15.8592;2.7869;-0.7462;0.0699;0.0033
0000195449;5.9448;-15.9861;2.6001;-0.7376;0.0741;0.0011
0000195457;5.9975;-16.0747;2.5307;-0.7298;0.0670;-0.0048
0000195469;5.8873;-16.0316;2.5953;-0.7245;0.0717;0.0069
0000195477;5.8706;-16.0627;2.5379;-0.7193;0.0613;0.0001
0000195489;6.0478;-16.0747;2.2003;-0.7151;0.0671;-0.0020
0000195497;6.0478;-16.1297;2.2649;-0.7104;0.0654;0.0028
0000195509;5.9783;-16.2518;2.2553;-0.6983;0.0458;0.0115
0000195517;5.8610;-16.3189;2.2984;-0.6855;0.0278;0.0116
0000195529;5.9903;-16.3452;2.1356;-0.6599;0.0148;0.0254
0000195537;5.8490;-16.4410;2.1668;-0.6411;0.0051;0.0229
0000195545;5.8969;-16.3668;2.0949;-0.6133;-0.0136;0.0266
0000195557;5.6743;-16.3979;2.0183;-0.5812;-0.0280;0.0288
0000195565;5.8466;-16.2494;1.9872;-0.5684;-0.0338;0.0349
0000195577;5.9783;-15.9693;1.8579;-0.5556;-0.0436;0.0436
0000195585;5.7078;-16.1465;1.8100;-0.5522;-0.0421;0.0374
0000195624;5.8849;-16.1082;1.4724;-0.5143;-0.0428;0.0521
0000195632;6.0023;-16.0268;1.4198;-0.5073;-0.0460;0.0462
0000195700;5.8131;-16.1130;1.1827;-0.4660;-0.0145;0.0821
0000195708;5.8514;-16.1513;1.2186;-0.4513;-0.0167;0.0777
0000195719;5.9711;-16.2327;1.0870;-0.4389;-0.0152;0.0847
0000195727;5.9999;-16.0675;1.0918;-0.4345;-0.0127;0.0838
0000195735;5.8778;-16.2614;1.0942;-0.4178;-0.0128;0.0834
0000195747;5.9879;-16.1920;1.0080;-0.3980;-0.0155;0.0894
0000195755;5.9280;-16.1896;1.0487;-0.3873;-0.0007;0.0981
0000195767;5.8203;-16.1321;0.9074;-0.3762;0.0091;0.0973
0000195775;5.8442;-16.0483;0.8619;-0.3712;-0.0028;0.0923
0000195787;5.5306;-16.1944;0.8595;-0.3657;0.0003;0.0817
0000195795;5.6599;-16.0723;0.7326;-0.3632;0.0032;0.0774
0000195807;5.7317;-16.1202;0.7805;-0.3665;0.0032;0.0678
0000195815;5.7389;-16.1561;0.7183;-0.3596;0.0027;0.0600
0000195823;5.6288;-16.2734;0.7973;-0.3581;0.0079;0.0604
0000195835;5.9735;-16.0842;0.7949;-0.3456;0.0079;0.0683
0000195843;5.7197;-16.3261;0.7661;-0.3305;0.0092;0.0695
0000195855;5.8083;-16.1489;0.6800;-0.3168;0.0149;0.0794
0000195863;5.8610;-16.0100;0.7159;-0.3087;0.0175;0.0890
0000195875;5.9448;-15.9502;0.6369;-0.2992;0.0228;0.0929
0000195883;5.7772;-16.0244;0.6608;-0.3016;0.0252;0.0961
0000195895;5.6431;-16.1393;0.5722;-0.3060;0.0297;0.0930
0000195903;5.5857;-16.1824;0.6584;-0.3002;0.0317;0.0951
0000195911;5.5545;-16.3237;0.6488;-0.2916;0.0297;0.0874
0000195980;5.5162;-16.2447;0.3711;-0.2025;0.0234;0.0734
0000195989;5.5593;-16.2471;0.4022;-0.1953;0.0133;0.0596
0000196002;5.6192;-16.2758;0.3807;-0.1808;0.0109;0.0545
0000196011;5.6168;-16.2423;0.4070;-0.1720;0.0149;0.0541
0000196024;5.4684;-16.2638;0.3136;-0.1466;0.0089;0.0560
0000196033;5.5737;-16.0388;0.4310;-0.1383;0.0031;0.0637
0000196046;5.6288;-15.8568;0.3065;-0.1302;-0.0115;0.0658
0000196055;5.4109;-16.0364;0.2634;-0.1356;-0.0193;0.0670
0000196064;5.5952;-16.0651;0.2945;-0.1432;-0.0149;0.0727
0000196077;5.6982;-16.0507;0.2394;-0.1398;-0.0104;0.0652
0000196086;5.6000;-16.2016;0.2849;-0.1296;-0.0140;0.0609
0000196099;5.5593;-16.0866;0.1341;-0.1240;-0.0144;0.0558
0000196108;5.3606;-16.2040;0.2179;-0.1135;-0.0237;0.0556
0000196121;5.2265;-16.3021;0.2610;-0.1001;-0.0305;0.0609
0000196130;5.3415;-16.2686;0.2538;-0.0894;-0.0454;0.0564
0000196143;5.3822;-16.1800;0.2729;-0.0863;-0.0432;0.0584
0000196152;5.3343;-16.1465;0.1772;-0.0861;-0.0496;0.0537
0000196165;5.5498;-16.0412;0.1700;-0.0789;-0.0504;0.0489
0000196174;5.6383;-16.1345;0.1796;-0.0818;-0.0377;0.0533
0000196183;5.5498;-16.0771;0.2179;-0.0755;-0.0341;0.0469
0000196196;5.4971;-16.1106;0.2346;-0.0705;-0.0149;0.0452
0000196205;5.5306;-16.0771;0.2562;-0.0580;-0.0157;0.0385
0000196274;5.2098;-16.1537;0.3184;-0.0405;-0.0268;0.0224
0000196283;5.1834;-16.0747;0.3017;-0.0325;-0.0388;0.0181
0000196296;5.1164;-16.2566;0.2705;-0.0222;-0.0537;0.0157
0000196305;5.0135;-16.1800;0.2442;-0.0241;-0.0584;0.0250
0000196318;5.2457;-16.1130;0.2059;-0.0189;-0.0709;0.0256
0000196327;5.0781;-16.0938;0.2586;-0.0060;-0.0823;0.0191
0000196340;5.2433;-16.0412;0.2969;-0.0112;-0.0945;0.0184
0000196349;5.2816;-15.9741;0.2945;-0.0199;-0.0885;0.0221
0000196358;5.1906;-15.9167;0.1700;-0.0203;-0.0958;0.0147
0000196371;5.1475;-16.1441;0.1867;-0.0321;-0.0910;0.0163
0000196380;5.2625;-16.1154;0.2538;-0.0274;-0.0917;0.0163
0000196396;5.3702;-15.9717;0.2634;-0.0312;-0.0886;0.0181
0000196405;5.4588;-15.9095;0.2155;-0.0345;-0.0819;0.0209
0000196418;5.4612;-16.0172;0.3065;-0.0354;-0.0807;0.0199
0000196427;5.4133;-15.9358;0.2729;-0.0438;-0.0785;0.0217
0000196439;5.3654;-16.0005;0.2729;-0.0485;-0.0779;0.0211
0000196448;5.3463;-15.9382;0.2945;-0.0448;-0.0807;0.0136
0000196516;5.3343;-16.0076;0.2155;-0.0272;-0.0859;0.0181
0000196525;5.3846;-16.0603;0.2107;-0.0181;-0.0929;0.0117
0000196534;5.2672;-16.0914;0.2203;-0.0176;-0.0886;0.0196
0000196546;5.2625;-16.1369;0.2945;-0.0111;-0.0931;0.0155
0000196555;5.4875;-16.0268;0.2993;-0.0156;-0.0861;0.0232
0000196568;5.3463;-16.0196;0.2993;-0.0161;-0.0795;0.0228
0000196577;5.3941;-16.0148;0.2825;-0.0136;-0.0739;0.0197
0000196589;5.3367;-16.0651;0.2562;-0.0076;-0.0737;0.0156
0000196598;5.4181;-16.1561;0.2107;0.0017;-0.0746;0.0133
0000196611;5.2840;-16.0795;0.2490;-0.0072;-0.0663;0.0152
0000196620;5.4277;-15.9238;0.2849;0.0028;-0.0695;0.0095
0000196632;5.3486;-16.0316;0.3112;0.0011;-0.0634;0.0151
0000196641;5.3391;-16.0507;0.2658;0.0015;-0.0576;0.0245
0000196650;5.4923;-16.0172;0.2777;0.0069;-0.0570;0.0209
0000196663;5.2457;-16.0172;0.2993;-0.0069;-0.0468;0.0290
0000196672;5.4157;-15.9741;0.2586;-0.0003;-0.0510;0.0266
0000196684;5.3343;-15.8448;0.2298;-0.0120;-0.0424;0.0317
0000196693;5.4253;-15.9813;0.1724;-0.0165;-0.0413;0.0265
0000196706;5.1787;-16.0986;0.2418;-0.0140;-0.0328;0.0199
0000196715;5.2122;-16.1848;0.1628;-0.0104;-0.0344;0.0153
0000196744;5.1978;-16.1992;0.2274;0.0196;-0.0329;0.0068
0000196753;5.1356;-16.1728;0.2370;0.0163;-0.0257;0.0139
0000196762;5.2864;-16.0579;0.2059;0.0265;-0.0310;0.0053
0000196831;5.3079;-15.9502;0.3112;0.0149;-0.0244;-0.0048
0000196840;5.2098;-16.0914;0.3328;0.0128;-0.0147;0.0005
0000196852;5.2265;-16.0962;0.3950;0.0217;-0.0242;-0.0128
0000196861;5.2912;-15.9334;0.2705;0.0192;-0.0245;-0.0112
0000196874;5.0853;-16.1178;0.3256;0.0264;-0.0253;-0.0093
0000196883;5.1140;-15.9502;0.3089;0.0309;-0.0304;-0.0161
0000196895;5.2816;-15.9717;0.2682;0.0372;-0.0364;-0.0205
0000196904;5.1595;-16.1082;0.3687;0.0405;-0.0284;-0.0140
0000196917;5.1906;-16.0388;0.3472;0.0456;-0.0293;-0.0203
0000196926;5.2098;-16.0459;0.3424;0.0516;-0.0316;-0.0296
0000196935;5.2768;-15.9119;0.4477;0.0470;-0.0300;-0.0344
0000196947;5.3798;-15.9454;0.2897;0.0444;-0.0273;-0.0353
0000196956;5.1523;-16.0531;0.3017;0.0473;-0.0226;-0.0377
0000196969;5.3175;-16.1202;0.3256;0.0460;-0.0233;-0.0389
0000196978;5.2553;-16.0268;0.3591;0.0410;-0.0131;-0.0341
0000196990;5.3750;-15.8927;0.3376;0.0425;-0.0124;-0.0345
0000196999;5.1044;-16.1273;0.3304;0.0390;-0.0121;-0.0370
0000197012;5.1427;-16.1369;0.3687;0.0437;-0.0169;-0.0380
0000197021;5.1092;-16.0124;0.4501;0.0469;-0.0262;-0.0434
0000197030;5.2792;-16.0914;0.3232;0.0524;-0.0301;-0.0433
0000197042;5.1643;-15.9669;0.3519;0.0554;-0.0293;-0.0441
0000197051;5.2050;-16.0364;0.4070;0.0609;-0.0348;-0.0434
0000197118;5.1404;-16.0866;0.3950;0.0727;-0.0446;-0.0442
0000197127;5.2433;-16.0100;0.4788;0.0721;-0.0484;-0.0501
0000197139;5.2625;-15.9621;0.4381;0.0661;-0.0412;-0.0497
0000197148;5.2457;-16.0364;0.5124;0.0630;-0.0434;-0.0478
0000197161;5.2289;-16.0723;0.5459;0.0614;-0.0368;-0.0421
0000197170;5.3151;-16.1082;0.5794;0.0666;-0.0384;-0.0422
0000197182;5.3486;-16.1321;0.5483;0.0671;-0.0360;-0.0441
0000197191;5.4660;-15.8233;0.6177;0.0610;-0.0273;-0.0361
0000197200;5.2936;-16.0028;0.5914;0.0640;-0.0294;-0.0420
0000197213;5.3056;-15.9119;0.4836;0.0501;-0.0208;-0.0337
0000197222;5.4061;-15.8664;0.5890;0.0490;-0.0301;-0.0428
0000197234;5.4468;-15.9382;0.5483;0.0368;-0.0326;-0.0378
0000197243;5.2098;-16.1609;0.6345;0.0269;-0.0197;-0.0278
0000197256;5.4229;-15.9526;0.6416;0.0228;-0.0236;-0.0284
0000197265;5.2936;-15.9861;0.5507;0.0208;-0.0297;-0.0258
0000197277;5.3391;-15.8664;0.5339;0.0217;-0.0281;-0.0183
0000197286;5.2553;-15.9406;0.5578;0.0203;-0.0272;-0.0270
0000197299;5.2218;-16.2016;0.6081;0.0225;-0.0253;-0.0244
0000197308;5.5282;-15.9071;0.5555;0.0286;-0.0306;-0.0262
0000197317;5.2074;-16.1058;0.6201;0.0332;-0.0312;-0.0286
0000197329;5.3295;-16.0028;0.5914;0.0378;-0.0304;-0.0353
0000197338;5.2768;-15.9885;0.5267;0.0284;-0.0237;-0.0236
0000197407;5.1284;-16.1824;0.6632;0.0140;-0.0313;-0.0200
0000197416;5.2481;-16.0364;0.6297;0.0160;-0.0318;-0.0241
0000197428;5.3032;-16.0005;0.6895;0.0101;-0.0290;-0.0205
0000197437;5.3822;-15.9837;0.6177;0.0068;-0.0292;-0.0211
0000197450;5.2696;-16.0747;0.6105;0.0099;-0.0302;-0.0242
0000197459;5.2194;-16.0723;0.6393;0.0172;-0.0421;-0.0273
0000197471;5.3127;-15.9693;0.6369;0.0168;-0.0442;-0.0276
0000197480;5.3606;-15.9190;0.6416;0.0203;-0.0445;-0.0254
0000197489;5.2936;-16.0699;0.6129;0.0087;-0.0388;-0.0163
0000197502;5.2672;-16.1393;0.6536;0.0115;-0.0428;-0.0159
0000197511;5.3822;-15.9909;0.5411;0.0084;-0.0465;-0.0209
0000197523;5.2744;-16.0579;0.6393;0.0067;-0.0465;-0.0224
0000197532;5.2792;-16.0747;0.6057;0.0049;-0.0394;-0.0161
0000197545;5.3917;-16.0076;0.6033;0.0065;-0.0417;-0.0172
0000197554;5.2744;-16.0172;0.7207;0.0056;-0.0408;-0.0145
0000197566;5.3032;-15.9550;0.6129;-0.0007;-0.0388;-0.0176
0000197575;5.2720;-15.9430;0.6440;-0.0095;-0.0374;-0.0085
0000197588;5.2146;-16.0100;0.5938;-0.0179;-0.0324;-0.0096
0000197597;5.4061;-15.9597;0.6297;-0.0285;-0.0277;-0.0068
0000197606;5.3654;-15.9957;0.6967;-0.0270;-0.0336;-0.0099
0000197618;5.4372;-15.8640;0.7183;-0.0282;-0.0322;-0.0113
0000197627;5.2601;-16.0531;0.7638;-0.0373;-0.0332;-0.0025
0000197696;5.3798;-16.0914;0.6081;-0.0413;-0.0246;-0.0001
0000197705;5.3247;-16.0555;0.6129;-0.0389;-0.0282;-0.0085
0000197717;5.2098;-15.9885;0.6009;-0.0429;-0.0316;-0.0041
0000197726;5.3750;-15.9406;0.6536;-0.0500;-0.0280;0.0019
0000197739;5.4779;-15.8664;0.6249;-0.0546;-0.0246;0.0043
0000197748;5.2960;-16.0244;0.5626;-0.0514;-0.0273;0.0004
0000197760;5.2385;-16.1609;0.6369;-0.0550;-0.0188;0.0059
0000197769;5.3846;-15.9071;0.5483;-0.0518;-0.0262;-0.0001
0000197782;5.4181;-16.0364;0.4980;-0.0460;-0.0282;0.0015
0000197791;5.2026;-16.0196;0.5818;-0.0441;-0.0286;-0.0015
0000197800;5.2936;-16.0842;0.7087;-0.0352;-0.0338;-0.0045
0000197812;5.3175;-15.8424;0.5507;-0.0413;-0.0346;-0.0037
0000197821;5.4540;-15.8472;0.6225;-0.0454;-0.0293;-0.0052
0000197834;5.3151;-16.0364;0.6201;-0.0518;-0.0248;-0.0016
0000197843;5.3271;-15.9454;0.4884;-0.0649;-0.0197;0.0065
0000197854;5.3726;-16.0052;0.5387;-0.0634;-0.0200;0.0095
0000197863;5.2481;-16.1656;0.6033;-0.0640;-0.0201;0.0035
0000197877;5.3534;-15.9981;0.5387;-0.0584;-0.0220;0.0064
0000197886;5.2146;-16.0268;0.5100;-0.0588;-0.0203;0.0065
0000197899;5.1547;-16.1417;0.5435;-0.0556;-0.0233;0.0048
0000197908;5.3726;-16.0052;0.4621;-0.0517;-0.0284;-0.0035
0000197917;5.1739;-16.0771;0.4357;-0.0597;-0.0221;0.0001
0000197986;5.1380;-16.0675;0.5195;-0.0320;-0.0440;0.0041
0000197995;5.2385;-15.9526;0.5195;-0.0390;-0.0426;0.0056
0000198008;5.3630;-15.8999;0.4214;-0.0400;-0.0492;0.0101
0000198017;5.2194;-15.9238;0.4764;-0.0402;-0.0558;0.0144
0000198029;5.1978;-15.9741;0.6177;-0.0385;-0.0572;0.0183
0000198038;5.5857;-15.8688;0.4932;-0.0417;-0.0580;0.0131
0000198051;5.1787;-16.1537;0.5698;-0.0349;-0.0634;0.0147
0000198060;5.3558;-16.0316;0.5626;-0.0360;-0.0569;0.0173
0000198072;5.3032;-16.0388;0.5578;-0.0304;-0.0632;0.0129
0000198081;5.2912;-16.0819;0.5171;-0.0218;-0.0629;0.0139
0000198090;5.2170;-16.1178;0.5818;-0.0233;-0.0550;0.0192
0000198103;5.4971;-15.7586;0.6297;-0.0195;-0.0514;0.0189
0000198112;5.3415;-16.0220;0.5746;-0.0185;-0.0430;0.0230
0000198124;5.2050;-16.0890;0.5004;-0.0164;-0.0386;0.0160
0000198133;5.3534;-15.9957;0.6177;-0.0153;-0.0348;0.0116
0000198146;5.2672;-15.9574;0.5674;-0.0135;-0.0317;0.0021
0000198155;5.2936;-16.0292;0.5315;-0.0157;-0.0254;0.0059
0000198167;5.3367;-15.9262;0.5722;-0.0161;-0.0207;0.0132
0000198176;5.2433;-15.8400;0.5052;-0.0116;-0.0282;0.0057
0000198189;5.3127;-15.9957;0.4645;-0.0167;-0.0218;0.0119
0000198198;5.1404;-16.1010;0.4884;-0.0196;-0.0155;0.0071
0000198207;5.2026;-16.0340;0.4453;-0.0199;-0.0135;0.0080
0000198276;5.0039;-16.1704;0.4142;-0.0104;-0.0129;-0.0065
0000198285;4.8937;-16.3069;0.4525;-0.0199;-0.0065;-0.0044
0000198298;5.2529;-15.9861;0.4214;-0.0192;-0.0127;-0.0080
0000198307;5.2744;-16.0100;0.4286;-0.0127;-0.0172;-0.0209
0000198319;5.3008;-15.9789;0.3543;-0.0107;-0.0171;-0.0220
0000198328;5.1978;-16.0459;0.3711;-0.0100;-0.0193;-0.0256
0000198341;5.0973;-16.0603;0.3926;-0.0048;-0.0172;-0.0208
0000198350;5.0925;-16.1656;0.5459;0.0003;-0.0164;-0.0173
0000198362;5.1523;-16.1513;0.4693;0.0067;-0.0165;-0.0188
0000198371;5.1308;-16.1968;0.5004;0.0091;-0.0100;-0.0180
0000198380;5.4253;-15.9765;0.3472;0.0176;-0.0145;-0.0205
0000198393;5.3008;-16.2064;0.4717;0.0252;-0.0092;-0.0294
0000198402;5.1404;-16.1609;0.4022;0.0261;-0.0077;-0.0304
0000198414;5.3056;-16.0603;0.5195;0.0345;-0.0096;-0.0338
0000198423;5.1643;-16.1728;0.5459;0.0392;-0.0088;-0.0340
0000198436;5.3606;-16.0675;0.5339;0.0444;-0.0131;-0.0380
0000198445;5.1763;-16.1609;0.5962;0.0472;-0.0012;-0.0332
0000198457;5.2936;-16.0555;0.6273;0.0522;-0.0056;-0.0414
0000198466;5.3654;-15.9310;0.5100;0.0521;-0.0035;-0.0390
0000198479;5.4995;-15.9813;0.5052;0.0444;0.0011;-0.0382
0000198488;5.1332;-15.9909;0.5004;0.0413;0.0009;-0.0380
0000198497;5.2146;-15.9813;0.6105;0.0392;-0.0037;-0.0413
0000198566;5.2170;-15.8448;0.5866;0.0063;-0.0298;-0.0476
0000198575;5.2840;-15.8161;0.6393;-0.0008;-0.0218;-0.0396
0000198588;5.2433;-16.0890;0.6033;0.0032;-0.0189;-0.0349
0000198597;5.3534;-16.1585;0.5770;0.0185;-0.0208;-0.0381
0000198609;5.2170;-16.2255;0.6608;0.0266;-0.0253;-0.0296
0000198618;5.2194;-16.0914;0.5387;0.0298;-0.0294;-0.0284
0000198631;4.9967;-16.2566;0.6464;0.0408;-0.0456;-0.0318
0000198640;5.1212;-16.0412;0.6129;0.0418;-0.0473;-0.0297
0000198652;5.1619;-15.9478;0.5674;0.0457;-0.0662;-0.0438
0000198661;5.3056;-15.8113;0.7111;0.0330;-0.0594;-0.0385
0000198670;5.2457;-15.7730;0.6129;0.0298;-0.0642;-0.0433
0000198683;5.3151;-15.8065;0.6273;0.0159;-0.0630;-0.0417
0000198692;5.4444;-15.7443;0.6584;0.0036;-0.0534;-0.0286
0000198704;5.4229;-15.9310;0.6967;0.0044;-0.0544;-0.0285
0000198713;5.2361;-16.1297;0.7087;0.0055;-0.0520;-0.0353
0000198726;5.4229;-16.0795;0.6967;0.0099;-0.0480;-0.0296
0000198735;5.3127;-16.3045;0.8068;0.0237;-0.0534;-0.0334
0000198747;5.3510;-16.1752;0.7638;0.0273;-0.0520;-0.0278
0000198756;5.1547;-16.2447;0.6440;0.0420;-0.0548;-0.0322
0000198765;5.3079;-16.0340;0.6321;0.0428;-0.0558;-0.0298
0000198778;5.4779;-15.9526;0.6536;0.0461;-0.0608;-0.0338
0000198787;5.3199;-15.8305;0.6536;0.0521;-0.0669;-0.0450
0000198857;5.4851;-15.7945;0.6225;0.0410;-0.0277;-0.0321
0000198866;5.2170;-15.9717;0.7494;0.0381;-0.0281;-0.0354
0000198879;5.3439;-15.9621;0.7733;0.0270;-0.0240;-0.0266
0000198888;5.3056;-15.9190;0.7470;0.0264;-0.0294;-0.0305
0000198900;5.3247;-16.0483;0.7207;0.0281;-0.0308;-0.0330
0000198909;5.1356;-16.0747;0.6536;0.0209;-0.0260;-0.0294
0000198922;5.2768;-15.9645;0.7230;0.0270;-0.0326;-0.0316
0000198931;5.3079;-15.9645;0.7207;0.0192;-0.0369;-0.0298
0000198940;5.0877;-16.1465;0.7015;0.0256;-0.0377;-0.0308
0000198952;5.2696;-16.0124;0.7278;0.0261;-0.0365;-0.0313
0000198961;5.4348;-15.9669;0.6728;0.0242;-0.0329;-0.0261
0000198974;5.1811;-16.0795;0.6943;0.0203;-0.0300;-0.0234
0000198983;5.3391;-16.1896;0.7087;0.0298;-0.0382;-0.0265
0000198995;5.3463;-16.0052;0.7614;0.0217;-0.0366;-0.0237
0000199004;5.3486;-15.9047;0.7350;0.0171;-0.0340;-0.0213
0000199017;5.3151;-15.9430;0.6656;0.0209;-0.0349;-0.0230
0000199026;5.2984;-16.0723;0.7470;0.0160;-0.0329;-0.0242
0000199038;5.4636;-15.8089;0.7518;0.0135;-0.0380;-0.0274
0000199047;5.3606;-15.9909;0.7470;0.0157;-0.0360;-0.0238
0000199056;5.2313;-16.0076;0.7805;0.0181;-0.0398;-0.0282
0000199069;5.4205;-15.9406;0.8380;0.0159;-0.0385;-0.0274
0000199078;5.2792;-16.0100;0.8380;0.0161;-0.0417;-0.0284
0000199147;5.2265;-16.1441;0.9026;0.0035;-0.0280;-0.0216
0000199154;5.5043;-15.9190;0.7853;0.0048;-0.0282;-0.0250
0000199166;5.3463;-16.0579;0.8140;0.0076;-0.0274;-0.0244
0000199174;5.3343;-16.1417;0.8763;0.0100;-0.0294;-0.0241
0000199185;5.4205;-15.9885;0.8475;0.0179;-0.0361;-0.0240
0000199193;5.4420;-15.8879;0.8356;0.0153;-0.0314;-0.0248
0000199205;5.3175;-15.9143;0.7709;0.0152;-0.0316;-0.0244
0000199213;5.4109;-16.0005;0.7925;0.0159;-0.0348;-0.0289
0000199221;5.4157;-15.8616;0.7374;0.0084;-0.0270;-0.0260
0000199232;5.3032;-16.0196;0.8380;0.0023;-0.0304;-0.0220
0000199240;5.4372;-15.9813;0.8954;-0.0089;-0.0273;-0.0167
0000199252;5.3798;-16.0100;0.8045;-0.0163;-0.0236;-0.0141
0000199260;5.4875;-15.9789;0.8643;-0.0117;-0.0270;-0.0226
0000199271;5.3463;-15.9717;0.9050;-0.0075;-0.0280;-0.0157
0000199279;5.2912;-15.9789;0.7781;-0.0064;-0.0264;-0.0143
0000199292;5.2026;-15.9813;0.8499;-0.0099;-0.0360;-0.0163
0000199300;5.2864;-16.0244;0.8164;-0.0179;-0.0266;-0.0139
0000199312;5.3151;-16.0699;0.8140;-0.0169;-0.0329;-0.0165
0000199320;5.4324;-15.9190;0.8499;-0.0143;-0.0285;-0.0151
0000199328;5.4588;-15.8568;0.7685;-0.0128;-0.0344;-0.0101
0000199339;5.4803;-15.9741;0.8140;-0.0045;-0.0334;-0.0187
0000199347;5.4708;-16.0364;0.7470;-0.0059;-0.0278;-0.0139
0000199415;5.4444;-15.9717;0.9026;-0.0238;-0.0258;-0.0127
0000199423;5.3870;-15.9693;0.7733;-0.0213;-0.0262;-0.0141
0000199434;5.4109;-15.9693;0.8787;-0.0143;-0.0360;-0.0211
0000199442;5.4324;-16.0076;0.8428;-0.0164;-0.0270;-0.0109
0000199454;5.2553;-16.0316;0.8739;-0.0135;-0.0325;-0.0161
0000199462;5.5138;-15.7826;0.7638;-0.0073;-0.0320;-0.0156
0000199473;5.4348;-15.9047;0.7326;-0.0156;-0.0324;-0.0169
0000199481;5.3606;-15.9526;0.8882;-0.0148;-0.0318;-0.0185
0000199493;5.1739;-16.0771;0.8811;-0.0132;-0.0344;-0.0169
0000199501;5.4588;-15.9334;0.9313;-0.0221;-0.0306;-0.0081
0000199509;5.4660;-15.8688;0.8499;-0.0217;-0.0302;-0.0109
0000199520;5.3917;-15.9071;0.8475;-0.0217;-0.0306;-0.0121
0000199528;5.4923;-15.9502;0.8571;-0.0273;-0.0234;-0.0060
0000199540;5.3127;-16.0842;0.8619;-0.0276;-0.0256;-0.0105
0000199548;5.3534;-16.0962;0.8691;-0.0329;-0.0281;-0.0105
0000199559;5.5186;-15.9406;0.7997;-0.0302;-0.0265;-0.0088
0000199567;5.3558;-16.0052;0.8523;-0.0229;-0.0318;-0.0165
0000199579;5.4300;-15.9382;0.7901;-0.0273;-0.0317;-0.0160
0000199587;5.4372;-15.9119;0.8092;-0.0261;-0.0308;-0.0125
0000199598;5.4636;-15.8664;0.7901;-0.0286;-0.0372;-0.0144
0000199606;5.4492;-16.0795;0.7709;-0.0329;-0.0284;-0.0056
0000199674;5.5282;-15.8352;0.8260;-0.0207;-0.0256;-0.0032
0000199682;5.3965;-15.9813;0.7661;-0.0228;-0.0208;-0.0012
0000199690;5.3343;-16.1345;0.8619;-0.0185;-0.0297;-0.0071
0000199701;5.4731;-15.9693;0.7805;-0.0107;-0.0254;-0.0015
0000199709;5.3415;-16.0388;0.7733;-0.0059;-0.0266;-0.0044
0000199721;5.4755;-16.0052;0.7973;0.0017;-0.0322;-0.0039
0000199729;5.3534;-16.1178;0.7470;0.0069;-0.0409;-0.0092
0000199740;5.2888;-16.1609;0.8045;0.0157;-0.0462;-0.0084
0000199748;5.2601;-16.0459;0.7949;0.0107;-0.0465;-0.0040
0000199760;5.4540;-15.9310;0.7087;0.0168;-0.0437;-0.0065
0000199768;5.3510;-16.0866;0.8547;0.0189;-0.0457;-0.0120
0000199779;5.5138;-15.8640;0.7901;0.0131;-0.0440;-0.0083
0000199787;5.3486;-16.0388;0.6919;0.0139;-0.0449;-0.0075
0000199795;5.3534;-15.9933;0.7925;0.0140;-0.0416;-0.0088
0000199807;5.3822;-16.1082;0.7661;0.0131;-0.0372;-0.0139
0000199815;5.3678;-15.9214;0.7039;0.0155;-0.0408;-0.0131
0000199826;5.3391;-15.9909;0.7230;0.0156;-0.0364;-0.0141
0000199834;5.3870;-16.0795;0.7039;0.0083;-0.0330;-0.0139
0000199846;5.2912;-16.1321;0.7230;0.0211;-0.0404;-0.0285
0000199854;5.2984;-16.1345;0.6393;0.0237;-0.0409;-0.0222
0000199865;5.1691;-16.2111;0.8068;0.0265;-0.0437;-0.0253
0000199873;5.3726;-16.2423;0.7111;0.0324;-0.0469;-0.0246
0000199941;5.3989;-15.9669;0.8404;0.0334;-0.0376;-0.0328
0000199949;5.3343;-16.0459;0.8475;0.0386;-0.0386;-0.0408
0000199957;5.3056;-16.0100;0.8547;0.0370;-0.0348;-0.0354
0000199968;5.4085;-15.8424;0.6943;0.0450;-0.0400;-0.0416
0000199976;5.3510;-15.8999;0.7374;0.0336;-0.0386;-0.0346
0000199988;5.5402;-15.8113;0.8787;0.0349;-0.0424;-0.0366
0000199996;5.2146;-16.0938;0.8188;0.0389;-0.0486;-0.0377
0000200007;5.3630;-16.0914;0.9337;0.0442;-0.0464;-0.0389
0000200015;5.3774;-16.0364;0.9625;0.0405;-0.0445;-0.0308
0000200027;5.3463;-16.0819;0.9026;0.0469;-0.0492;-0.0349
0000200035;5.3654;-16.1273;0.9409;0.0468;-0.0504;-0.0305
0000200046;5.3463;-16.0914;1.0199;0.0501;-0.0537;-0.0312
0000200054;5.5474;-15.9957;1.0343;0.0492;-0.0541;-0.0282
0000200062;5.4899;-16.1585;1.0582;0.0498;-0.0532;-0.0282
0000200074;5.3343;-16.0675;1.0127;0.0602;-0.0634;-0.0381
0000200082;5.3917;-15.9885;1.0199;0.0654;-0.0600;-0.0300
0000200093;5.5091;-16.1273;1.0654;0.0835;-0.0602;-0.0389
0000200101;5.4995;-16.2016;1.0032;0.0982;-0.0628;-0.0456
0000200113;5.5091;-16.0364;1.0343;0.1140;-0.0596;-0.0529
0000200121;5.4133;-15.9981;1.0080;0.1224;-0.0670;-0.0630
0000200132;5.5402;-16.0459;0.9792;0.1272;-0.0685;-0.0601
0000200140;5.2313;-16.3021;1.0247;0.1367;-0.0682;-0.0625
0000200208;5.4875;-15.9885;1.0439;0.1204;-0.0452;-0.0726
0000200216;5.5450;-15.7969;0.9290;0.1135;-0.0394;-0.0658
0000200224;5.4731;-15.8448;0.9625;0.0969;-0.0300;-0.0606
0000200235;5.4923;-15.8017;0.9601;0.0959;-0.0345;-0.0721
0000200243;5.4372;-15.9669;1.0223;0.0850;-0.0248;-0.0653
0000200255;5.5258;-15.9095;0.9792;0.0725;-0.0173;-0.0693
0000200263;5.4588;-15.8305;0.9936;0.0681;-0.0167;-0.0751
0000200274;5.4468;-15.8089;0.9936;0.0524;-0.0123;-0.0715
0000200282;5.4492;-15.9214;1.0822;0.0492;-0.0208;-0.0743
0000200294;5.6767;-15.8999;1.0774;0.0442;-0.0199;-0.0746
0000200302;5.4947;-16.0651;1.0702;0.0362;-0.0195;-0.0658
0000200313;5.6000;-16.0627;1.1612;0.0432;-0.0276;-0.0670
0000200321;5.6360;-15.9597;1.1013;0.0440;-0.0332;-0.0689
0000200329;5.3582;-16.1106;1.1827;0.0444;-0.0277;-0.0608
0000200341;5.5282;-15.9502;1.2713;0.0469;-0.0256;-0.0610
0000200349;5.5426;-15.8975;1.1779;0.0478;-0.0333;-0.0600
0000200360;5.6264;-15.8927;1.3168;0.0504;-0.0288;-0.0614
0000200368;5.6838;-15.9262;1.3479;0.0448;-0.0244;-0.0572
0000200380;5.6192;-15.8855;1.3527;0.0478;-0.0294;-0.0632
0000200388;5.6383;-16.0196;1.4006;0.0461;-0.0229;-0.0537
0000200399;5.6336;-15.8903;1.4485;0.0506;-0.0254;-0.0504
0000200407;5.7317;-16.0507;1.4246;0.0522;-0.0260;-0.0514
