time;acc_x;acc_y;acc_z;gyro_x;gyro_y;gyro_z
0000153635;-3.2609;-6.6128;2.3128;0.0354;-0.0393;-0.0191
0000153644;-3.3160;-6.6295;2.2027;0.0364;-0.0360;-0.0286
0000153651;-3.2753;-6.6104;2.2218;0.0378;-0.0309;-0.0305
0000153659;-3.0191;-6.3829;2.2338;0.0314;-0.0207;-0.0261
0000153725;-3.2058;-6.3997;2.3391;0.0065;-0.0229;-0.0276
0000153733;-3.2394;-6.5434;2.2003;0.0053;-0.0204;-0.0284
0000153745;-3.1699;-6.4093;2.3391;0.0017;-0.0129;-0.0260
0000153753;-2.8826;-6.3542;2.2338;-0.0037;-0.0312;-0.0370
0000153761;-3.1987;-6.5170;2.3415;-0.0072;-0.0033;-0.0304
0000153772;-3.1771;-6.3710;2.2314;-0.0004;-0.0128;-0.0278
0000153780;-3.5410;-6.6319;2.2625;-0.0044;-0.0164;-0.0242
0000153793;-3.2657;-6.5577;2.2266;0.0039;-0.0242;-0.0376
0000153800;-3.2944;-6.5721;2.3870;0.0052;-0.0285;-0.0356
0000153811;-3.3016;-6.5098;2.3679;0.0011;-0.0250;-0.0302
0000153819;-3.3279;-6.4859;2.2769;-0.0017;-0.0218;-0.0290
0000153831;-3.2657;-6.4667;2.3631;0.0009;-0.0302;-0.0337
0000153839;-3.1484;-6.2991;2.3272;-0.0003;-0.0321;-0.0293
0000153850;-3.2729;-6.4260;2.2745;0.0001;-0.0281;-0.0370
0000153858;-3.3686;-6.5697;2.3176;-0.0001;-0.0232;-0.0249
0000153870;-3.2537;-6.3782;2.3128;-0.0028;-0.0372;-0.0266
0000153878;-3.2561;-6.4691;2.4062;0.0027;-0.0472;-0.0265
0000153886;-3.2513;-6.4236;2.4205;0.0103;-0.0366;-0.0352
0000153897;-3.1268;-6.3853;2.3439;0.0278;-0.0434;-0.0281
0000153905;-3.1316;-6.4955;2.3511;0.0353;-0.0366;-0.0234
0000153933;-3.1173;-6.5074;2.2913;0.0545;-0.0215;-0.0256
0000153941;-3.0430;-6.3949;2.2410;0.0525;-0.0257;-0.0241
0000153952;-3.2010;-6.4117;2.3655;0.0488;-0.0316;-0.0262
0000153960;-3.2705;-6.4093;2.2027;0.0346;-0.0290;-0.0201
0000153972;-3.1268;-6.2728;2.3080;0.0256;-0.0454;-0.0212
0000153980;-3.2154;-6.2441;2.3080;0.0151;-0.0420;-0.0129
0000153991;-3.1963;-6.3686;2.3703;0.0015;-0.0372;-0.0076
0000153999;-3.2370;-6.4811;2.3798;-0.0040;-0.0370;-0.0111
0000154007;-3.1843;-6.5027;2.2984;-0.0103;-0.0257;-0.0063
0000154019;-3.2298;-6.5577;2.2936;-0.0168;-0.0187;-0.0052
0000154027;-3.0191;-6.4236;2.2003;-0.0181;-0.0224;-0.0019
0000154038;-3.3782;-6.6607;2.3655;-0.0205;-0.0156;-0.0047
0000154046;-3.3399;-6.5864;2.2529;-0.0193;-0.0332;-0.0075
0000154058;-3.3351;-6.4620;2.3296;-0.0185;-0.0377;-0.0109
0000154066;-3.2346;-6.6032;2.2889;-0.0191;-0.0364;-0.0095
0000154077;-3.2537;-6.5601;2.3320;-0.0228;-0.0333;-0.0156
0000154085;-3.1149;-6.4284;2.3224;-0.0262;-0.0286;-0.0173
0000154097;-3.3878;-6.6679;2.2649;-0.0260;-0.0332;-0.0144
0000154105;-3.2178;-6.5434;2.2721;-0.0302;-0.0396;-0.0157
0000154113;-3.2968;-6.5649;2.2936;-0.0256;-0.0425;-0.0241
0000154180;-3.1364;-6.4763;2.3655;-0.0282;-0.0421;-0.0145
0000154188;-3.4333;-6.6631;2.3894;-0.0298;-0.0489;-0.0193
0000154200;-3.1388;-6.5745;2.2290;-0.0301;-0.0517;-0.0184
0000154208;-3.2657;-6.6008;2.2984;-0.0189;-0.0568;-0.0228
0000154219;-3.1723;-6.4691;2.3008;-0.0208;-0.0452;-0.0177
0000154227;-3.1244;-6.4308;2.2745;-0.0228;-0.0384;-0.0180
0000154239;-3.1867;-6.4739;2.2314;-0.0207;-0.0426;-0.0169
0000154247;-3.1532;-6.2201;2.4900;-0.0209;-0.0370;-0.0276
0000154258;-3.2657;-6.3997;2.2003;-0.0149;-0.0493;-0.0208
0000154266;-3.3567;-6.6224;2.3320;-0.0164;-0.0596;-0.0269
0000154278;-3.1963;-6.3638;2.3080;-0.0224;-0.0569;-0.0286
0000154286;-3.2537;-6.4021;2.2458;-0.0240;-0.0462;-0.0220
0000154294;-3.1101;-6.3877;2.2984;-0.0292;-0.0425;-0.0168
0000154305;-3.2465;-6.5027;2.2841;-0.0276;-0.0422;-0.0213
0000154313;-2.9425;-6.2465;2.2338;-0.0294;-0.0384;-0.0119
0000154325;-3.1843;-6.4428;2.2529;-0.0346;-0.0302;-0.0124
0000154333;-3.3232;-6.6367;2.3104;-0.0332;-0.0321;-0.0136
0000154344;-3.2777;-6.5960;2.2936;-0.0345;-0.0261;-0.0128
0000154352;-3.3399;-6.6176;2.3152;-0.0301;-0.0257;-0.0175
0000154364;-3.1292;-6.5170;2.2625;-0.0286;-0.0332;-0.0163
0000154372;-3.1675;-6.4931;2.2601;-0.0225;-0.0298;-0.0129
0000154439;-3.2202;-6.5314;2.2386;0.0064;-0.0317;-0.0248
0000154447;-3.2082;-6.5098;2.3008;0.0076;-0.0308;-0.0152
0000154459;-3.2346;-6.5721;2.2936;0.0072;-0.0282;-0.0149
0000154467;-3.1939;-6.4284;2.3415;0.0089;-0.0313;-0.0145
0000154475;-3.1795;-6.4212;2.2841;0.0073;-0.0317;-0.0173
0000154486;-3.0382;-6.5146;2.2769;0.0080;-0.0341;-0.0196
0000154494;-3.3878;-6.4380;2.3655;0.0180;-0.0422;-0.0196
0000154506;-3.2034;-6.4428;2.3631;0.0163;-0.0425;-0.0155
0000154514;-3.1101;-6.5577;2.3367;0.0093;-0.0289;-0.0167
0000154525;-3.1915;-6.4835;2.2960;0.0103;-0.0300;-0.0136
0000154533;-3.2657;-6.5290;2.2482;0.0060;-0.0297;-0.0120
0000154545;-3.3567;-6.5888;2.3583;0.0051;-0.0409;-0.0152
0000154553;-3.3327;-6.6080;2.2960;0.0072;-0.0444;-0.0153
0000154564;-3.4477;-6.6343;2.3559;0.0027;-0.0365;-0.0148
0000154572;-3.1220;-6.4260;2.3272;0.0075;-0.0409;-0.0140
0000154580;-3.3615;-6.5769;2.2889;0.0071;-0.0421;-0.0121
0000154592;-3.1699;-6.5457;2.2913;0.0101;-0.0396;-0.0129
0000154600;-3.1077;-6.3255;2.2769;0.0125;-0.0340;-0.0179
0000154611;-3.3734;-6.6870;2.2290;0.0099;-0.0374;-0.0205
0000154619;-3.2705;-6.4236;2.3224;0.0157;-0.0289;-0.0131
0000154631;-3.3615;-6.5338;2.3439;0.0071;-0.0294;-0.0105
0000154639;-3.2441;-6.6176;2.3032;0.0119;-0.0330;-0.0185
0000154706;-3.0933;-6.3901;2.3104;0.0033;-0.0388;-0.0163
0000154714;-3.1723;-6.4883;2.2936;0.0076;-0.0422;-0.0240
0000154726;-3.0742;-6.3542;2.3391;0.0025;-0.0406;-0.0225
0000154734;-3.3782;-6.4979;2.2936;0.0008;-0.0425;-0.0216
0000154742;-3.3686;-6.4979;2.4110;-0.0012;-0.0366;-0.0281
0000154753;-3.4620;-6.5290;2.3272;-0.0135;-0.0342;-0.0153
0000154761;-3.1580;-6.3710;2.3056;-0.0100;-0.0425;-0.0136
0000154773;-3.2346;-6.4931;2.2984;-0.0191;-0.0358;-0.0119
0000154781;-3.1987;-6.4835;2.2338;-0.0216;-0.0345;-0.0095
0000154792;-3.2872;-6.5386;2.3822;-0.0242;-0.0340;-0.0127
0000154800;-3.1077;-6.3686;2.3535;-0.0277;-0.0308;-0.0155
0000154812;-3.1867;-6.3973;2.2817;-0.0277;-0.0328;-0.0103
0000154820;-3.3686;-6.6655;2.3631;-0.0262;-0.0388;-0.0124
0000154831;-3.3519;-6.5817;2.3703;-0.0269;-0.0456;-0.0097
0000154839;-3.3543;-6.5481;2.2745;-0.0249;-0.0484;-0.0055
0000154847;-3.3040;-6.6702;2.3798;-0.0230;-0.0497;-0.0117
0000154859;-3.1987;-6.6008;2.3559;-0.0191;-0.0382;-0.0088
0000154867;-2.9999;-6.5577;2.3343;-0.0155;-0.0436;-0.0180
0000154878;-3.0718;-6.5050;2.3535;-0.0116;-0.0378;-0.0173
0000154886;-3.1987;-6.5386;2.2577;-0.0148;-0.0392;-0.0136
0000154898;-3.1819;-6.5266;2.4014;-0.0141;-0.0425;-0.0073
0000154906;-3.2106;-6.4476;2.4517;-0.0165;-0.0441;-0.0152
0000154973;-3.2346;-6.4907;2.3487;-0.0128;-0.0269;-0.0119
0000154981;-3.3543;-6.4548;2.3679;-0.0145;-0.0250;-0.0104
0000154993;-3.1173;-6.3997;2.3511;-0.0101;-0.0292;-0.0096
0000155001;-3.1891;-6.4907;2.3631;-0.0141;-0.0314;-0.0135
0000155013;-3.1651;-6.5027;2.2673;-0.0153;-0.0320;-0.0121
0000155021;-3.3088;-6.5769;2.3224;-0.0208;-0.0333;-0.0115
0000155029;-3.2513;-6.5098;2.3774;-0.0183;-0.0336;-0.0160
0000155040;-3.3279;-6.6104;2.3679;-0.0226;-0.0332;-0.0149
0000155048;-3.3543;-6.5673;2.3966;-0.0169;-0.0386;-0.0169
0000155060;-3.1603;-6.5338;2.4349;-0.0181;-0.0316;-0.0124
0000155068;-3.1651;-6.5122;2.3583;-0.0224;-0.0324;-0.0121
0000155079;-3.3974;-6.5290;2.3535;-0.0236;-0.0274;-0.0133
0000155087;-3.1795;-6.4045;2.4134;-0.0152;-0.0378;-0.0180
0000155099;-3.1220;-6.5481;2.3774;-0.0184;-0.0360;-0.0117
0000155107;-3.4836;-6.6631;2.3966;-0.0091;-0.0402;-0.0084
0000155118;-3.2705;-6.5290;2.4277;-0.0152;-0.0388;-0.0093
0000155126;-3.2154;-6.5098;2.3942;-0.0112;-0.0404;-0.0129
0000155138;-3.3375;-6.5218;2.3990;-0.0169;-0.0297;-0.0084
0000155146;-3.1244;-6.5027;2.3152;-0.0176;-0.0317;-0.0085
0000155154;-3.2657;-6.6870;2.2505;-0.0100;-0.0369;-0.0180
0000155221;-3.2154;-6.5170;2.3320;-0.0135;-0.0290;-0.0108
0000155229;-3.1125;-6.4715;2.3080;-0.0188;-0.0264;-0.0101
0000155241;-3.4524;-6.6463;2.3631;-0.0191;-0.0232;-0.0080
0000155249;-3.3040;-6.5410;2.3367;-0.0183;-0.0288;-0.0144
0000155260;-3.1795;-6.5505;2.3559;-0.0185;-0.0310;-0.0164
0000155268;-3.1843;-6.5984;2.3128;-0.0124;-0.0330;-0.0147
0000155280;-3.2489;-6.5338;2.3391;-0.0075;-0.0277;-0.0112
0000155288;-3.2322;-6.5601;2.3631;-0.0124;-0.0230;-0.0071
0000155299;-3.3279;-6.6152;2.3056;-0.0097;-0.0300;-0.0140
0000155307;-3.3184;-6.6295;2.3559;-0.0069;-0.0252;-0.0097
0000155319;-3.1891;-6.5027;2.3487;0.0051;-0.0338;-0.0187
0000155327;-3.0023;-6.4715;2.3032;-0.0001;-0.0288;-0.0119
0000155335;-3.2872;-6.5146;2.3559;-0.0057;-0.0316;-0.0104
0000155346;-3.2561;-6.4955;2.2673;0.0015;-0.0341;-0.0180
0000155354;-3.0574;-6.2824;2.2984;-0.0081;-0.0289;-0.0119
0000155366;-3.2370;-6.6224;2.3511;-0.0080;-0.0304;-0.0144
0000155374;-3.0287;-6.3614;2.3008;-0.0061;-0.0297;-0.0103
0000155385;-3.1436;-6.4715;2.3583;-0.0047;-0.0382;-0.0152
0000155393;-3.1987;-6.5625;2.3583;-0.0063;-0.0333;-0.0159
0000155405;-3.1149;-6.5003;2.2625;-0.0113;-0.0333;-0.0141
0000155413;-3.3136;-6.6248;2.3152;-0.0069;-0.0326;-0.0199
0000155480;-3.0382;-6.3901;2.3176;-0.0049;-0.0417;-0.0167
0000155488;-3.0550;-6.3470;2.3487;-0.0092;-0.0389;-0.0135
0000155500;-3.1532;-6.3973;2.2865;-0.0061;-0.0373;-0.0125
0000155508;-3.2154;-6.4452;2.3415;-0.0063;-0.0378;-0.0111
0000155516;-3.0933;-6.4476;2.3296;-0.0096;-0.0368;-0.0113
0000155527;-3.2848;-6.5721;2.2936;-0.0088;-0.0400;-0.0115
0000155535;-3.1340;-6.4404;2.3176;-0.0020;-0.0417;-0.0179
0000155547;-2.7485;-6.4596;2.4086;0.0011;-0.0633;-0.0344
0000155555;-3.1556;-6.3997;2.2769;-0.0009;-0.0253;-0.0426
0000155566;-3.2346;-6.5864;2.3463;-0.0076;-0.0088;-0.0171
0000155574;-3.1987;-6.4596;2.2960;-0.0136;-0.0273;-0.0144
0000155586;-3.2034;-6.5338;2.3463;-0.0125;-0.0306;-0.0133
0000155594;-3.3303;-6.6367;2.4205;-0.0047;-0.0333;-0.0175
0000155605;-3.2513;-6.5817;2.4134;-0.0093;-0.0222;-0.0135
0000155613;-3.2178;-6.6367;2.2027;-0.0103;-0.0250;-0.0135
0000155625;-3.2058;-6.4428;2.2984;-0.0100;-0.0200;-0.0132
0000155633;-3.1364;-6.5314;2.3224;-0.0063;-0.0285;-0.0221
0000155641;-3.1963;-6.4428;2.2505;-0.0081;-0.0254;-0.0152
0000155652;-3.0622;-6.3734;2.3152;-0.0061;-0.0236;-0.0131
0000155660;-3.2298;-6.5290;2.2936;-0.0079;-0.0193;-0.0089
0000155672;-3.2561;-6.4883;2.2649;-0.0045;-0.0306;-0.0145
0000155680;-3.3734;-6.5314;2.3296;-0.0080;-0.0250;-0.0151
0000155747;-3.2178;-6.6200;2.2913;-0.0073;-0.0345;-0.0075
0000155755;-3.2274;-6.5362;2.3272;-0.0084;-0.0304;-0.0033
0000155767;-3.2609;-6.5314;2.3032;-0.0092;-0.0286;-0.0077
0000155775;-3.2394;-6.5290;2.3727;-0.0085;-0.0313;-0.0135
0000155786;-3.2202;-6.4476;2.3990;-0.0072;-0.0268;-0.0092
0000155794;-3.2370;-6.5410;2.3200;-0.0093;-0.0270;-0.0116
0000155802;-3.1412;-6.4165;2.3343;-0.0031;-0.0309;-0.0147
0000155814;-3.2250;-6.5027;2.3224;-0.0033;-0.0245;-0.0171
0000155822;-3.2226;-6.5362;2.3535;-0.0071;-0.0164;-0.0140
0000155833;-3.2370;-6.5673;2.3391;-0.0020;-0.0262;-0.0173
0000155841;-3.1436;-6.4141;2.3511;-0.0012;-0.0245;-0.0201
0000155853;-3.4046;-6.6607;2.3080;-0.0032;-0.0253;-0.0211
0000155861;-3.1627;-6.5242;2.4014;-0.0097;-0.0180;-0.0161
0000155872;-3.0071;-6.3494;2.3391;-0.0087;-0.0245;-0.0139
0000155880;-3.0957;-6.4045;2.3655;-0.0119;-0.0153;-0.0083
0000155892;-3.2705;-6.4667;2.3152;-0.0107;-0.0188;-0.0093
0000155900;-3.2513;-6.4428;2.3367;-0.0124;-0.0153;-0.0039
0000155911;-3.2010;-6.5098;2.2984;-0.0123;-0.0171;-0.0084
0000155919;-3.3112;-6.5984;2.3774;-0.0071;-0.0225;-0.0124
0000155927;-3.3734;-6.6583;2.4229;-0.0089;-0.0195;-0.0153
0000155939;-3.2633;-6.6152;2.2769;-0.0037;-0.0262;-0.0161
0000155947;-3.3926;-6.7325;2.3008;-0.0079;-0.0211;-0.0119
0000156014;-3.3160;-6.6176;2.3152;0.0005;-0.0248;-0.0172
0000156022;-3.1939;-6.4907;2.2338;0.0056;-0.0228;-0.0144
0000156034;-3.2178;-6.5027;2.2505;0.0060;-0.0257;-0.0129
0000156042;-3.1627;-6.4859;2.2721;0.0017;-0.0233;-0.0101
0000156053;-3.1053;-6.3973;2.3248;0.0044;-0.0218;-0.0149
0000156061;-3.2848;-6.4859;2.3080;0.0040;-0.0205;-0.0119
0000156073;-3.1771;-6.4620;2.3679;0.0021;-0.0207;-0.0101
0000156081;-3.1939;-6.4524;2.3008;0.0031;-0.0269;-0.0156
0000156089;-3.3639;-6.5338;2.2697;0.0031;-0.0290;-0.0101
0000156100;-3.2848;-6.6080;2.2936;0.0132;-0.0361;-0.0173
0000156108;-3.3998;-6.7612;2.3056;0.0101;-0.0333;-0.0197
0000156120;-3.2154;-6.4643;2.3487;0.0147;-0.0308;-0.0236
0000156128;-3.3686;-6.7038;2.2841;0.0113;-0.0274;-0.0197
0000156139;-3.2848;-6.5960;2.3391;0.0125;-0.0281;-0.0157
0000156147;-3.3375;-6.6535;2.4588;0.0085;-0.0209;-0.0139
0000156159;-3.1819;-6.6080;2.3894;0.0052;-0.0218;-0.0132
0000156167;-3.1627;-6.6511;2.4995;0.0033;-0.0226;-0.0117
0000156178;-3.1316;-6.5481;2.5426;-0.0031;-0.0172;-0.0159
0000156186;-3.1891;-6.5673;2.6552;-0.0092;-0.0117;-0.0099
0000156194;-3.1532;-6.5529;2.4972;-0.0105;-0.0072;-0.0105
0000156206;-3.0287;-6.5697;2.6719;-0.0192;-0.0108;-0.0097
0000156214;-2.9185;-6.4500;2.6528;-0.0181;-0.0124;-0.0100
0000156281;-2.7749;-6.6367;2.7869;-0.0520;0.0528;0.0273
0000156289;-2.7366;-6.6798;2.8850;-0.0513;0.0629;0.0266
0000156301;-2.8299;-6.7971;3.0454;-0.0434;0.0878;0.0248
0000156309;-2.6791;-6.9073;3.1627;-0.0257;0.0897;0.0189
0000156320;-2.4995;-6.9073;3.3543;-0.0035;0.0914;0.0244
0000156328;-2.5474;-7.0557;3.3710;0.0276;0.0827;0.0191
0000156340;-2.5498;-7.1850;3.4429;0.0634;0.0777;0.0205
0000156348;-2.3080;-7.1635;3.3998;0.0873;0.0694;0.0270
0000156356;-2.3918;-7.3789;3.4237;0.1102;0.0694;0.0426
0000156368;-2.3224;-7.2257;3.6033;0.1514;0.0530;0.0632
0000156376;-2.3152;-7.1874;3.6296;0.1829;0.0401;0.0753
0000156387;-2.2051;-7.0533;3.5913;0.2106;0.0266;0.0910
0000156395;-1.9609;-6.8642;3.6105;0.2341;0.0127;0.0863
0000156407;-1.7047;-6.6846;3.7781;0.2731;-0.0324;0.0669
0000156415;-1.4772;-6.7229;3.8427;0.3012;-0.0617;0.0298
0000156423;-1.1061;-6.7564;3.8403;0.3182;-0.0781;0.0009
0000156434;-0.8739;-6.8642;3.7828;0.3577;-0.0886;-0.0378
0000156442;-0.6704;-6.9240;3.7781;0.3870;-0.0955;-0.0652
0000156454;-0.5387;-7.0342;3.8379;0.4325;-0.1135;-0.0942
0000156462;-0.4286;-7.0102;3.7302;0.4453;-0.1156;-0.0971
0000156474;-0.5219;-7.1515;3.8164;0.4628;-0.1184;-0.0911
0000156482;-0.4932;-7.0294;3.5865;0.4626;-0.1266;-0.0550
0000156550;0.8021;-6.5218;0.8763;0.5654;-0.5950;-0.0105
0000156558;0.4741;-6.7732;0.6321;0.6286;-0.7389;-0.0408
0000156569;-0.3496;-7.3765;0.8930;0.6748;-0.9108;-0.1280
0000156577;-1.2713;-7.6423;1.2570;0.6784;-0.9340;-0.1986
0000156585;-2.0470;-7.8147;1.8244;0.6929;-0.9397;-0.2390
0000156597;-2.3200;-7.5489;2.5594;0.7019;-1.0261;-0.2286
0000156605;-2.2553;-7.2999;2.7174;0.7200;-1.0700;-0.1961
0000156616;-1.6065;-6.7445;2.6145;0.6916;-0.9378;-0.1147
0000156624;-1.1827;-5.9903;2.4349;0.6456;-0.8060;-0.0679
0000156636;-0.6632;-5.2553;1.9704;0.5508;-0.7707;-0.0982
0000156644;-0.5219;-4.9057;1.6209;0.4648;-0.7978;-0.1579
0000156655;-0.2370;-4.3814;2.0590;0.3869;-0.8556;-0.2658
0000156663;-0.5555;-4.3000;2.7629;0.3228;-0.7879;-0.3324
0000156675;-1.0080;-4.5993;3.3040;0.2046;-0.5801;-0.4359
0000156683;-1.4365;-5.3582;3.3136;0.1167;-0.4299;-0.4759
0000156691;-2.1380;-6.1507;3.1795;0.0261;-0.2582;-0.4876
0000156702;-2.7557;-6.7852;2.7390;-0.0240;-0.0501;-0.4021
0000156710;-3.2872;-7.1611;2.2865;0.0017;0.0536;-0.2655
0000156722;-3.8068;-7.0270;2.1332;0.1050;0.0306;-0.0446
0000156730;-3.7445;-6.9408;2.4948;0.1779;-0.0085;0.0412
0000156742;-3.6751;-6.4620;3.3974;0.2836;0.0689;0.0854
0000156750;-3.6895;-6.4141;4.0127;0.3224;0.1924;0.0360
0000156818;-4.5107;-6.3758;2.3272;0.3154;0.7328;-0.0861
0000156826;-5.8155;-6.1076;3.3208;0.2826;0.8247;-0.0553
0000156834;-6.2848;-5.8754;3.2178;0.2779;0.8579;-0.0429
0000156845;-5.6479;-5.7724;2.7054;0.2960;0.8025;-0.0945
0000156853;-5.3510;-6.1770;2.7461;0.2978;0.7774;-0.1452
0000156865;-4.8626;-6.3207;2.8659;0.3210;0.8378;-0.2230
0000156873;-4.8507;-6.4332;2.7797;0.3317;0.9419;-0.2376
0000156884;-4.6424;-6.4260;2.4253;0.3528;1.0621;-0.2152
0000156892;-4.2832;-6.1435;2.0590;0.3359;1.1616;-0.1743
0000156904;-4.1276;-5.8395;1.6424;0.3155;1.2817;-0.0829
0000156912;-4.0654;-5.7676;1.2426;0.2999;1.3175;0.0088
0000156920;-3.7182;-5.4827;1.0798;0.2842;1.3442;0.0762
0000156931;-3.2681;-5.1930;0.6416;0.2702;1.4181;0.1844
0000156939;-3.2609;-4.8626;0.4501;0.2453;1.5112;0.2236
0000156951;-4.2018;-4.8674;0.3448;0.2069;1.6875;0.2678
0000156959;-5.3032;-5.1140;0.2274;0.1941;1.7733;0.2734
0000156970;-6.5769;-5.3965;-0.0431;0.1907;1.8130;0.2613
0000156978;-7.5513;-5.7245;0.0024;0.1803;1.7928;0.2398
0000156990;-8.2145;-6.0334;-0.1796;0.1593;1.6643;0.1807
0000156998;-8.2241;-6.0142;-0.3352;0.1422;1.5394;0.1430
0000157006;-7.9296;-6.1579;-0.5339;0.1343;1.4210;0.1136
0000157018;-7.0390;-5.7150;-0.3903;0.1067;1.2914;0.1371
0000157026;-6.6032;-5.7796;-0.1652;0.0989;1.2501;0.1655
0000157094;-4.2258;-6.0813;-1.2546;-0.1591;1.0844;0.0845
0000157102;-4.4149;-6.2393;-1.3767;-0.1683;1.0449;0.0805
0000157113;-4.4652;-6.1076;-1.5658;-0.1876;0.9770;0.0734
0000157121;-4.4077;-6.1435;-1.7765;-0.1912;0.9198;0.0594
0000157133;-4.4652;-6.1483;-1.9273;-0.2061;0.8455;0.0600
0000157141;-4.3718;-6.0310;-1.9106;-0.2237;0.8086;0.0532
0000157149;-4.2258;-5.9807;-2.0423;-0.2405;0.7667;0.0441
0000157161;-4.1444;-5.9233;-1.9393;-0.2513;0.7210;0.0168
0000157169;-4.2018;-5.7844;-1.9800;-0.2558;0.6829;-0.0096
0000157181;-4.0270;-5.6982;-1.9106;-0.2629;0.6654;-0.0276
0000157189;-4.0366;-5.7916;-1.9369;-0.2626;0.6531;-0.0192
0000157200;-3.9265;-5.7006;-2.1979;-0.2619;0.6155;-0.0163
0000157208;-3.9193;-5.7341;-2.3870;-0.2514;0.5881;0.0020
0000157220;-4.5274;-5.7916;-2.1907;-0.2102;0.5113;0.0160
0000157228;-4.7070;-5.7461;-2.1883;-0.1864;0.4712;0.0226
0000157239;-5.0805;-5.6264;-2.0901;-0.1541;0.3829;0.0208
0000157247;-5.4564;-5.7509;-2.0423;-0.1368;0.3246;0.0184
0000157255;-5.7102;-5.7628;-2.0375;-0.1219;0.2802;0.0193
0000157267;-5.6216;-5.6934;-2.1045;-0.1025;0.1958;0.0067
0000157275;-5.3271;-5.6647;-2.3511;-0.0941;0.1074;0.0129
0000157287;-4.9177;-5.8419;-2.5331;-0.0809;-0.0364;0.0104
0000157295;-4.7142;-5.8275;-2.4325;-0.0722;-0.1140;-0.0025
0000157363;-3.0933;-5.7030;-2.3080;-0.0683;-0.3512;-0.0798
0000157371;-3.1125;-5.6120;-2.0518;-0.0773;-0.3629;-0.0636
0000157382;-3.1915;-5.6575;-1.8004;-0.0897;-0.3640;-0.0424
0000157390;-2.8874;-5.4157;-1.7142;-0.0943;-0.3281;-0.0280
0000157402;-2.7725;-5.5737;-1.5874;-0.1107;-0.2467;-0.0092
0000157410;-2.9137;-5.5593;-1.4988;-0.1106;-0.1825;0.0069
0000157422;-2.8084;-5.4133;-1.6352;-0.1147;-0.0981;0.0144
0000157430;-3.0837;-5.5545;-1.7573;-0.1088;-0.0621;0.0143
0000157442;-3.5123;-5.7006;-1.8172;-0.1170;-0.0376;0.0052
0000157450;-3.4860;-5.6048;-1.7957;-0.1167;-0.0433;-0.0132
0000157458;-3.5458;-5.7293;-1.8747;-0.1081;-0.0620;-0.0278
0000157469;-3.5626;-6.1483;-1.4820;-0.0895;-0.0801;-0.0445
0000157477;-3.1484;-6.3782;-1.3815;-0.0633;-0.0757;-0.0517
0000157489;-2.8299;-6.6559;-1.3599;-0.0328;-0.0313;-0.0568
0000157497;-2.6384;-6.6870;-1.2210;-0.0241;0.0139;-0.0537
0000157508;-2.4684;-6.5003;-1.0008;-0.0181;0.0806;-0.0414
0000157516;-2.4325;-6.2034;-0.9864;-0.0226;0.1447;-0.0204
0000157528;-2.8467;-5.8466;-1.0942;-0.0199;0.2201;-0.0089
0000157536;-2.8730;-5.4731;-1.1277;-0.0265;0.2591;-0.0203
0000157548;-3.1819;-5.5737;-1.1708;-0.0305;0.3104;-0.0622
0000157556;-3.4046;-5.8442;-1.1875;-0.0312;0.3360;-0.0847
0000157624;-3.9983;-6.2465;-1.6903;0.0875;0.2425;0.0472
0000157632;-4.5298;-6.0645;-1.6089;0.0878;0.2129;0.0520
0000157640;-4.5633;-5.7604;-1.5323;0.0877;0.1837;0.0392
0000157651;-4.8554;-5.8059;-1.5371;0.0733;0.1342;0.0321
0000157659;-4.6376;-5.8897;-1.6281;0.0629;0.1005;0.0140
0000157671;-4.0438;-5.7916;-1.7478;0.0528;0.0372;-0.0095
0000157679;-3.9648;-6.0382;-1.7597;0.0510;0.0183;-0.0180
0000157691;-3.3567;-5.9999;-1.7262;0.0468;0.0221;-0.0312
0000157699;-3.2226;-5.9664;-1.8651;0.0490;0.0352;-0.0382
0000157710;-3.2848;-6.1411;-1.9465;0.0549;0.0390;-0.0404
0000157718;-3.3686;-5.9209;-2.0662;0.0617;0.0325;-0.0309
0000157726;-3.5123;-5.9568;-2.0039;0.0640;0.0240;-0.0258
0000157738;-3.9528;-6.0980;-2.1572;0.0794;-0.0221;-0.0157
0000157746;-4.0414;-5.9209;-2.0973;0.0889;-0.0422;-0.0128
0000157758;-4.2808;-5.8514;-2.1141;0.0871;-0.0887;-0.0076
0000157766;-4.3622;-5.7724;-2.1476;0.0897;-0.1395;-0.0101
0000157778;-4.1994;-5.5569;-2.0423;0.0626;-0.1856;0.0047
0000157786;-3.7565;-5.3247;-2.0207;0.0544;-0.2101;0.0077
0000157798;-3.2609;-5.4109;-1.9896;0.0268;-0.2140;0.0056
0000157806;-3.1196;-5.4827;-1.9465;0.0147;-0.1989;-0.0024
0000157818;-2.8874;-5.7269;-1.8459;-0.0013;-0.1547;-0.0136
0000157826;-2.7102;-5.8275;-1.8292;-0.0127;-0.1166;-0.0165
0000157892;-4.0869;-5.9711;-2.1093;-0.0596;-0.1575;0.0036
0000157900;-3.6895;-6.0621;-1.8723;-0.0686;-0.1633;0.0084
0000157908;-3.4788;-6.1292;-1.9225;-0.0624;-0.1548;-0.0016
0000157920;-2.9640;-5.9999;-1.8866;-0.0549;-0.1274;-0.0109
0000157928;-2.9185;-6.0789;-1.8028;-0.0590;-0.0978;-0.0143
0000157940;-2.7964;-5.9951;-1.8387;-0.0489;-0.0841;-0.0205
0000157948;-3.1029;-6.2130;-1.7286;-0.0520;-0.0598;-0.0144
0000157960;-3.3303;-6.0501;-1.7980;-0.0548;-0.0330;-0.0100
0000157968;-3.3471;-5.8203;-1.7957;-0.0548;-0.0237;-0.0079
0000157980;-3.7302;-5.9472;-1.9225;-0.0621;-0.0221;0.0007
0000157988;-3.8595;-5.8778;-1.9010;-0.0642;-0.0434;-0.0015
0000158000;-3.8379;-5.8754;-1.9225;-0.0726;-0.0636;0.0025
0000158008;-3.7397;-5.7820;-1.8028;-0.0718;-0.0865;-0.0016
0000158020;-3.4524;-5.8466;-1.7789;-0.0666;-0.0963;-0.0056
0000158028;-3.5386;-5.8442;-1.8531;-0.0679;-0.0911;-0.0064
0000158040;-3.5386;-5.8323;-1.5826;-0.0698;-0.0685;-0.0147
0000158048;-3.6679;-5.8012;-1.6712;-0.0747;-0.0636;-0.0240
0000158056;-3.5937;-5.5833;-1.5921;-0.0652;-0.0829;-0.0338
0000158068;-3.7302;-5.8658;-1.5443;-0.0743;-0.1011;-0.0253
0000158076;-3.7038;-5.9280;-1.4629;-0.0745;-0.1150;-0.0199
0000158088;-3.6105;-5.8419;-1.3671;-0.0771;-0.1247;-0.0127
0000158096;-3.5386;-5.8442;-1.3623;-0.0798;-0.1207;-0.0109
0000158163;-3.5027;-5.9400;-1.3791;-0.0661;-0.0789;-0.0176
0000158171;-3.5195;-5.8323;-1.4413;-0.0610;-0.0806;-0.0221
0000158183;-3.5841;-5.8179;-1.4126;-0.0650;-0.0866;-0.0177
0000158191;-3.4046;-5.9400;-1.4078;-0.0666;-0.0853;-0.0188
0000158203;-3.4189;-6.0142;-1.4557;-0.0618;-0.0710;-0.0157
0000158211;-3.2346;-5.9304;-1.4892;-0.0585;-0.0580;-0.0105
0000158223;-3.3974;-6.0597;-1.4629;-0.0537;-0.0430;-0.0109
0000158231;-3.0813;-5.8562;-1.5826;-0.0516;-0.0306;-0.0047
0000158243;-3.4213;-6.0214;-1.5036;-0.0392;-0.0265;-0.0016
0000158251;-3.2753;-5.9089;-1.7095;-0.0330;-0.0177;-0.0027
0000158263;-3.5698;-5.9328;-1.5443;-0.0305;-0.0229;-0.0043
0000158271;-3.5578;-5.9807;-1.6448;-0.0201;-0.0322;-0.0091
0000158279;-3.5123;-5.8107;-1.5993;-0.0225;-0.0336;-0.0077
0000158291;-3.4884;-5.9113;-1.5227;-0.0171;-0.0360;-0.0093
0000158299;-3.4955;-5.9424;-1.5658;-0.0105;-0.0460;-0.0168
0000158311;-3.3734;-5.9304;-1.5826;-0.0083;-0.0385;-0.0156
0000158319;-3.1484;-5.8897;-1.5036;-0.0052;-0.0380;-0.0172
0000158331;-3.3686;-5.8730;-1.5897;-0.0057;-0.0232;-0.0165
0000158339;-3.4117;-5.9065;-1.5778;-0.0043;-0.0105;-0.0099
0000158351;-3.3471;-5.9735;-1.5251;-0.0037;-0.0068;-0.0103
0000158359;-3.5291;-5.9017;-1.5036;0.0008;0.0001;-0.0104
0000158426;-3.5099;-5.9687;-1.6592;0.0075;-0.0187;-0.0140
0000158434;-3.6152;-6.0142;-1.6305;0.0051;-0.0111;-0.0132
0000158446;-3.5362;-5.9089;-1.6807;0.0076;-0.0077;-0.0112
0000158454;-3.5243;-5.8849;-1.5634;0.0069;-0.0115;-0.0149
0000158462;-3.6368;-5.9113;-1.6376;0.0136;-0.0169;-0.0220
0000158474;-3.4979;-5.7126;-1.5850;0.0095;-0.0153;-0.0181
0000158482;-3.4333;-5.9041;-1.5514;0.0063;-0.0091;-0.0119
0000158494;-3.5291;-5.9616;-1.6017;0.0047;-0.0001;-0.0115
0000158502;-3.3782;-5.8610;-1.5826;0.0005;0.0039;-0.0077
0000158514;-3.4333;-5.9783;-1.7669;0.0085;0.0056;-0.0088
0000158522;-3.3639;-5.7748;-1.8004;0.0093;-0.0007;-0.0072
0000158534;-3.5674;-6.0142;-1.6520;0.0148;-0.0073;-0.0108
0000158542;-3.5817;-5.9544;-1.7837;0.0076;-0.0020;-0.0112
0000158554;-3.5865;-5.9496;-1.5730;0.0080;-0.0040;-0.0093
0000158562;-3.4836;-5.9185;-1.6472;0.0069;-0.0045;-0.0135
0000158574;-3.5195;-6.0023;-1.6903;0.0061;-0.0133;-0.0201
0000158582;-3.5626;-5.9376;-1.6520;0.0069;-0.0057;-0.0176
0000158590;-3.3782;-5.8466;-1.6688;0.0033;-0.0036;-0.0187
0000158602;-3.3710;-5.8754;-1.7047;-0.0009;-0.0023;-0.0173
0000158610;-3.4812;-5.8921;-1.6664;0.0092;-0.0031;-0.0121
0000158622;-3.4548;-5.7964;-1.7262;0.0093;-0.0005;-0.0199
0000158630;-3.5386;-5.9041;-1.6783;0.0007;0.0067;-0.0124
0000158698;-3.4836;-5.9280;-1.7214;-0.0107;-0.0228;-0.0183
0000158707;-3.4548;-5.8897;-1.7142;-0.0163;-0.0184;-0.0152
0000158720;-3.5721;-5.9759;-1.7310;-0.0141;-0.0144;-0.0128
0000158729;-3.3878;-5.8419;-1.6975;-0.0100;-0.0137;-0.0181
0000158742;-3.6464;-5.9735;-1.6496;-0.0111;-0.0133;-0.0117
0000158751;-3.4524;-5.8873;-1.6903;-0.0113;-0.0175;-0.0211
0000158764;-3.4979;-5.8562;-1.7238;-0.0159;-0.0220;-0.0222
0000158773;-3.4117;-5.7964;-1.7238;-0.0180;-0.0249;-0.0137
0000158786;-3.5171;-6.0286;-1.6712;-0.0157;-0.0224;-0.0155
0000158795;-3.5458;-5.9687;-1.7454;-0.0201;-0.0161;-0.0109
0000158804;-3.7086;-6.0406;-1.7454;-0.0133;-0.0261;-0.0168
0000158817;-3.4237;-5.9089;-1.7334;-0.0116;-0.0285;-0.0181
0000158826;-3.3615;-5.9328;-1.6807;-0.0165;-0.0173;-0.0125
0000158839;-3.5482;-5.9592;-1.7621;-0.0152;-0.0140;-0.0116
0000158848;-3.4309;-5.8275;-1.7813;-0.0201;-0.0153;-0.0132
0000158861;-3.6943;-6.0286;-1.7837;-0.0183;-0.0151;-0.0115
0000158870;-3.5195;-5.8682;-1.8100;-0.0159;-0.0232;-0.0140
0000158883;-3.7062;-6.0071;-1.7502;-0.0128;-0.0328;-0.0124
0000158892;-3.5434;-5.8682;-1.6735;-0.0177;-0.0357;-0.0093
0000158905;-3.4860;-5.8586;-1.7478;-0.0104;-0.0446;-0.0140
0000158914;-3.5171;-5.8586;-1.7095;-0.0121;-0.0444;-0.0105
0000158982;-3.4812;-5.8347;-1.7430;-0.0047;-0.0342;-0.0099
0000158991;-3.5626;-5.8969;-1.7190;-0.0151;-0.0398;-0.0112
0000159004;-3.4213;-5.7509;-1.7957;-0.0144;-0.0520;-0.0129
0000159013;-3.7134;-6.1316;-1.7861;-0.0212;-0.0470;-0.0115
0000159022;-3.4740;-5.9472;-1.7454;-0.0144;-0.0460;-0.0143
0000159035;-3.3160;-5.9185;-1.7478;-0.0060;-0.0438;-0.0125
0000159044;-3.4740;-6.0813;-1.7071;-0.0080;-0.0408;-0.0179
0000159057;-3.3854;-5.8419;-1.7286;-0.0011;-0.0337;-0.0164
0000159066;-3.5554;-5.8993;-1.7765;-0.0083;-0.0289;-0.0077
0000159082;-3.5458;-5.9376;-1.6903;-0.0084;-0.0324;-0.0144
0000159091;-3.5027;-5.8945;-1.6759;-0.0053;-0.0358;-0.0099
0000159104;-3.4165;-5.8969;-1.7095;-0.0067;-0.0310;-0.0089
0000159113;-3.4836;-5.9616;-1.7406;0.0011;-0.0398;-0.0176
0000159125;-3.5769;-6.0286;-1.7454;-0.0035;-0.0418;-0.0139
0000159134;-3.4285;-5.8323;-1.6544;-0.0061;-0.0353;-0.0121
0000159147;-3.3543;-5.7724;-1.5921;-0.0043;-0.0298;-0.0065
0000159156;-3.4453;-5.9687;-1.7071;-0.0065;-0.0244;-0.0056
0000159225;-3.4931;-5.9185;-1.7310;-0.0075;-0.0221;-0.0121
0000159234;-3.4692;-5.8634;-1.6759;-0.0061;-0.0228;-0.0167
0000159247;-3.6512;-5.9304;-1.5826;-0.0097;-0.0240;-0.0132
0000159256;-3.5865;-5.9209;-1.6305;-0.0031;-0.0317;-0.0157
0000159265;-3.3878;-5.7197;-1.7262;-0.0064;-0.0313;-0.0215
0000159277;-3.4405;-5.8107;-1.5850;-0.0053;-0.0358;-0.0274
0000159286;-3.5721;-5.9831;-1.6927;-0.0087;-0.0309;-0.0207
0000159299;-3.3471;-5.8371;-1.7310;-0.0099;-0.0248;-0.0153
0000159308;-3.3303;-5.8802;-1.6783;-0.0128;-0.0216;-0.0193
0000159320;-3.5075;-5.9568;-1.6759;-0.0137;-0.0141;-0.0148
0000159329;-3.4500;-5.9400;-1.6999;-0.0117;-0.0125;-0.0135
0000159342;-3.4955;-5.8730;-1.7837;-0.0161;-0.0115;-0.0117
0000159351;-3.4572;-5.8012;-1.7549;-0.0149;-0.0148;-0.0140
0000159363;-3.5889;-5.9999;-1.7095;-0.0193;-0.0189;-0.0169
0000159372;-3.4165;-5.9041;-1.7933;-0.0147;-0.0201;-0.0191
0000159385;-3.4860;-5.9304;-1.8100;-0.0164;-0.0180;-0.0155
0000159394;-3.4022;-5.9664;-1.7837;-0.0217;-0.0117;-0.0139
0000159406;-3.5171;-6.0071;-1.7669;-0.0188;-0.0057;-0.0132
0000159415;-3.6129;-5.9376;-1.7669;-0.0147;-0.0036;-0.0145
0000159424;-3.4524;-5.8778;-1.7526;-0.0133;-0.0012;-0.0156
0000159437;-3.4955;-5.9113;-1.7430;-0.0172;0.0008;-0.0103
0000159446;-3.5769;-5.9328;-1.7286;-0.0068;-0.0051;-0.0173
0000159515;-3.7014;-6.0669;-1.7071;-0.0147;-0.0020;-0.0181
0000159524;-3.6559;-5.9280;-1.7095;-0.0222;-0.0075;-0.0065
0000159537;-3.5027;-5.8682;-1.8100;-0.0209;-0.0140;-0.0097
0000159546;-3.5554;-6.0549;-1.7549;-0.0173;-0.0213;-0.0159
0000159558;-3.4836;-5.9376;-1.7214;-0.0185;-0.0229;-0.0119
0000159567;-3.5889;-5.8802;-1.7669;-0.0145;-0.0213;-0.0117
0000159580;-3.4165;-5.7964;-1.7789;-0.0151;-0.0229;-0.0108
0000159589;-3.4836;-5.8466;-1.8100;-0.0177;-0.0192;-0.0117
0000159601;-3.4644;-5.8802;-1.8411;-0.0193;-0.0141;-0.0103
0000159610;-3.3686;-5.7485;-1.7190;-0.0109;-0.0236;-0.0180
0000159623;-3.4046;-5.8754;-1.7645;-0.0188;-0.0225;-0.0175
0000159632;-3.4261;-5.8107;-1.7454;-0.0258;-0.0152;-0.0120
0000159644;-3.5602;-6.0071;-1.7933;-0.0208;-0.0195;-0.0105
0000159653;-3.4141;-6.0071;-1.8531;-0.0250;-0.0115;-0.0087
0000159662;-3.4165;-5.8778;-1.8028;-0.0116;-0.0199;-0.0192
0000159675;-3.5865;-5.9927;-1.7717;-0.0116;-0.0176;-0.0129
0000159684;-3.4620;-5.9089;-1.8004;-0.0123;-0.0195;-0.0168
0000159696;-3.5530;-5.7916;-1.8268;-0.0152;-0.0237;-0.0188
0000159705;-3.6224;-5.9544;-1.7813;-0.0204;-0.0228;-0.0085
0000159718;-3.6009;-6.0190;-1.8627;-0.0200;-0.0242;-0.0083
0000159727;-3.5003;-6.0047;-1.8842;-0.0069;-0.0280;-0.0125
0000159796;-3.5961;-5.8107;-1.8651;-0.0037;-0.0201;-0.0113
0000159805;-3.5769;-5.8897;-1.7933;0.0001;-0.0204;-0.0117
0000159818;-3.5698;-5.8969;-1.7741;-0.0037;-0.0222;-0.0123
0000159827;-3.4093;-5.7796;-1.7933;-0.0077;-0.0237;-0.0073
0000159839;-3.4237;-5.8227;-1.8028;-0.0065;-0.0220;-0.0088
0000159848;-3.5674;-5.8442;-1.8316;-0.0065;-0.0284;-0.0128
0000159861;-3.5195;-5.7796;-1.7071;-0.0032;-0.0276;-0.0131
0000159870;-3.4261;-5.8371;-1.7621;-0.0056;-0.0249;-0.0137
0000159879;-3.4907;-5.7916;-1.7358;-0.0100;-0.0241;-0.0153
0000159891;-3.5650;-5.8921;-1.7142;-0.0101;-0.0265;-0.0180
0000159900;-3.3902;-5.8514;-1.7957;-0.0075;-0.0305;-0.0171
0000159913;-3.4692;-5.8371;-1.7214;-0.0143;-0.0328;-0.0151
0000159922;-3.4572;-5.8969;-1.6951;-0.0103;-0.0357;-0.0250
0000159934;-3.6224;-6.0837;-1.6951;-0.0125;-0.0309;-0.0164
0000159943;-3.4692;-5.9448;-1.7454;-0.0109;-0.0262;-0.0137
0000159956;-3.5314;-5.9711;-1.7454;-0.0136;-0.0228;-0.0151
0000159965;-3.5003;-5.8873;-1.8459;-0.0080;-0.0308;-0.0173
0000159977;-3.6464;-6.0071;-1.7980;-0.0064;-0.0300;-0.0172
0000159986;-3.3040;-5.8826;-1.7813;-0.0148;-0.0216;-0.0172
0000159999;-3.3567;-5.9041;-1.8411;-0.0053;-0.0302;-0.0207
0000160008;-3.4884;-5.9280;-1.8603;-0.0151;-0.0217;-0.0100
0000160077;-3.3782;-5.8658;-1.8028;-0.0177;-0.0282;-0.0145
0000160086;-3.3878;-5.9616;-1.8459;-0.0173;-0.0282;-0.0123
0000160095;-3.3375;-5.8395;-1.7621;-0.0132;-0.0258;-0.0137
0000160108;-3.5745;-6.0142;-1.7933;-0.0125;-0.0236;-0.0143
0000160117;-3.5841;-5.9089;-1.8124;-0.0179;-0.0233;-0.0112
0000160129;-3.5578;-5.9520;-1.8794;-0.0124;-0.0350;-0.0216
0000160138;-3.5626;-5.9879;-1.8172;-0.0156;-0.0314;-0.0092
0000160151;-3.7062;-5.9759;-1.8004;-0.0187;-0.0322;-0.0125
0000160160;-3.5458;-5.9544;-1.7980;-0.0135;-0.0420;-0.0196
0000160172;-3.5147;-5.9592;-1.7358;-0.0141;-0.0417;-0.0123
0000160181;-3.5602;-5.9951;-1.8651;-0.0144;-0.0393;-0.0139
0000160194;-3.4213;-5.9448;-1.9249;-0.0115;-0.0412;-0.0143
0000160203;-3.4572;-5.9568;-1.7717;-0.0155;-0.0334;-0.0117
0000160215;-3.4836;-5.8993;-1.8340;-0.0104;-0.0440;-0.0124
0000160224;-3.5817;-6.0166;-1.8627;-0.0112;-0.0438;-0.0152
0000160237;-3.6559;-6.0478;-1.8986;-0.0119;-0.0453;-0.0124
0000160246;-3.3447;-5.7437;-1.8172;-0.0159;-0.0414;-0.0091
0000160258;-3.5506;-5.8682;-1.7789;-0.0147;-0.0442;-0.0120
0000160267;-3.6081;-5.9735;-1.7573;-0.0181;-0.0430;-0.0115
0000160276;-3.4596;-5.8682;-1.7789;-0.0127;-0.0464;-0.0197
0000160289;-3.2729;-5.8083;-1.8459;-0.0177;-0.0417;-0.0117
0000160298;-3.5817;-5.8658;-1.7861;-0.0176;-0.0440;-0.0069
0000160367;-3.6224;-5.9328;-1.8028;-0.0127;-0.0638;-0.0197
0000160376;-3.5291;-5.8945;-1.7621;-0.0212;-0.0508;-0.0119
0000160389;-3.4979;-5.9927;-1.7933;-0.0135;-0.0566;-0.0127
0000160398;-3.4285;-5.9376;-1.7957;-0.0213;-0.0458;-0.0093
0000160410;-3.6679;-6.0238;-1.7621;-0.0221;-0.0412;-0.0109
0000160419;-3.3327;-5.8682;-1.7813;-0.0136;-0.0516;-0.0171
0000160432;-3.5650;-6.0525;-1.7406;-0.0092;-0.0526;-0.0184
0000160441;-3.5434;-5.8826;-1.7526;-0.0144;-0.0529;-0.0188
0000160453;-3.4285;-5.9328;-1.7669;-0.0127;-0.0542;-0.0213
0000160462;-3.3902;-5.8682;-1.7406;-0.0195;-0.0493;-0.0135
0000160475;-3.4716;-5.8682;-1.8244;-0.0201;-0.0502;-0.0157
0000160484;-3.4788;-5.8610;-1.8411;-0.0144;-0.0496;-0.0184
0000160493;-3.3639;-5.8658;-1.7741;-0.0120;-0.0482;-0.0185
0000160504;-3.5027;-5.9280;-1.7190;-0.0213;-0.0428;-0.0115
0000160513;-3.4860;-5.9711;-1.6999;-0.0116;-0.0490;-0.0192
0000160527;-3.5650;-6.0501;-1.6807;-0.0175;-0.0397;-0.0148
0000160536;-3.6607;-6.1148;-1.6855;-0.0141;-0.0477;-0.0155
0000160549;-3.5865;-5.9256;-1.7334;-0.0137;-0.0517;-0.0177
0000160558;-3.5458;-5.9256;-1.7813;-0.0159;-0.0545;-0.0171
0000160570;-3.4117;-5.9304;-1.7741;-0.0169;-0.0512;-0.0157
0000160579;-3.3567;-5.9424;-1.7502;-0.0145;-0.0506;-0.0155
0000160648;-3.4812;-5.9161;-1.8028;-0.0164;-0.0485;-0.0148
0000160657;-3.5745;-5.9352;-1.7142;-0.0141;-0.0522;-0.0188
0000160669;-3.4237;-5.8131;-1.7454;-0.0187;-0.0513;-0.0139
0000160678;-3.4524;-5.9209;-1.7813;-0.0167;-0.0570;-0.0181
0000160691;-3.4046;-6.0645;-1.7310;-0.0199;-0.0492;-0.0205
0000160700;-3.4572;-5.9137;-1.6975;-0.0149;-0.0477;-0.0199
0000160712;-3.5219;-5.9687;-1.7023;-0.0176;-0.0426;-0.0228
0000160721;-3.5243;-5.9400;-1.7166;-0.0165;-0.0453;-0.0175
0000160730;-3.6296;-5.9687;-1.8459;-0.0183;-0.0428;-0.0172
0000160743;-3.5362;-6.0142;-1.6879;-0.0180;-0.0432;-0.0071
0000160752;-3.4500;-5.9783;-1.8172;-0.0127;-0.0412;-0.0108
0000160764;-3.4357;-5.9664;-1.7885;-0.0108;-0.0386;-0.0149
0000160773;-3.5721;-6.0190;-1.7789;-0.0035;-0.0502;-0.0169
0000160786;-3.4979;-6.0214;-1.7502;-0.0117;-0.0489;-0.0171
0000160795;-3.4572;-5.7820;-1.8148;-0.0087;-0.0480;-0.0183
0000160807;-3.4165;-5.8634;-1.7214;-0.0131;-0.0470;-0.0156
0000160816;-3.4405;-5.9233;-1.8220;-0.0188;-0.0368;-0.0063
0000160829;-3.6081;-6.0597;-1.6855;-0.0250;-0.0353;-0.0083
0000160838;-3.4405;-6.0023;-1.6879;-0.0167;-0.0374;-0.0091
0000160850;-3.6655;-6.0621;-1.6975;-0.0127;-0.0392;-0.0099
0000160859;-3.4405;-5.8538;-1.7573;-0.0167;-0.0386;-0.0123
0000160928;-3.6176;-6.0310;-1.7358;-0.0148;-0.0453;-0.0147
0000160937;-3.5195;-6.0789;-1.7286;-0.0184;-0.0448;-0.0112
0000160944;-3.4907;-5.9568;-1.7286;-0.0157;-0.0485;-0.0188
0000160955;-3.6105;-5.9807;-1.7310;-0.0221;-0.0436;-0.0189
0000160963;-3.4716;-5.8323;-1.6999;-0.0177;-0.0477;-0.0163
0000160975;-3.3351;-5.7628;-1.7813;-0.0185;-0.0440;-0.0160
0000160983;-3.4237;-5.8514;-1.7741;-0.0195;-0.0380;-0.0128
0000160994;-3.4907;-6.0382;-1.6759;-0.0157;-0.0418;-0.0139
0000161002;-3.4357;-5.9185;-1.7238;-0.0161;-0.0328;-0.0111
0000161014;-3.6105;-6.0501;-1.7358;-0.0145;-0.0344;-0.0113
0000161022;-3.4165;-5.9256;-1.7645;-0.0143;-0.0393;-0.0145
