time;acc_x;acc_y;acc_z;gyro_x;gyro_y;gyro_z
0000675960;-3.2178;-6.0932;2.8060;-0.0079;-0.0124;-0.0204
0000675969;-3.4692;-6.0741;2.8611;-0.0039;-0.0240;-0.0224
0000675976;-3.6296;-6.1339;2.9113;-0.0049;-0.0388;-0.0189
0000675984;-3.2465;-6.0956;2.8563;-0.0051;-0.0337;-0.0187
0000675992;-2.9760;-5.9831;2.8587;-0.0113;-0.0317;-0.0116
0000676000;-2.9018;-6.0454;2.8299;-0.0141;-0.0217;-0.0136
0000676008;-2.8754;-6.1986;3.0119;-0.0085;-0.0125;-0.0144
0000676016;-2.8180;-6.1004;2.9185;-0.0037;-0.0081;-0.0137
0000676024;-2.8659;-6.1579;2.9449;-0.0037;-0.0063;-0.0163
0000676032;-2.7629;-6.1100;3.0861;-0.0055;-0.0008;-0.0099
0000676040;-2.8539;-6.0573;3.0550;0.0089;-0.0004;-0.0020
0000676048;-3.1149;-6.1339;3.0311;0.0119;0.0199;-0.0060
0000676056;-3.3926;-6.0813;3.0358;0.0064;0.0373;-0.0131
0000676064;-3.3782;-6.1794;3.0526;0.0069;0.0199;-0.0127
0000676072;-3.2154;-6.1579;2.9736;0.0108;0.0128;-0.0089
0000676080;-3.0885;-6.0645;3.0526;0.0212;0.0325;-0.0234
0000676088;-2.9784;-6.0501;3.0837;0.0249;0.0265;-0.0171
0000676096;-3.0622;-6.1842;2.9999;0.0261;0.0369;-0.0111
0000676104;-2.9449;-6.2130;3.0119;0.0285;0.0302;-0.0197
0000676112;-3.0287;-6.1268;3.0765;0.0340;0.0240;-0.0218
0000676120;-3.1101;-6.0669;3.0502;0.0382;0.0290;-0.0306
0000676128;-3.1987;-6.1052;3.1149;0.0386;0.0105;-0.0318
0000676136;-3.1556;-6.1411;3.0263;0.0436;-0.0007;-0.0353
0000676144;-2.8323;-6.1196;3.0191;0.0489;-0.0097;0.0029
0000676152;-3.3447;-6.1124;3.0071;0.0448;0.0282;-0.0137
0000676160;-3.5243;-6.0717;2.9712;0.0410;0.0080;-0.0207
0000676168;-3.5338;-6.1459;2.9808;0.0454;-0.0187;-0.0201
0000676176;-3.2322;-6.1483;2.9736;0.0546;-0.0270;-0.0201
0000676184;-3.2609;-6.2321;3.0430;0.0525;-0.0059;-0.0258
0000676192;-3.2250;-6.1076;3.0287;0.0584;-0.0013;-0.0324
0000676200;-3.1508;-6.2656;2.8323;0.0624;-0.0152;-0.0246
0000676208;-2.9473;-6.0837;2.9904;0.0616;-0.0207;-0.0268
0000676216;-2.9928;-6.1555;3.0311;0.0701;-0.0119;-0.0341
0000676224;-3.1388;-6.1028;3.0358;0.0757;-0.0145;-0.0222
0000676232;-3.1867;-6.0717;3.0191;0.0750;-0.0157;-0.0228
0000676240;-3.0023;-5.9807;2.9688;0.0766;-0.0175;-0.0242
0000676248;-3.0957;-6.1268;3.0406;0.0877;-0.0301;-0.0328
0000676256;-3.2561;-6.0573;3.0670;0.0858;-0.0037;-0.0377
0000676264;-3.1005;-6.1770;2.9928;0.0859;-0.0232;-0.0292
0000676272;-3.1460;-6.2752;2.9353;0.1022;-0.0465;-0.0156
0000676280;-3.0981;-5.9592;3.0311;0.1041;-0.0188;-0.0398
0000676288;-3.3279;-6.2106;3.0598;0.0973;-0.0161;-0.0490
0000676296;-3.1891;-6.0789;3.0287;0.1019;-0.0357;-0.0464
0000676304;-3.0718;-6.1675;2.9712;0.0990;-0.0330;-0.0416
0000676312;-3.0742;-5.9927;3.0574;0.0915;-0.0207;-0.0408
0000676320;-3.2010;-6.1699;2.9544;0.0927;-0.0111;-0.0376
0000676328;-2.9951;-5.9544;2.8994;0.0957;-0.0137;-0.0450
0000676336;-3.0765;-6.1004;2.8467;0.0954;-0.0268;-0.0337
0000676344;-3.0239;-6.2010;2.8754;0.0899;-0.0199;-0.0317
0000676352;-2.9640;-6.0813;3.0335;0.0915;-0.0087;-0.0332
0000676360;-3.2298;-6.1723;3.0095;0.0933;-0.0173;-0.0294
0000676368;-3.1388;-6.0334;3.0023;0.0873;-0.0238;-0.0313
0000676376;-3.3064;-6.0717;2.8491;0.0827;-0.0252;-0.0321
0000676384;-3.1532;-5.8873;2.9832;0.0878;-0.0312;-0.0352
0000676392;-3.1795;-6.0214;2.8587;0.0789;-0.0276;-0.0305
0000676400;-3.3112;-6.0741;2.8419;0.0677;-0.0313;-0.0316
0000676408;-3.1556;-6.0765;2.8850;0.0654;-0.0516;-0.0522
0000676416;-2.6935;-6.1076;2.8635;0.0629;-0.0874;-0.0187
0000676424;-3.2082;-6.1268;2.9521;0.0633;-0.0300;-0.0153
0000676432;-3.5362;-6.0789;2.8826;0.0490;-0.0035;-0.0261
0000676440;-3.6344;-6.1890;3.0239;0.0520;-0.0413;-0.0308
0000676448;-3.3184;-6.0956;2.8467;0.0537;-0.0734;-0.0328
0000676456;-3.0765;-6.0501;2.8611;0.0461;-0.0502;-0.0273
0000676464;-2.9640;-6.0118;2.8754;0.0414;-0.0317;-0.0228
0000676472;-3.1173;-6.0142;2.9544;0.0416;-0.0354;-0.0278
0000676480;-3.0933;-6.0549;2.9161;0.0430;-0.0397;-0.0314
0000676488;-3.0047;-5.9783;2.9449;0.0380;-0.0344;-0.0222
0000676496;-3.2202;-6.1723;2.8946;0.0320;-0.0341;-0.0209
0000676504;-3.2130;-6.1531;2.8970;0.0332;-0.0402;-0.0258
0000676512;-3.1005;-5.9280;3.0550;0.0406;-0.0346;-0.0228
0000676597;-2.9808;-6.1459;2.9999;0.0618;-0.0329;-0.0529
0000676605;-2.7988;-6.1028;3.0263;0.0675;-0.0540;-0.0396
0000676613;-2.7390;-5.9735;2.8994;0.0725;-0.0729;-0.0224
0000676621;-3.1580;-5.8730;2.8802;0.0701;-0.0091;-0.0409
0000676629;-3.4979;-5.8275;2.9185;0.0620;-0.0213;-0.0482
0000676637;-3.5099;-6.0478;2.8994;0.0655;-0.0528;-0.0432
0000676645;-3.1508;-6.0023;2.8611;0.0570;-0.0486;-0.0410
0000676653;-3.0813;-5.9879;2.8802;0.0553;-0.0412;-0.0434
0000676661;-3.0406;-5.9400;2.9568;0.0610;-0.0377;-0.0492
0000676669;-3.3184;-6.1914;2.9592;0.0570;-0.0252;-0.0424
0000676677;-3.2010;-6.2393;2.9473;0.0614;-0.0292;-0.0473
0000676685;-3.1603;-6.0645;2.8922;0.0654;-0.0276;-0.0409
0000676693;-3.1340;-6.0837;2.9281;0.0634;-0.0261;-0.0368
0000676701;-3.1460;-5.9711;2.8994;0.0612;-0.0302;-0.0402
0000676709;-3.0574;-5.9951;2.9521;0.0653;-0.0340;-0.0425
0000676717;-3.2058;-6.0238;2.9018;0.0636;-0.0316;-0.0396
0000676725;-3.0742;-5.8921;2.7845;0.0568;-0.0253;-0.0325
0000676733;-3.3519;-6.0190;2.9497;0.0478;-0.0189;-0.0310
0000676741;-3.2561;-5.9664;2.9137;0.0514;-0.0377;-0.0373
0000676749;-3.1891;-6.0238;2.7701;0.0454;-0.0430;-0.0337
0000676757;-3.3902;-5.8730;3.0981;0.0285;-0.0216;-0.0345
0000676765;-3.3016;-6.0837;2.8156;0.0274;-0.0360;-0.0294
0000676773;-3.1173;-5.9448;2.8539;0.0278;-0.0436;-0.0256
0000676781;-2.9928;-5.9616;2.9736;0.0312;-0.0408;-0.0218
0000676789;-3.1508;-6.0358;2.9042;0.0285;-0.0368;-0.0196
0000676797;-3.2657;-6.0621;2.9664;0.0308;-0.0393;-0.0173
0000676805;-3.1939;-6.1124;2.8802;0.0313;-0.0385;-0.0160
0000676813;-3.3662;-6.1483;2.9688;0.0261;-0.0344;-0.0125
0000676821;-3.0598;-5.9161;2.9018;0.0260;-0.0422;-0.0225
0000676829;-3.0646;-5.9640;2.9832;0.0258;-0.0356;-0.0212
0000676837;-3.1125;-5.9328;2.9257;0.0276;-0.0372;-0.0252
0000676845;-3.1340;-6.0837;2.8994;0.0273;-0.0410;-0.0288
0000676853;-3.3279;-6.0980;2.9305;0.0241;-0.0457;-0.0220
0000676861;-3.1915;-5.9879;2.9449;0.0215;-0.0442;-0.0209
0000676869;-3.0502;-5.9280;2.8730;0.0207;-0.0433;-0.0242
0000676877;-3.1508;-6.0118;2.9928;0.0248;-0.0593;-0.0254
0000676885;-3.3327;-6.0765;2.9257;0.0147;-0.0472;-0.0221
0000676893;-3.2034;-5.9951;2.9066;0.0147;-0.0440;-0.0204
0000676901;-3.2058;-6.0765;2.8994;0.0165;-0.0424;-0.0224
0000676909;-3.1651;-5.9161;3.0311;0.0112;-0.0377;-0.0169
0000676917;-3.0933;-6.0071;2.8874;0.0088;-0.0502;-0.0137
0000676925;-3.0382;-6.0238;2.8994;0.0051;-0.0481;-0.0156
0000676933;-3.0239;-5.9783;2.9209;0.0095;-0.0414;-0.0147
0000676941;-3.0957;-6.0885;2.9497;0.0029;-0.0366;-0.0124
0000676949;-3.2441;-6.1842;2.9137;0.0004;-0.0350;-0.0131
0000676957;-3.1436;-6.1292;2.9592;-0.0011;-0.0349;-0.0089
0000676965;-3.0335;-6.0621;2.8802;0.0071;-0.0365;-0.0196
0000676973;-3.2202;-6.2058;2.9473;0.0064;-0.0278;-0.0111
0000676981;-3.2322;-6.0956;3.0550;0.0116;-0.0288;-0.0120
0000676989;-3.2848;-6.1411;2.9066;0.0084;-0.0230;-0.0123
0000676997;-3.1603;-5.9209;2.8850;0.0139;-0.0330;-0.0196
0000677005;-3.1196;-5.9041;2.8730;0.0099;-0.0277;-0.0176
0000677013;-3.0646;-5.9711;2.9473;0.0024;-0.0302;-0.0155
0000677021;-3.1460;-5.9448;2.9880;0.0023;-0.0269;-0.0139
0000677029;-3.0885;-5.8993;3.0718;0.0000;-0.0305;-0.0220
0000677037;-3.1436;-6.2130;2.7749;-0.0033;-0.0360;-0.0144
0000677045;-3.1484;-5.9616;2.8635;-0.0017;-0.0298;-0.0168
0000677053;-3.2561;-6.1004;2.9066;-0.0099;-0.0260;-0.0105
0000677061;-2.9712;-5.9735;2.9880;-0.0124;-0.0290;-0.0048
0000677069;-2.9377;-5.8347;2.9521;-0.0128;-0.0266;-0.0064
0000677077;-2.8994;-5.8921;2.9712;-0.0108;-0.0230;-0.0051
0000677085;-3.0861;-6.0166;2.9137;-0.0071;-0.0249;-0.0065
0000677093;-2.9137;-5.8634;2.8850;-0.0112;-0.0105;-0.0056
0000677101;-3.0694;-6.0286;2.8730;-0.0128;-0.0108;-0.0085
0000677109;-3.0335;-6.0813;2.8036;-0.0073;-0.0117;-0.0089
0000677117;-3.0670;-6.0549;2.8946;-0.0091;-0.0063;-0.0088
0000677125;-3.2609;-6.0669;2.9066;-0.0052;-0.0144;-0.0117
0000677133;-3.2489;-6.0286;2.9042;-0.0008;-0.0168;-0.0119
0000677141;-3.2082;-5.9855;2.9497;-0.0021;-0.0107;-0.0073
0000677149;-3.1795;-6.0238;2.9090;-0.0005;-0.0121;-0.0080
0000677157;-3.2178;-5.9735;2.9233;0.0044;-0.0176;-0.0136
0000677243;-3.1077;-5.9137;2.8587;0.0027;-0.0001;-0.0081
0000677251;-3.1603;-5.9448;2.9784;0.0032;-0.0035;-0.0091
0000677259;-3.1196;-5.9352;2.9042;0.0087;-0.0173;-0.0084
0000677267;-3.3830;-6.1028;2.9161;0.0056;-0.0184;-0.0011
0000677275;-3.2322;-6.1316;2.9042;0.0089;-0.0292;-0.0057
0000677283;-3.2657;-6.0932;2.8802;0.0077;-0.0320;-0.0048
0000677291;-3.2513;-6.0813;2.8419;0.0065;-0.0269;-0.0028
0000677299;-3.1795;-6.0501;2.9449;-0.0011;-0.0172;-0.0127
0000677307;-3.0742;-6.0693;2.8539;0.0052;-0.0350;-0.0069
0000677315;-3.2322;-5.9975;2.9209;0.0051;-0.0281;0.0005
0000677323;-3.0478;-5.8371;2.8611;0.0019;-0.0281;0.0011
0000677331;-3.1915;-6.0406;2.9736;-0.0063;-0.0230;0.0004
0000677339;-3.0071;-5.8155;2.8467;-0.0039;-0.0306;0.0020
0000677347;-3.0933;-5.8203;2.9233;-0.0077;-0.0264;0.0025
0000677355;-3.3495;-5.9879;2.9042;-0.0164;-0.0200;-0.0101
0000677363;-3.2250;-6.1387;2.8850;-0.0127;-0.0350;-0.0021
0000677371;-3.1651;-6.0813;2.9928;-0.0168;-0.0244;0.0056
0000677379;-2.9904;-5.9256;2.9473;-0.0160;-0.0216;-0.0036
0000677387;-3.1364;-6.0478;2.8683;-0.0211;-0.0228;0.0005
0000677395;-3.2346;-6.0861;2.9521;-0.0180;-0.0232;0.0039
0000677403;-3.1747;-5.9424;2.8946;-0.0238;-0.0212;0.0077
0000677411;-3.2010;-6.1172;2.9425;-0.0240;-0.0257;0.0045
0000677419;-3.2729;-6.1172;2.8970;-0.0277;-0.0222;0.0072
0000677427;-3.0909;-5.9783;2.9497;-0.0296;-0.0140;0.0053
0000677435;-3.2202;-5.8945;3.0239;-0.0297;-0.0135;-0.0088
0000677443;-3.1101;-6.2201;2.8060;-0.0273;-0.0269;-0.0008
0000677451;-3.1149;-6.0478;2.8228;-0.0273;-0.0248;0.0037
0000677459;-3.1196;-6.2010;2.9449;-0.0297;-0.0241;-0.0043
0000677467;-3.2034;-6.1770;2.8874;-0.0305;-0.0228;0.0007
0000677475;-3.0311;-5.9233;2.9018;-0.0344;-0.0192;0.0067
0000677483;-3.1053;-6.0166;2.9568;-0.0366;-0.0187;0.0028
0000677491;-3.1843;-5.9687;2.8563;-0.0324;-0.0171;0.0016
0000677499;-3.1101;-5.9879;2.9066;-0.0400;-0.0181;0.0044
0000677507;-3.1891;-5.8203;2.9449;-0.0328;-0.0100;-0.0049
0000677515;-3.1268;-6.0837;2.8706;-0.0364;-0.0184;0.0033
0000677523;-3.1508;-6.0190;2.9233;-0.0333;-0.0264;-0.0035
0000677531;-3.2633;-6.0549;2.9521;-0.0298;-0.0230;-0.0073
0000677539;-3.1220;-5.9280;2.9760;-0.0293;-0.0141;-0.0020
0000677547;-3.3734;-6.0861;2.8419;-0.0298;-0.0180;-0.0061
0000677555;-3.2705;-6.1746;2.7916;-0.0238;-0.0238;-0.0059
0000677563;-3.2537;-6.0717;2.8778;-0.0269;-0.0216;-0.0093
0000677571;-2.9712;-6.0238;2.8539;-0.0187;-0.0324;-0.0175
0000677579;-3.1795;-5.9951;2.8970;-0.0175;-0.0301;-0.0121
0000677587;-3.0885;-6.0071;2.9281;-0.0156;-0.0242;-0.0097
0000677595;-3.1771;-6.0525;2.8778;-0.0125;-0.0306;-0.0185
0000677603;-3.1460;-6.0765;2.7557;-0.0020;-0.0366;-0.0197
0000677611;-2.9233;-5.8538;2.8946;0.0020;-0.0368;-0.0088
0000677619;-3.1101;-6.0573;2.7964;-0.0037;-0.0309;-0.0113
0000677627;-3.1173;-6.0669;2.9137;0.0000;-0.0300;-0.0085
0000677635;-2.8539;-5.8538;2.8563;0.0048;-0.0300;-0.0143
0000677643;-3.2394;-5.9041;2.8683;0.0001;-0.0294;-0.0096
0000677651;-3.2537;-6.0382;2.8611;0.0035;-0.0268;-0.0083
0000677659;-3.4381;-6.1603;2.9257;0.0015;-0.0321;-0.0168
0000677667;-3.2178;-5.9951;2.9161;0.0035;-0.0324;-0.0136
0000677675;-3.1987;-5.9855;2.8347;-0.0001;-0.0328;-0.0127
0000677683;-3.1101;-5.9137;2.7677;0.0016;-0.0364;-0.0161
0000677691;-3.3136;-6.0262;2.9401;-0.0003;-0.0294;-0.0220
0000677699;-3.2633;-6.1124;2.8611;-0.0005;-0.0420;-0.0149
0000677707;-2.9568;-5.9520;2.8371;0.0077;-0.0457;-0.0109
0000677715;-3.2178;-6.0765;2.8754;0.0032;-0.0353;-0.0067
0000677723;-3.1795;-6.1603;2.8108;-0.0009;-0.0340;-0.0071
0000677731;-3.0981;-6.0358;2.8467;0.0027;-0.0354;-0.0084
0000677739;-3.1196;-5.9759;2.8850;-0.0011;-0.0333;-0.0091
0000677747;-3.1699;-5.8802;2.8515;0.0017;-0.0366;-0.0127
0000677755;-3.3232;-6.0094;2.8778;0.0073;-0.0429;-0.0141
0000677763;-3.3447;-6.0908;2.8467;0.0076;-0.0441;-0.0140
0000677771;-3.0598;-5.9209;2.6600;0.0044;-0.0425;-0.0099
0000677779;-3.3519;-6.0741;2.8611;0.0048;-0.0436;-0.0241
0000677787;-3.3782;-6.1699;2.7485;0.0095;-0.0586;-0.0080
0000677795;-3.3208;-6.0501;2.8419;0.0072;-0.0572;-0.0084
0000677880;-3.0358;-5.9041;2.7845;-0.0055;-0.0600;-0.0076
0000677888;-3.1268;-5.8514;2.8850;-0.0073;-0.0448;-0.0127
0000677896;-3.0287;-6.0142;2.7964;-0.0061;-0.0516;-0.0095
0000677904;-2.9856;-5.8873;2.6887;-0.0053;-0.0566;-0.0044
0000677912;-3.2394;-6.0190;2.8922;-0.0125;-0.0468;-0.0048
0000677920;-3.1915;-5.8442;2.9592;-0.0156;-0.0513;-0.0023
0000677928;-3.2825;-6.0501;2.8683;-0.0188;-0.0486;-0.0075
0000677936;-3.1460;-5.9664;2.8635;-0.0156;-0.0445;-0.0116
0000677944;-3.1723;-6.0501;2.8587;-0.0161;-0.0461;-0.0044
0000677952;-2.9832;-5.8921;2.8084;-0.0179;-0.0518;-0.0033
0000677960;-3.1723;-6.0023;2.8635;-0.0167;-0.0530;-0.0123
0000677968;-3.0406;-5.9975;2.8826;-0.0201;-0.0508;-0.0132
0000677976;-3.0598;-5.9041;2.9042;-0.0216;-0.0545;-0.0222
0000677984;-3.1603;-6.0334;2.8323;-0.0172;-0.0418;-0.0212
0000677992;-3.1340;-5.9999;3.0095;-0.0175;-0.0417;-0.0167
0000678000;-3.2489;-5.8658;2.8299;-0.0209;-0.0334;-0.0045
0000678008;-2.9497;-5.7652;2.7629;-0.0276;-0.0497;-0.0020
0000678016;-3.0909;-5.9951;2.8874;-0.0252;-0.0758;0.0056
0000678024;-3.0861;-5.9999;2.8730;-0.0328;-0.0570;-0.0037
0000678032;-3.4237;-5.9041;2.8084;-0.0316;-0.0300;-0.0156
0000678040;-3.3495;-5.9616;2.8611;-0.0332;-0.0289;-0.0005
0000678048;-3.3327;-6.1507;2.8012;-0.0384;-0.0449;0.0020
0000678056;-3.1508;-5.9496;2.8635;-0.0386;-0.0450;0.0059
0000678064;-3.1244;-5.9568;2.9281;-0.0394;-0.0434;0.0017
0000678072;-3.0550;-5.8538;2.8395;-0.0385;-0.0420;-0.0028
0000678080;-3.2178;-5.9927;2.9185;-0.0396;-0.0412;0.0024
0000678088;-3.2370;-5.9855;2.9377;-0.0361;-0.0389;0.0041
0000678096;-3.1819;-6.0238;3.0358;-0.0325;-0.0372;-0.0004
0000678104;-3.1963;-6.1866;2.8778;-0.0284;-0.0413;-0.0039
0000678112;-3.1388;-5.9520;2.8491;-0.0314;-0.0476;0.0008
0000678120;-3.2298;-6.0621;2.8706;-0.0249;-0.0472;-0.0047
0000678128;-3.1867;-6.0238;2.8395;-0.0237;-0.0485;-0.0061
0000678136;-3.1795;-6.0908;2.9090;-0.0236;-0.0444;-0.0048
0000678144;-3.1340;-5.9137;2.8515;-0.0229;-0.0412;-0.0105
0000678152;-3.2585;-6.0645;2.9808;-0.0183;-0.0470;-0.0216
0000678160;-2.9808;-6.1531;2.8587;-0.0181;-0.0710;0.0049
0000678168;-3.1292;-5.7581;2.8946;-0.0169;-0.0163;-0.0063
0000678176;-3.3112;-5.8682;2.9257;-0.0192;-0.0274;-0.0087
0000678184;-3.2394;-5.8849;2.8419;-0.0189;-0.0514;-0.0011
0000678192;-3.1149;-5.9041;2.8108;-0.0218;-0.0502;-0.0072
0000678200;-3.1819;-6.0118;2.8132;-0.0165;-0.0405;-0.0099
0000678208;-3.0119;-5.8802;2.9161;-0.0135;-0.0468;-0.0181
0000678216;-3.0765;-5.9496;2.9090;-0.0137;-0.0461;-0.0161
0000678224;-3.0502;-5.9879;2.9928;-0.0169;-0.0416;-0.0107
0000678232;-3.0933;-5.9233;2.8826;-0.0129;-0.0430;-0.0144
0000678240;-3.0909;-6.0478;2.9401;-0.0200;-0.0405;-0.0097
0000678248;-3.1316;-5.8754;2.9975;-0.0161;-0.0433;-0.0075
0000678256;-3.0909;-5.8107;2.8371;-0.0139;-0.0468;-0.0109
0000678264;-3.2322;-6.0645;2.8683;-0.0159;-0.0466;-0.0035
0000678272;-3.1388;-5.8395;2.8371;-0.0236;-0.0396;-0.0033
0000678280;-3.1723;-5.9783;2.8587;-0.0269;-0.0340;0.0005
0000678288;-3.3974;-6.1124;2.9113;-0.0241;-0.0353;-0.0097
0000678296;-3.1556;-5.9807;2.9090;-0.0226;-0.0413;-0.0083
0000678304;-3.2058;-6.0334;2.8084;-0.0229;-0.0350;-0.0035
0000678312;-3.1053;-6.0238;2.8659;-0.0245;-0.0358;-0.0088
0000678320;-3.3423;-5.9280;2.8467;-0.0217;-0.0417;-0.0072
0000678328;-3.2657;-6.0118;2.8491;-0.0266;-0.0374;-0.0064
0000678336;-3.3136;-6.0214;2.9568;-0.0252;-0.0394;-0.0097
0000678344;-2.9568;-5.8107;2.8084;-0.0225;-0.0402;-0.0083
0000678352;-3.0813;-5.8873;2.7797;-0.0304;-0.0360;-0.0041
0000678360;-3.2130;-5.9472;2.8084;-0.0272;-0.0412;-0.0085
0000678368;-3.1843;-5.9687;2.7869;-0.0280;-0.0458;-0.0044
0000678376;-3.0167;-6.0334;2.7869;-0.0302;-0.0450;-0.0071
0000678384;-3.1867;-5.9520;2.8419;-0.0293;-0.0457;-0.0072
0000678392;-3.1819;-6.1220;2.8946;-0.0274;-0.0532;-0.0152
0000678400;-2.7821;-6.0334;2.9521;-0.0389;-0.0842;0.0001
0000678408;-3.2920;-6.0885;2.8395;-0.0207;-0.0330;-0.0032
0000678416;-3.4524;-5.9520;2.7892;-0.0304;-0.0049;-0.0089
0000678424;-3.4788;-6.0094;2.8826;-0.0249;-0.0441;-0.0099
0000678432;-3.2274;-5.9472;2.8850;-0.0262;-0.0536;-0.0051
0000678518;-3.1316;-6.0406;2.9401;-0.0207;-0.0131;-0.0144
0000678526;-2.9904;-5.9256;2.9257;-0.0220;-0.0109;-0.0191
0000678534;-3.0478;-6.0214;2.9832;-0.0173;-0.0009;-0.0185
0000678542;-3.0215;-5.8802;3.0239;-0.0196;-0.0001;-0.0216
0000678550;-2.8850;-5.8754;3.0095;-0.0197;-0.0041;-0.0143
0000678558;-2.7916;-5.9640;2.8683;-0.0173;-0.0420;-0.0041
0000678566;-3.2250;-6.0214;2.9353;-0.0225;0.0218;-0.0145
0000678574;-3.5889;-5.9472;2.9521;-0.0212;0.0306;-0.0092
0000678582;-3.3112;-5.8969;3.0023;-0.0172;-0.0085;-0.0055
0000678590;-3.4644;-5.9735;2.9137;-0.0163;-0.0127;-0.0028
0000678598;-3.1412;-5.8419;2.8994;-0.0184;-0.0136;-0.0115
0000678606;-3.2681;-5.8826;2.9688;-0.0258;-0.0077;-0.0065
0000678614;-3.1125;-5.8395;2.9329;-0.0236;-0.0171;-0.0135
0000678622;-3.0502;-5.8442;2.9449;-0.0242;-0.0179;-0.0059
0000678630;-3.3016;-6.0071;2.9616;-0.0272;-0.0204;-0.0084
0000678638;-3.2872;-5.9424;2.8850;-0.0192;-0.0377;-0.0129
0000678646;-3.3734;-6.1028;2.8539;-0.0181;-0.0405;-0.0164
0000678654;-3.1843;-5.8754;2.8515;-0.0208;-0.0454;-0.0125
0000678662;-3.2705;-6.0238;2.8012;-0.0181;-0.0518;-0.0128
0000678670;-3.0430;-5.8849;2.7845;-0.0187;-0.0542;-0.0061
0000678678;-3.3016;-5.9520;2.9018;-0.0264;-0.0478;-0.0036
0000678686;-3.1603;-5.9664;2.8970;-0.0282;-0.0538;-0.0032
0000678694;-3.1364;-5.7988;2.8611;-0.0260;-0.0628;-0.0053
0000678702;-3.2298;-5.9544;2.8826;-0.0266;-0.0636;-0.0065
0000678710;-3.0742;-5.8802;2.9305;-0.0337;-0.0594;-0.0040
0000678718;-3.1484;-6.0669;2.9090;-0.0344;-0.0608;0.0003
0000678726;-3.1963;-6.0501;2.9018;-0.0309;-0.0557;-0.0027
0000678734;-3.2178;-6.0741;2.9592;-0.0365;-0.0561;-0.0064
0000678742;-3.0622;-5.9616;2.9640;-0.0324;-0.0556;-0.0093
0000678750;-3.2681;-6.0932;2.9544;-0.0244;-0.0561;-0.0121
0000678758;-3.0574;-5.8395;2.7821;-0.0273;-0.0549;-0.0063
0000678766;-3.0287;-5.8634;2.9736;-0.0244;-0.0510;-0.0089
0000678774;-3.1460;-6.0885;2.9544;-0.0234;-0.0477;-0.0105
0000678782;-2.8874;-5.8706;2.9018;-0.0181;-0.0452;-0.0129
0000678790;-2.9449;-5.9544;2.8443;-0.0209;-0.0390;-0.0068
0000678798;-2.7557;-5.7269;2.9113;-0.0197;-0.0372;-0.0116
0000678806;-3.0526;-6.0549;2.8970;-0.0211;-0.0294;-0.0139
0000678814;-2.9568;-5.8682;2.8754;-0.0127;-0.0330;-0.0208
0000678822;-3.0694;-5.9879;2.9257;-0.0181;-0.0265;-0.0188
0000678830;-3.1603;-6.1435;2.9544;-0.0157;-0.0236;-0.0176
0000678838;-3.0885;-5.9041;3.0215;-0.0100;-0.0262;-0.0195
0000678846;-3.0694;-5.8826;2.9688;-0.0168;-0.0176;-0.0168
0000678854;-3.1460;-5.9855;2.9904;-0.0163;-0.0208;-0.0171
0000678862;-3.1196;-5.9113;2.9233;-0.0141;-0.0192;-0.0193
0000678870;-3.1149;-5.8634;2.8850;-0.0037;-0.0233;-0.0213
0000678878;-3.0861;-5.9568;2.8802;-0.0071;-0.0193;-0.0176
0000678886;-3.2705;-6.0190;2.8659;-0.0059;-0.0244;-0.0192
0000678894;-3.0885;-5.7940;2.9425;0.0025;-0.0292;-0.0196
0000678902;-3.1220;-5.7796;2.9185;-0.0020;-0.0240;-0.0203
0000678910;-3.2202;-5.9783;2.7749;-0.0100;-0.0238;-0.0124
0000678918;-3.2896;-6.0406;2.9425;-0.0011;-0.0342;-0.0145
0000678926;-3.2968;-5.9568;2.9042;-0.0091;-0.0348;-0.0129
0000678934;-3.2609;-5.8849;2.7940;-0.0165;-0.0357;-0.0061
0000678942;-3.1460;-5.8993;2.8635;-0.0199;-0.0389;-0.0036
0000678950;-3.2130;-5.9640;2.7605;-0.0215;-0.0438;-0.0043
0000678958;-3.1053;-5.7628;2.8611;-0.0276;-0.0444;0.0009
0000678966;-3.2417;-6.0741;2.8898;-0.0238;-0.0462;0.0024
0000678974;-3.2058;-5.8873;2.8252;-0.0282;-0.0489;0.0095
0000678982;-3.0861;-5.9233;2.8539;-0.0248;-0.0525;0.0085
0000678990;-3.3208;-6.0765;2.8683;-0.0207;-0.0558;0.0077
0000678998;-3.0789;-6.0310;2.8563;-0.0212;-0.0590;0.0063
0000679006;-3.0502;-5.8969;2.7892;-0.0197;-0.0596;0.0096
0000679014;-3.0981;-6.0047;2.9233;-0.0171;-0.0578;0.0089
0000679022;-3.1388;-6.0118;2.8252;-0.0173;-0.0604;0.0023
0000679030;-3.0382;-5.9759;2.8898;-0.0167;-0.0566;0.0077
0000679038;-3.1340;-6.1196;2.9592;-0.0071;-0.0609;-0.0013
0000679046;-2.9975;-6.1004;3.0095;-0.0087;-0.0530;0.0015
0000679054;-3.0406;-5.8921;2.8994;-0.0048;-0.0497;-0.0001
0000679062;-2.9832;-6.0501;2.9377;0.0012;-0.0486;-0.0077
0000679148;-3.0287;-5.9137;2.9113;0.0266;-0.0296;-0.0282
0000679156;-3.0239;-5.9400;2.9544;0.0213;-0.0260;-0.0244
0000679164;-3.0742;-5.8275;2.9568;0.0168;-0.0216;-0.0197
0000679172;-2.9999;-5.8730;2.8778;0.0113;-0.0297;-0.0261
0000679180;-3.2202;-6.0741;2.8994;0.0139;-0.0308;-0.0272
0000679188;-3.0406;-5.9376;2.9449;0.0092;-0.0276;-0.0211
0000679196;-3.1915;-6.0358;2.9712;0.0084;-0.0289;-0.0334
0000679204;-3.0670;-5.8347;2.9592;0.0119;-0.0330;-0.0326
0000679212;-3.0694;-5.9903;2.9856;0.0064;-0.0284;-0.0230
0000679220;-3.1603;-6.0525;3.0430;0.0015;-0.0328;-0.0293
0000679228;-3.2753;-6.0717;2.9281;0.0053;-0.0345;-0.0281
0000679236;-3.2370;-5.9256;2.9425;0.0049;-0.0338;-0.0272
0000679244;-3.1747;-5.9256;2.8850;-0.0019;-0.0273;-0.0217
0000679252;-3.0502;-5.8586;2.8946;0.0000;-0.0324;-0.0256
0000679260;-3.2106;-6.0166;2.9377;-0.0043;-0.0286;-0.0203
0000679268;-3.1436;-5.9999;2.8898;-0.0001;-0.0318;-0.0246
0000679276;-3.1149;-5.9017;2.8419;-0.0017;-0.0346;-0.0302
0000679284;-3.1771;-5.8826;2.9521;-0.0028;-0.0317;-0.0230
0000679292;-3.2513;-5.9783;2.8539;-0.0107;-0.0270;-0.0189
0000679300;-3.1699;-5.8897;2.7485;-0.0203;-0.0273;-0.0204
0000679308;-3.2322;-5.8682;2.7533;-0.0128;-0.0401;-0.0207
0000679316;-3.1556;-5.8921;2.8635;-0.0211;-0.0513;-0.0212
0000679324;-3.2992;-5.9065;2.8515;-0.0300;-0.0422;-0.0172
0000679332;-3.3255;-5.8682;2.8802;-0.0301;-0.0390;-0.0238
0000679340;-3.3639;-6.0789;2.9856;-0.0401;-0.0317;-0.0185
0000679348;-3.0311;-5.7628;2.9257;-0.0474;-0.0226;-0.0135
0000679356;-3.0933;-5.7581;2.8730;-0.0568;-0.0225;-0.0171
0000679364;-3.1077;-5.8682;2.7701;-0.0602;-0.0378;-0.0220
0000679372;-3.1412;-5.9017;2.9401;-0.0683;-0.0281;-0.0115
0000679380;-3.1053;-5.8754;2.8826;-0.0665;-0.0310;-0.0148
0000679388;-2.9353;-5.8921;2.8299;-0.0769;-0.0254;-0.0079
0000679396;-3.0167;-5.8490;2.9018;-0.0749;-0.0254;-0.0137
0000679404;-3.0023;-5.9161;2.8587;-0.0759;-0.0195;-0.0064
0000679412;-3.1388;-6.0932;2.8467;-0.0823;-0.0201;-0.0092
0000679420;-3.2034;-6.0478;2.8994;-0.0817;-0.0161;-0.0159
0000679428;-3.1987;-6.0861;2.8587;-0.0674;-0.0173;-0.0145
0000679436;-2.9832;-5.9185;2.8371;-0.0678;-0.0161;-0.0111
0000679444;-3.0622;-5.9209;2.8970;-0.0693;-0.0171;-0.0164
0000679452;-3.1053;-5.9376;2.9880;-0.0608;-0.0232;-0.0145
0000679460;-3.0837;-5.9568;2.9832;-0.0589;-0.0152;-0.0161
0000679468;-3.0885;-6.0071;2.8395;-0.0620;-0.0147;-0.0076
0000679476;-3.1436;-6.0118;2.9425;-0.0600;-0.0169;-0.0104
0000679484;-3.0287;-5.8538;3.0430;-0.0545;-0.0242;-0.0171
0000679492;-3.0478;-5.9735;3.1077;-0.0521;-0.0211;-0.0209
0000679500;-3.0718;-6.0023;3.0311;-0.0466;-0.0233;-0.0253
0000679508;-3.0287;-5.9568;3.0742;-0.0421;-0.0282;-0.0269
0000679516;-3.0311;-6.0765;3.0215;-0.0410;-0.0236;-0.0237
0000679524;-2.9999;-5.8969;3.0694;-0.0296;-0.0281;-0.0272
0000679532;-3.1244;-6.0573;3.1388;-0.0268;-0.0344;-0.0245
0000679540;-2.9544;-5.8921;3.1388;-0.0207;-0.0377;-0.0313
0000679548;-3.2417;-5.9951;3.2106;-0.0104;-0.0494;-0.0397
0000679556;-3.0694;-5.9089;3.2130;-0.0103;-0.0478;-0.0361
0000679564;-3.2370;-5.9711;3.3375;-0.0044;-0.0565;-0.0388
0000679572;-3.1436;-6.0717;3.2896;-0.0051;-0.0625;-0.0373
0000679580;-3.0765;-5.9065;3.2561;0.0009;-0.0765;-0.0385
0000679588;-3.2274;-6.0286;3.3136;0.0159;-0.0979;-0.0420
0000679596;-3.1603;-6.0932;3.4668;0.0197;-0.1081;-0.0382
0000679604;-3.0502;-6.0358;3.4764;0.0204;-0.1230;-0.0360
0000679612;-3.1699;-6.0190;3.4955;0.0336;-0.1368;-0.0440
0000679620;-2.9209;-5.7772;3.5386;0.0412;-0.1475;-0.0345
0000679628;-3.0598;-5.9879;3.6129;0.0452;-0.1620;-0.0432
0000679636;-3.1005;-6.0765;3.5051;0.0490;-0.1703;-0.0374
0000679644;-2.9808;-5.9592;3.6943;0.0441;-0.1797;-0.0429
0000679652;-2.9784;-5.9233;3.6631;0.0412;-0.1978;-0.0457
0000679660;-3.1149;-5.9640;3.7350;0.0402;-0.2210;-0.0576
0000679668;-3.2106;-6.1579;3.7948;0.0324;-0.2426;-0.0600
0000679676;-3.3567;-6.1938;3.8451;0.0418;-0.2679;-0.0689
0000679684;-3.1675;-6.0047;3.9528;0.0325;-0.2848;-0.0734
0000679692;-3.2633;-6.1459;3.9911;0.0309;-0.3126;-0.0851
0000679700;-3.1460;-5.9903;4.0486;0.0215;-0.3400;-0.0886
0000679785;-2.6863;-6.1603;4.8195;-0.0994;-0.5800;-0.1363
0000679793;-2.7318;-6.1100;4.7812;-0.1132;-0.6057;-0.1388
0000679801;-2.4732;-6.0956;4.8794;-0.1222;-0.6423;-0.1367
0000679809;-2.4469;-6.0549;4.9273;-0.1378;-0.6711;-0.1358
0000679817;-2.1907;-5.9664;5.0446;-0.1592;-0.6780;-0.1339
0000679825;-1.9321;-6.1148;5.1092;-0.1852;-0.6837;-0.1331
0000679833;-1.6520;-6.1435;5.0230;-0.2002;-0.6769;-0.1324
0000679841;-1.1492;-6.1316;5.0996;-0.2170;-0.6468;-0.1124
0000679849;-0.9792;-6.2345;5.0063;-0.2332;-0.6261;-0.0877
0000679857;-1.1037;-6.5721;4.7932;-0.2368;-0.6257;-0.0644
0000679865;-1.1444;-6.4643;4.7836;-0.2558;-0.6336;-0.0445
0000679873;-0.9194;-6.4380;4.7357;-0.2657;-0.6611;-0.0365
0000679881;-0.8571;-6.4404;4.5873;-0.2686;-0.6690;-0.0121
0000679889;-0.7590;-6.5864;4.3814;-0.2809;-0.6752;0.0211
0000679897;-0.4549;-6.3973;4.2976;-0.2826;-0.6670;0.0569
0000679905;-0.5076;-6.4979;3.9217;-0.2581;-0.6973;0.1001
0000679913;-0.7302;-6.4524;3.7014;-0.2354;-0.7105;0.1322
0000679921;-0.8068;-6.4667;3.4069;-0.2256;-0.7549;0.1693
0000679929;-0.9385;-6.8905;3.2298;-0.1973;-0.8247;0.2008
0000679937;-0.8906;-7.1299;3.0502;-0.1599;-0.8708;0.2110
0000679945;-1.0199;-7.4484;2.8946;-0.1166;-0.9294;0.2368
0000679953;-1.0008;-7.4340;2.9305;-0.0493;-0.9795;0.2543
0000679961;-0.6800;-7.2520;3.1771;0.0135;-0.9968;0.2635
0000679969;-0.8643;-7.2137;3.4022;0.0679;-1.0106;0.2250
0000679977;-0.8428;-6.6822;3.5721;0.0873;-0.9994;0.1476
0000679985;-0.7925;-5.9424;3.4477;0.0751;-0.9626;0.0520
0000679993;-0.7350;-5.4612;3.4668;0.0326;-0.9411;-0.0500
0000680001;-0.4334;-5.0805;3.4141;-0.0241;-0.9228;-0.1398
0000680009;-0.1844;-4.6208;3.4931;-0.0985;-0.8815;-0.2018
0000680017;-0.1987;-4.7645;3.4213;-0.1681;-0.8424;-0.2415
0000680025;0.1532;-4.9512;3.4022;-0.2403;-0.8019;-0.2590
0000680033;0.2634;-5.1882;3.3327;-0.2998;-0.7779;-0.2499
0000680041;0.6249;-5.6431;3.2058;-0.3413;-0.7466;-0.2126
0000680049;0.4046;-6.2513;2.9832;-0.3564;-0.6851;-0.1604
0000680057;0.7518;-6.4739;2.9544;-0.3583;-0.6434;-0.1086
0000680065;0.8188;-6.6990;2.9377;-0.3276;-0.5906;-0.0530
0000680073;0.8308;-6.7540;2.9113;-0.2963;-0.5172;-0.0032
0000680081;0.7135;-6.6248;2.9616;-0.2538;-0.4655;0.0354
0000680089;0.5746;-6.5218;3.0813;-0.2256;-0.3969;0.0625
0000680097;0.4118;-6.2824;3.1987;-0.1962;-0.3403;0.0541
0000680105;0.3903;-6.0286;3.3662;-0.1849;-0.2649;0.0172
0000680113;0.3639;-5.8658;3.4141;-0.1936;-0.1949;-0.0234
0000680121;0.4932;-5.5450;3.6320;-0.2108;-0.1112;-0.0659
0000680129;0.3711;-5.3439;3.4907;-0.2362;-0.0081;-0.1078
0000680137;0.2107;-5.4253;3.4069;-0.2606;0.0542;-0.1140
0000680145;-0.0431;-5.6958;3.4429;-0.2867;0.0626;-0.0810
0000680153;-0.4549;-6.0406;3.6176;-0.2960;0.0874;-0.0168
0000680161;-0.9433;-6.7014;3.8547;-0.2928;0.0803;0.0616
0000680169;-1.3336;-7.0892;4.1348;-0.2766;0.0951;0.1471
0000680177;-2.0686;-7.5393;4.5849;-0.2364;0.1483;0.2609
0000680185;-2.1835;-7.4603;4.5969;-0.1973;0.1565;0.3451
0000680193;-2.5163;-7.1180;4.9249;-0.1645;0.2166;0.3869
0000680201;-2.2625;-6.7397;4.7716;-0.1600;0.2349;0.3960
0000680209;-2.1835;-6.4739;4.7836;-0.1456;0.2581;0.3676
0000680217;-1.6376;-5.8538;5.0805;-0.1462;0.2860;0.3156
0000680225;-1.5012;-5.4684;5.1260;-0.1420;0.3504;0.2450
0000680233;-1.4820;-5.4277;4.9991;-0.1396;0.4073;0.1685
0000680241;-1.3599;-5.2672;4.9680;-0.1483;0.4363;0.0953
0000680249;-1.5562;-5.5210;4.9392;-0.1539;0.4735;0.0501
0000680257;-1.4078;-5.6934;4.8698;-0.1556;0.4898;0.0059
0000680265;-1.8627;-6.4141;5.2241;-0.1506;0.5155;-0.0004
0000680273;-1.9489;-7.0773;5.5761;-0.1404;0.5641;0.0266
0000680281;-2.6217;-7.6423;5.9137;-0.1025;0.6698;0.0999
0000680289;-2.6887;-7.8937;5.8706;-0.0565;0.7466;0.1978
0000680297;-3.0358;-7.7117;6.0861;-0.0237;0.8155;0.2631
0000680305;-3.0047;-7.1922;5.9999;-0.0129;0.8356;0.3011
0000680313;-2.9233;-6.6056;5.9568;-0.0092;0.9237;0.3144
0000680321;-2.8898;-5.9831;5.7341;0.0112;0.9799;0.3289
0000680329;-2.7102;-5.5162;5.4085;0.0294;0.9771;0.3528
0000680337;-2.9305;-5.2577;5.4061;0.0313;0.9721;0.3269
0000680345;-3.2753;-4.9368;5.4875;0.0059;1.0249;0.2470
0000680446;-5.3079;-5.4085;3.8044;0.0975;1.4028;0.0837
0000680454;-6.3949;-5.4205;3.7038;0.0871;1.3839;0.0632
0000680462;-6.8690;-5.3870;3.8451;0.0798;1.3611;0.0123
0000680470;-7.1563;-5.7174;3.8786;0.0822;1.3363;-0.0480
0000680478;-7.0677;-6.3710;3.7565;0.0891;1.3205;-0.0569
0000680486;-6.6679;-6.8091;3.6224;0.1096;1.3586;-0.0356
0000680494;-6.2393;-6.8594;3.8283;0.1340;1.4572;-0.0008
0000680502;-5.9185;-6.7133;3.6129;0.1657;1.5944;0.0478
0000680510;-5.9137;-6.6822;3.3902;0.1981;1.7359;0.0950
0000680518;-5.6168;-6.1746;2.5714;0.2134;1.8319;0.1266
0000680526;-5.6168;-6.0334;1.8699;0.2165;1.8774;0.1443
0000680534;-5.6790;-5.9017;1.3360;0.2008;1.8181;0.1559
0000680542;-5.7078;-5.7197;1.5203;0.1495;1.7965;0.1563
0000680550;-5.5761;-5.5761;1.1085;0.1043;1.7123;0.1434
0000680558;-5.3822;-5.3534;0.5578;0.0569;1.5836;0.1564
0000680566;-5.0182;-5.4133;0.4190;0.0087;1.4264;0.1492
0000680574;-4.5322;-5.4660;0.4190;-0.0336;1.2650;0.1264
0000680582;-3.7230;-5.5426;0.2586;-0.0648;1.1363;0.1069
0000680590;-3.3303;-5.7964;0.4022;-0.0818;1.0889;0.0735
0000680598;-3.0095;-6.0214;0.4046;-0.0798;1.0910;0.0389
0000680606;-3.1149;-6.1746;0.2514;-0.0751;1.1290;0.0101
0000680614;-3.4046;-6.2584;0.0982;-0.0568;1.1639;0.0085
0000680622;-3.7637;-6.4189;-0.1987;-0.0269;1.1587;0.0213
0000680630;-4.4580;-6.4380;-0.3424;0.0193;1.1363;0.0220
0000680638;-5.0805;-6.4165;-0.4597;0.0578;1.0825;0.0228
0000680646;-4.8794;-6.1148;-0.5578;0.0906;0.9884;0.0241
0000680654;-5.2601;-5.9927;-0.6991;0.1328;0.8881;0.0059
0000680662;-5.3319;-5.7389;-0.6393;0.1394;0.8056;-0.0169
0000680670;-5.1930;-5.5115;-0.6345;0.1434;0.7516;-0.0428
0000680678;-4.9608;-5.2241;-0.6225;0.1335;0.7015;-0.0698
0000680686;-4.9656;-5.0925;-0.4860;0.1167;0.6933;-0.0861
0000680694;-4.8578;-4.9943;-0.4932;0.0809;0.6972;-0.0739
0000680702;-4.7190;-4.8842;-0.5626;0.0534;0.6996;-0.0713
0000680710;-4.7309;-5.0446;-0.5435;0.0179;0.6800;-0.0476
0000680718;-4.6400;-5.0230;-0.6321;-0.0092;0.6675;-0.0306
0000680726;-4.4891;-5.0374;-0.6632;-0.0284;0.6310;-0.0184
0000680734;-4.1827;-5.0398;-0.7542;-0.0582;0.5909;0.0015
0000680742;-4.0103;-5.4492;-0.9577;-0.0677;0.5399;0.0072
0000680750;-3.7661;-5.4947;-0.9625;-0.0791;0.5096;0.0148
0000680758;-3.6655;-5.6455;-0.9673;-0.0813;0.5192;0.0173
0000680766;-3.7254;-5.6767;-1.0558;-0.0746;0.4862;0.0064
0000680774;-3.7517;-5.9831;-0.9385;-0.0582;0.4799;-0.0103
0000680782;-3.8954;-6.0142;-1.0080;-0.0449;0.4888;-0.0115
0000680790;-3.7350;-5.9975;-1.1181;-0.0305;0.4811;-0.0272
0000680798;-3.7996;-6.1842;-1.1372;-0.0081;0.4623;-0.0285
0000680806;-3.9720;-6.2225;-1.2522;0.0097;0.4523;-0.0250
0000680814;-3.9600;-6.1914;-1.1349;0.0165;0.4506;-0.0337
0000680822;-3.9361;-6.0932;-1.2953;0.0270;0.4239;-0.0346
0000680830;-3.9433;-5.9448;-1.3838;0.0316;0.3988;-0.0350
0000680838;-3.9361;-6.1220;-1.2617;0.0285;0.3978;-0.0430
0000680846;-3.6368;-5.7724;-1.2115;0.0286;0.3866;-0.0424
0000680854;-3.6751;-5.9304;-1.1684;0.0294;0.3828;-0.0485
0000680862;-3.7924;-5.9592;-1.1732;0.0149;0.3908;-0.0386
0000680870;-3.7278;-5.9496;-1.3048;0.0133;0.3808;-0.0398
0000680878;-3.7709;-5.8897;-1.2043;0.0063;0.3765;-0.0322
0000680886;-3.8355;-5.9879;-1.1779;0.0001;0.3693;-0.0397
0000680894;-3.7828;-5.9759;-1.2234;-0.0057;0.3600;-0.0332
0000680902;-4.0366;-6.0741;-1.1516;-0.0149;0.3599;-0.0193
0000680910;-3.8978;-5.9328;-1.0271;-0.0152;0.3531;-0.0256
0000680918;-4.2784;-6.0645;-1.1109;-0.0228;0.3388;-0.0309
0000680926;-4.0510;-6.0190;-1.1229;-0.0300;0.3210;-0.0348
0000680934;-4.1348;-6.1435;-1.0726;-0.0324;0.2987;-0.0477
0000680942;-3.9744;-5.9664;-1.1564;-0.0417;0.2851;-0.0529
0000680950;-4.0510;-6.1579;-1.1708;-0.0542;0.2718;-0.0609
0000680958;-3.8618;-6.0813;-1.2546;-0.0730;0.2641;-0.0490
0000680966;-3.9552;-6.0956;-1.1756;-0.0805;0.2594;-0.0433
0000680975;-3.7996;-6.1459;-1.2474;-0.0853;0.2474;-0.0418
0000680984;-3.7469;-6.1124;-1.2163;-0.1031;0.2427;-0.0329
0000680993;-3.4357;-5.8610;-1.2522;-0.1175;0.2421;-0.0143
0000681002;-3.8140;-5.9879;-1.3096;-0.1290;0.2471;-0.0088
0000681011;-3.9289;-5.8562;-1.3838;-0.1438;0.2368;-0.0060
0000681098;-3.6200;-5.7078;-1.5802;-0.1440;0.0372;-0.0208
0000681107;-3.6847;-5.7964;-1.5347;-0.1382;0.0342;-0.0144
0000681116;-3.6464;-5.7820;-1.3934;-0.1318;0.0252;-0.0284
0000681125;-3.6703;-5.9256;-1.4413;-0.1266;0.0360;-0.0244
0000681134;-3.6536;-5.9640;-1.4724;-0.1182;0.0354;-0.0184
0000681143;-3.7804;-5.9951;-1.5395;-0.1066;0.0280;-0.0169
0000681152;-3.6536;-5.9735;-1.5179;-0.0969;0.0277;-0.0209
0000681161;-3.9193;-6.1100;-1.5969;-0.0945;0.0119;-0.0041
0000681170;-3.7062;-5.9616;-1.4461;-0.0943;0.0280;-0.0057
0000681179;-3.7326;-5.8658;-1.3862;-0.0795;0.0372;-0.0168
0000681188;-3.8092;-5.9568;-1.4413;-0.0838;0.0282;-0.0193
0000681197;-3.8331;-6.0885;-1.4341;-0.0747;0.0092;-0.0244
0000681206;-3.6176;-6.0669;-1.3408;-0.0681;0.0100;-0.0296
0000681215;-3.6200;-6.1148;-1.3982;-0.0661;0.0218;-0.0175
0000681224;-3.5793;-6.1794;-1.3551;-0.0609;0.0230;-0.0233
0000681233;-3.6176;-6.1172;-1.2881;-0.0568;0.0278;-0.0309
0000681242;-3.5434;-6.3446;-1.2210;-0.0490;0.0204;-0.0031
0000681251;-3.4405;-6.0885;-1.1803;-0.0476;0.0520;-0.0120
0000681260;-3.5123;-6.1052;-1.2689;-0.0506;0.0747;-0.0163
0000681269;-3.5171;-6.1363;-1.3096;-0.0329;0.0690;-0.0199
0000681278;-3.5434;-6.2513;-1.3599;-0.0262;0.0655;-0.0057
0000681287;-3.5817;-6.1986;-1.2258;-0.0262;0.0753;-0.0055
0000681296;-3.4357;-6.1459;-1.3240;-0.0222;0.0794;0.0015
0000681305;-3.6129;-6.1220;-1.3288;-0.0153;0.0855;-0.0031
0000681314;-3.7302;-6.1651;-1.3791;-0.0184;0.0946;0.0077
0000681323;-3.8307;-6.1028;-1.5131;-0.0180;0.0846;0.0016
0000681332;-3.8044;-6.0621;-1.4485;-0.0153;0.0725;0.0083
0000681341;-3.9337;-6.0980;-1.3384;-0.0213;0.0729;0.0200
0000681350;-4.2090;-6.0717;-1.5179;-0.0145;0.0529;0.0127
0000681359;-4.0127;-6.0334;-1.4940;-0.0233;0.0338;0.0159
0000681368;-4.1084;-5.8826;-1.4413;-0.0222;0.0163;0.0121
0000681377;-4.2162;-5.9568;-1.4748;-0.0080;-0.0124;0.0019
0000681386;-3.7326;-5.8634;-1.5850;-0.0163;-0.0390;0.0029
0000681395;-3.8355;-6.0932;-1.5514;-0.0092;-0.0433;0.0043
0000681404;-3.6152;-6.0932;-1.4150;0.0000;-0.0396;0.0003
0000681413;-3.4931;-5.9376;-1.4605;0.0017;-0.0199;0.0007
0000681422;-3.4931;-5.9592;-1.4700;0.0127;-0.0240;-0.0015
0000681431;-3.4907;-5.9568;-1.5897;0.0145;-0.0147;0.0019
0000681440;-3.5219;-5.9424;-1.5395;0.0176;-0.0041;0.0003
0000681449;-3.5075;-5.7796;-1.6017;0.0191;-0.0036;0.0019
0000681458;-3.6727;-5.8442;-1.7238;0.0199;-0.0100;0.0028
0000681467;-3.6631;-5.8658;-1.7741;0.0173;-0.0334;0.0119
0000681476;-3.9193;-5.8514;-1.5754;0.0203;-0.0242;0.0100
0000681485;-3.9073;-5.7174;-1.6209;0.0049;-0.0183;0.0084
0000681494;-3.9576;-5.8921;-1.6807;0.0020;-0.0390;-0.0019
0000681503;-3.9002;-5.8227;-1.7669;0.0039;-0.0542;-0.0057
0000681512;-3.7709;-5.8945;-1.6807;-0.0007;-0.0610;-0.0007
0000681521;-3.5482;-5.8323;-1.6520;0.0025;-0.0638;-0.0041
0000681530;-3.4333;-5.6886;-1.6520;-0.0051;-0.0500;-0.0027
0000681539;-3.5291;-5.8706;-1.6735;0.0033;-0.0524;-0.0155
0000681548;-3.6296;-5.9280;-1.6496;-0.0029;-0.0432;-0.0101
0000681557;-3.6464;-5.9400;-1.7238;0.0029;-0.0442;-0.0120
0000681566;-3.6296;-5.8490;-1.7047;0.0020;-0.0464;-0.0141
0000681575;-3.6009;-5.8849;-1.5802;0.0012;-0.0493;-0.0089
0000681584;-3.6990;-5.9927;-1.6520;-0.0001;-0.0580;0.0091
0000681593;-3.6966;-5.7221;-1.6089;-0.0003;-0.0317;-0.0067
0000681602;-3.8523;-5.7724;-1.6185;-0.0063;-0.0404;-0.0125
0000681611;-3.7972;-5.8586;-1.6089;-0.0015;-0.0608;-0.0155
0000681620;-3.8451;-5.8395;-1.6807;-0.0065;-0.0697;-0.0124
0000681629;-3.7326;-5.9304;-1.7214;-0.0087;-0.0777;-0.0117
0000681638;-3.6607;-5.8778;-1.5179;-0.0100;-0.0797;-0.0137
0000681647;-3.6416;-6.0573;-1.5299;-0.0124;-0.0743;-0.0121
0000681656;-3.5578;-5.8131;-1.5036;-0.0143;-0.0722;-0.0056
0000681665;-3.6488;-6.1148;-1.5562;-0.0087;-0.0782;0.0032
0000681674;-3.3926;-5.7844;-1.4413;-0.0167;-0.0585;-0.0136
0000681683;-3.5769;-5.7365;-1.4317;-0.0195;-0.0596;-0.0189
0000681692;-3.5338;-5.9113;-1.4246;-0.0152;-0.0675;-0.0124
0000681701;-3.8738;-5.9807;-1.3791;-0.0147;-0.0422;-0.0113
0000681710;-3.8427;-5.7533;-1.4269;-0.0171;-0.0512;-0.0144
0000681719;-3.8379;-5.9185;-1.4868;-0.0048;-0.0786;-0.0187
0000681806;-3.6799;-5.9304;-1.3982;-0.0173;-0.0717;-0.0149
0000681815;-3.6775;-5.8682;-1.3862;-0.0128;-0.0730;-0.0159
0000681824;-3.5937;-5.7916;-1.3264;-0.0187;-0.0762;-0.0177
0000681833;-3.6392;-5.8897;-1.3384;-0.0115;-0.0867;-0.0205
0000681842;-3.6536;-5.8610;-1.3815;-0.0252;-0.0783;-0.0189
0000681851;-3.7493;-5.9233;-1.2665;-0.0204;-0.0853;-0.0209
0000681860;-3.7493;-6.0549;-1.2857;-0.0241;-0.0803;-0.0171
0000681869;-3.6152;-6.0310;-1.3934;-0.0185;-0.0742;-0.0188
0000681878;-3.5386;-5.8682;-1.3671;-0.0189;-0.0662;-0.0157
0000681887;-3.6583;-6.0621;-1.3431;-0.0073;-0.0655;-0.0208
0000681896;-3.7421;-6.0190;-1.4078;-0.0104;-0.0553;-0.0157
0000681905;-3.8547;-6.1483;-1.4293;-0.0029;-0.0608;-0.0240
0000681914;-3.7804;-5.9640;-1.4246;-0.0092;-0.0632;-0.0216
0000681923;-3.7613;-5.9520;-1.4341;-0.0053;-0.0673;-0.0151
0000681932;-3.6966;-5.9185;-1.5514;-0.0127;-0.0681;-0.0140
0000681941;-3.6152;-5.8921;-1.4293;-0.0071;-0.0707;-0.0133
0000681950;-3.5219;-5.8706;-1.4461;-0.0119;-0.0687;-0.0147
0000681959;-3.6296;-5.9065;-1.4485;-0.0083;-0.0644;-0.0155
0000681968;-3.7086;-6.0118;-1.4365;-0.0169;-0.0646;-0.0136
0000681977;-3.5362;-5.8155;-1.3791;-0.0201;-0.0597;-0.0137
0000681986;-3.5458;-5.8107;-1.4269;-0.0181;-0.0699;-0.0187
0000681995;-3.7158;-5.9520;-1.4293;-0.0221;-0.0612;-0.0121
0000682004;-3.5219;-5.9065;-1.4796;-0.0212;-0.0675;-0.0173
0000682013;-3.6200;-5.9472;-1.3240;-0.0217;-0.0557;-0.0121
0000682022;-3.5793;-5.9041;-1.3838;-0.0191;-0.0564;-0.0160
0000682031;-3.8068;-6.0382;-1.3384;-0.0144;-0.0546;-0.0222
0000682040;-3.6727;-6.0310;-1.3551;-0.0127;-0.0460;-0.0153
0000682049;-3.6679;-6.0023;-1.4269;-0.0068;-0.0506;-0.0260
0000682058;-3.6512;-5.9592;-1.3791;-0.0027;-0.0440;-0.0242
0000682067;-3.5865;-5.9256;-1.4102;-0.0080;-0.0430;-0.0163
0000682076;-3.6679;-5.8634;-1.5347;-0.0115;-0.0442;-0.0164
0000682085;-3.8164;-6.0166;-1.3599;-0.0121;-0.0505;-0.0172
0000682094;-3.6847;-5.9616;-1.4509;-0.0141;-0.0518;-0.0155
0000682103;-3.7924;-5.9352;-1.3240;-0.0196;-0.0492;-0.0120
0000682112;-3.6464;-5.9280;-1.3647;-0.0224;-0.0540;-0.0120
0000682121;-3.6009;-5.9161;-1.4150;-0.0203;-0.0500;-0.0163
0000682130;-3.7110;-5.8514;-1.3647;-0.0265;-0.0566;-0.0204
0000682139;-3.6272;-5.7940;-1.4150;-0.0340;-0.0538;-0.0149
0000682148;-3.6895;-5.8921;-1.2617;-0.0329;-0.0514;-0.0115
0000682157;-3.6536;-5.9496;-1.2977;-0.0336;-0.0581;-0.0144
0000682166;-3.5243;-5.7628;-1.2737;-0.0309;-0.0500;-0.0089
0000682175;-3.7373;-6.0023;-1.2713;-0.0265;-0.0489;-0.0161
0000682184;-3.6536;-5.9280;-1.2761;-0.0266;-0.0473;-0.0163
0000682193;-3.6799;-5.9687;-1.3503;-0.0224;-0.0532;-0.0181
0000682202;-3.7254;-5.9640;-1.2977;-0.0201;-0.0440;-0.0161
0000682211;-3.6751;-5.9400;-1.3743;-0.0149;-0.0510;-0.0193
0000682220;-3.7062;-5.9783;-1.3001;-0.0257;-0.0496;-0.0180
0000682229;-3.5961;-5.8419;-1.2761;-0.0187;-0.0544;-0.0236
0000682238;-3.6152;-5.9640;-1.3096;-0.0216;-0.0498;-0.0200
0000682247;-3.7397;-5.9855;-1.3958;-0.0236;-0.0416;-0.0171
0000682256;-3.6320;-6.0190;-1.2905;-0.0183;-0.0501;-0.0185
0000682265;-3.5171;-5.9185;-1.3240;-0.0241;-0.0490;-0.0280
0000682274;-3.6248;-5.8849;-1.3144;-0.0244;-0.0354;-0.0302
0000682283;-3.6320;-5.8251;-1.3336;-0.0322;-0.0277;-0.0161
0000682292;-3.6655;-5.8993;-1.3527;-0.0328;-0.0337;-0.0200
0000682301;-3.6152;-5.9783;-1.3719;-0.0316;-0.0390;-0.0208
0000682310;-3.6224;-5.9304;-1.2522;-0.0300;-0.0382;-0.0167
0000682319;-3.6105;-5.9041;-1.3431;-0.0357;-0.0306;-0.0139
0000682328;-3.6272;-5.8490;-1.2881;-0.0341;-0.0300;-0.0097
0000682337;-3.5602;-5.9017;-1.3719;-0.0290;-0.0394;-0.0184
0000682346;-3.6392;-5.9735;-1.2881;-0.0308;-0.0268;-0.0132
0000682355;-3.6152;-6.0262;-1.2522;-0.0213;-0.0240;-0.0143
0000682364;-3.6488;-5.8873;-1.3408;-0.0245;-0.0224;-0.0097
0000682373;-3.6583;-5.9185;-1.3671;-0.0153;-0.0372;-0.0137
0000682382;-3.7206;-5.9568;-1.3312;-0.0109;-0.0394;-0.0161
0000682391;-3.6081;-5.9137;-1.3862;-0.0133;-0.0389;-0.0193
0000682400;-3.6440;-5.9017;-1.3408;-0.0031;-0.0430;-0.0201
0000682409;-3.3255;-5.7940;-1.2641;-0.0087;-0.0353;-0.0171
0000682496;-3.7804;-5.9448;-1.3623;-0.0036;-0.0365;-0.0100
0000682505;-3.6990;-5.9185;-1.3408;-0.0111;-0.0401;-0.0105
0000682514;-3.5793;-5.9879;-1.4030;-0.0084;-0.0441;-0.0077
0000682523;-3.5817;-5.7461;-1.4102;-0.0065;-0.0478;-0.0116
0000682532;-3.5937;-5.9256;-1.4078;-0.0015;-0.0472;-0.0180
0000682541;-3.6895;-5.8442;-1.3934;-0.0093;-0.0406;-0.0151
0000682550;-3.7302;-5.9448;-1.3623;-0.0025;-0.0486;-0.0218
0000682559;-3.8140;-5.9328;-1.3001;-0.0101;-0.0444;-0.0152
0000682568;-3.7445;-5.9592;-1.4246;-0.0032;-0.0525;-0.0248
0000682577;-3.7781;-5.9568;-1.3982;-0.0099;-0.0496;-0.0169
0000682586;-3.6799;-5.9161;-1.3862;-0.0176;-0.0516;-0.0149
0000682595;-3.6727;-5.8347;-1.3479;-0.0179;-0.0642;-0.0200
0000682604;-3.7254;-5.9017;-1.1947;-0.0179;-0.0663;-0.0242
0000682613;-3.5458;-5.7916;-1.2713;-0.0244;-0.0663;-0.0173
0000682622;-3.6512;-5.9280;-1.2881;-0.0317;-0.0662;-0.0151
0000682631;-3.7254;-6.0047;-1.3192;-0.0241;-0.0734;-0.0221
0000682640;-3.5745;-5.9448;-1.3551;-0.0321;-0.0630;-0.0175
0000682649;-3.6129;-5.8634;-1.3312;-0.0330;-0.0572;-0.0192
0000682658;-3.6847;-5.9233;-1.2522;-0.0290;-0.0593;-0.0237
0000682667;-3.5314;-5.7557;-1.3216;-0.0265;-0.0622;-0.0284
0000682676;-3.6272;-5.8179;-1.3312;-0.0238;-0.0663;-0.0216
0000682685;-3.6344;-6.0645;-1.3001;-0.0286;-0.0598;-0.0151
0000682694;-3.5769;-5.8538;-1.3408;-0.0230;-0.0569;-0.0131
0000682703;-3.5003;-5.9568;-1.3144;-0.0195;-0.0465;-0.0203
0000682712;-3.6440;-6.1579;-1.3288;-0.0269;-0.0320;-0.0149
0000682721;-3.5219;-5.8610;-1.3240;-0.0230;-0.0273;-0.0212
0000682730;-3.7182;-5.9903;-1.3384;-0.0192;-0.0268;-0.0264
0000682739;-3.7254;-5.9520;-1.4030;-0.0216;-0.0289;-0.0284
0000682748;-3.4979;-5.8873;-1.3192;-0.0245;-0.0244;-0.0209
0000682757;-3.6200;-5.8131;-1.2665;-0.0292;-0.0218;-0.0179
0000682766;-3.4716;-5.9328;-1.2594;-0.0217;-0.0293;-0.0232
0000682775;-3.5027;-5.8490;-1.3527;-0.0233;-0.0209;-0.0160
0000682784;-3.4357;-5.9472;-1.2570;-0.0258;-0.0157;-0.0172
0000682793;-3.6703;-6.1603;-1.2139;-0.0253;-0.0039;-0.0172
0000682802;-3.3423;-5.9328;-1.1756;-0.0207;0.0097;-0.0148
0000682811;-3.6152;-6.0190;-1.1349;-0.0175;0.0089;-0.0211
0000682820;-3.7350;-5.9999;-0.9122;-0.0145;0.0087;-0.0169
0000682829;-3.7781;-6.0956;-0.9242;-0.0092;0.0037;-0.0191
0000682838;-3.7637;-6.1052;-0.9433;-0.0029;0.0001;-0.0241
0000682847;-3.5291;-5.9711;-1.0750;-0.0039;0.0087;-0.0145
0000682856;-3.3758;-5.9256;-1.0151;0.0019;0.0139;-0.0163
0000682865;-3.5243;-5.9065;-1.0104;0.0040;0.0266;-0.0091
0000682874;-3.5745;-5.9304;-1.0175;0.0056;0.0240;-0.0167
0000682883;-3.7302;-5.9616;-1.0008;0.0091;0.0234;-0.0209
0000682892;-3.6751;-5.9161;-1.0774;0.0112;0.0159;-0.0258
0000682901;-3.7373;-5.9951;-1.0798;0.0093;0.0269;-0.0197
0000682910;-3.5267;-5.8706;-1.1468;0.0096;0.0290;-0.0238
0000682919;-3.5698;-6.0094;-1.1899;0.0031;0.0298;-0.0240
0000682928;-3.4357;-5.9975;-1.3264;0.0115;0.0282;-0.0254
0000682937;-3.6823;-5.9209;-1.3503;0.0117;0.0273;-0.0273
0000682946;-3.9792;-6.2177;-1.4317;0.0188;0.0221;-0.0302
0000682955;-3.8618;-6.0118;-1.4246;0.0260;0.0128;-0.0365
0000682964;-3.7373;-6.0142;-1.3671;0.0290;0.0153;-0.0445
0000682973;-3.7685;-6.0262;-1.5419;0.0274;0.0133;-0.0344
0000682982;-3.5602;-5.9759;-1.6113;0.0305;0.0068;-0.0406
0000682991;-3.5889;-5.9520;-1.6688;0.0298;-0.0009;-0.0374
0000683000;-3.4524;-5.8466;-1.6328;0.0284;-0.0045;-0.0337
0000683009;-3.5985;-5.9424;-1.6712;0.0136;0.0064;-0.0280
0000683018;-3.5961;-5.9568;-1.7142;0.0136;0.0079;-0.0269
0000683027;-3.5291;-6.0142;-1.5850;0.0005;0.0189;-0.0192
0000683036;-3.6703;-5.9304;-1.7310;0.0013;0.0137;-0.0294
0000683045;-3.7661;-5.9711;-1.7358;-0.0089;0.0199;-0.0201
0000683054;-3.6488;-5.9089;-1.8052;-0.0067;0.0171;-0.0215
0000683063;-3.5506;-5.8754;-1.7166;-0.0093;0.0172;-0.0181
0000683072;-3.5650;-6.0142;-1.8004;-0.0004;0.0088;-0.0246
0000683081;-3.6081;-5.9999;-1.6951;-0.0079;0.0161;-0.0171
0000683090;-3.6081;-5.9017;-1.7095;-0.0116;0.0177;-0.0161
0000683099;-3.6871;-5.9472;-1.6520;-0.0075;0.0147;-0.0218
0000683108;-3.7996;-6.0717;-1.7478;-0.0167;0.0183;-0.0071
0000683195;-3.8475;-5.9759;-1.4796;-0.0201;-0.0254;-0.0065
0000683204;-4.0390;-6.1052;-1.4222;-0.0196;-0.0274;-0.0059
0000683213;-3.7996;-6.0478;-1.3455;-0.0156;-0.0389;-0.0071
0000683222;-3.7445;-6.0597;-1.4605;-0.0159;-0.0436;-0.0048
0000683231;-3.5889;-6.0358;-1.3934;-0.0057;-0.0485;-0.0092
0000683240;-3.6392;-6.1459;-1.4676;-0.0049;-0.0513;-0.0120
0000683249;-3.5171;-6.0142;-1.3862;-0.0088;-0.0406;-0.0060
0000683258;-3.5386;-6.0573;-1.3767;-0.0081;-0.0336;-0.0055
0000683267;-3.4596;-5.9783;-1.3527;-0.0080;-0.0324;-0.0089
0000683276;-3.7972;-6.0525;-1.4006;-0.0055;-0.0320;-0.0071
0000683285;-3.4716;-5.9233;-1.4389;-0.0060;-0.0288;-0.0039
0000683294;-3.8068;-6.0573;-1.4293;-0.0045;-0.0353;-0.0047
0000683303;-3.5458;-5.8945;-1.4700;0.0028;-0.0449;-0.0045
0000683312;-3.8116;-6.0717;-1.4748;-0.0016;-0.0414;-0.0012
0000683321;-3.5602;-5.9807;-1.4772;0.0040;-0.0393;-0.0055
0000683330;-3.4836;-5.8490;-1.4653;-0.0004;-0.0337;-0.0023
0000683339;-3.5913;-6.0166;-1.4389;0.0045;-0.0318;-0.0089
0000683348;-3.5698;-6.0142;-1.4868;0.0091;-0.0340;-0.0104
0000683357;-3.4117;-5.8466;-1.4653;0.0083;-0.0290;-0.0091
0000683366;-3.5027;-5.9328;-1.5179;0.0091;-0.0221;-0.0023
0000683373;-3.7685;-6.0717;-1.4150;0.0111;-0.0262;-0.0088
0000683381;-3.6583;-6.0047;-1.4102;0.0116;-0.0207;-0.0048
0000683389;-3.6009;-5.9352;-1.3958;0.0127;-0.0133;-0.0043
0000683397;-3.5937;-5.9879;-1.4868;0.0089;-0.0111;-0.0035
0000683405;-3.7972;-5.9831;-1.5251;0.0161;-0.0184;-0.0143
0000683413;-3.5698;-5.9328;-1.4557;0.0120;-0.0127;-0.0072
0000683421;-3.4405;-5.7700;-1.4605;0.0229;-0.0169;-0.0140
0000683429;-3.6679;-5.9616;-1.4461;0.0189;-0.0147;-0.0125
0000683437;-3.4429;-5.8131;-1.4629;0.0246;-0.0103;-0.0143
0000683445;-3.5937;-5.8993;-1.5251;0.0211;0.0007;-0.0096
0000683453;-3.6272;-5.9448;-1.5275;0.0191;-0.0059;-0.0148
0000683461;-3.5865;-5.9137;-1.5706;0.0284;-0.0039;-0.0189
0000683469;-3.6033;-5.8442;-1.4724;0.0185;0.0031;-0.0188
