time;acc_x;acc_y;acc_z;gyro_x;gyro_y;gyro_z
0000639433;-2.8419;-5.7174;3.0143;0.1484;-0.0965;-0.2153
0000639441;-2.9090;-5.7868;2.7366;0.1519;-0.0774;-0.2062
0000639448;-2.7581;-5.7365;2.6552;0.1656;-0.0751;-0.2028
0000639456;-2.9353;-5.8634;2.7150;0.1668;-0.0679;-0.1893
0000639523;-3.3016;-5.9017;2.2841;0.1135;-0.0031;-0.2377
0000639531;-3.3758;-5.8682;2.2841;0.1039;-0.0079;-0.2226
0000639543;-3.2609;-5.8323;2.2936;0.0897;-0.0212;-0.1970
0000639551;-2.9353;-5.5067;2.2745;0.0870;-0.0325;-0.1839
0000639559;-3.0526;-5.4875;2.4325;0.0841;-0.0380;-0.1665
0000639570;-2.8922;-5.2984;2.5163;0.0717;-0.0406;-0.1536
0000639578;-3.1340;-5.4516;2.3607;0.0600;-0.0297;-0.1424
0000639590;-3.3088;-5.4061;2.5690;0.0401;-0.0207;-0.1127
0000639598;-3.3447;-5.3032;2.5666;0.0297;-0.0189;-0.0862
0000639609;-3.2705;-5.1308;2.7031;-0.0015;-0.0197;-0.0638
0000639617;-3.3208;-5.3008;2.6456;-0.0207;-0.0224;-0.0602
0000639629;-3.0646;-5.2888;2.7318;-0.0564;-0.0128;-0.0437
0000639637;-3.0718;-5.3319;2.6863;-0.0781;-0.0121;-0.0413
0000639648;-3.0526;-5.4396;2.7102;-0.0993;0.0039;-0.0308
0000639656;-2.9712;-5.4420;2.7892;-0.0981;0.0131;-0.0237
0000639664;-3.0550;-5.6096;2.7102;-0.0989;0.0284;-0.0067
0000639676;-3.1268;-5.9280;2.5522;-0.0797;0.0353;-0.0049
0000639684;-3.1603;-5.9951;2.4565;-0.0646;0.0506;-0.0029
0000639695;-3.2034;-6.0142;2.3296;-0.0298;0.0518;-0.0091
0000639703;-3.1460;-5.9999;2.4157;-0.0111;0.0560;-0.0100
0000639715;-3.2082;-6.0885;2.4253;0.0277;0.0584;-0.0213
0000639723;-3.1891;-6.0214;2.3727;0.0452;0.0727;-0.0328
0000639790;-3.0933;-5.4133;2.7940;0.0815;0.0918;-0.0767
0000639798;-3.1412;-5.4947;2.7797;0.0786;0.0947;-0.0703
0000639810;-3.3112;-5.5761;2.8874;0.0833;0.0865;-0.0695
0000639818;-3.2106;-5.5450;2.7461;0.0866;0.0867;-0.0659
0000639826;-3.3279;-5.6360;2.8060;0.0905;0.0771;-0.0750
0000639837;-3.1819;-5.5162;2.7749;0.0921;0.0791;-0.0677
0000639845;-3.1651;-5.3917;2.7845;0.0926;0.0685;-0.0725
0000639857;-3.1699;-5.3151;2.7581;0.0874;0.0600;-0.0763
0000639865;-3.2920;-5.5833;2.8635;0.0793;0.0554;-0.0698
0000639876;-3.4692;-5.5545;2.7366;0.0782;0.0454;-0.0753
0000639884;-3.5027;-5.4492;2.8204;0.0733;0.0346;-0.0671
0000639896;-3.4453;-5.5498;2.8371;0.0787;0.0294;-0.0711
0000639904;-3.3303;-5.5881;2.8084;0.0759;0.0301;-0.0581
0000639912;-3.5003;-5.7126;2.7438;0.0726;0.0222;-0.0532
0000639923;-3.5985;-5.8658;2.7102;0.0793;-0.0028;-0.0557
0000639931;-3.5793;-5.8466;2.7533;0.0786;-0.0136;-0.0548
0000639943;-3.5123;-5.7006;2.7174;0.0794;-0.0352;-0.0510
0000639951;-3.4309;-5.7437;2.7438;0.0829;-0.0342;-0.0533
0000639962;-3.5123;-5.8610;2.7461;0.0865;-0.0452;-0.0460
0000639970;-3.3734;-5.8107;2.7318;0.0899;-0.0564;-0.0461
0000639982;-3.4596;-5.8347;2.7605;0.0825;-0.0645;-0.0349
0000639990;-3.1723;-5.6647;2.7533;0.0798;-0.0661;-0.0221
0000640058;-3.2010;-6.0142;2.7605;0.0842;-0.0713;-0.0524
0000640066;-3.1963;-6.0286;2.7174;0.0919;-0.0742;-0.0517
0000640074;-3.3255;-6.0621;2.7150;0.0927;-0.0714;-0.0498
0000640086;-3.2729;-5.9304;2.6576;0.0983;-0.0795;-0.0497
0000640094;-3.2872;-5.9855;2.6312;0.0975;-0.0870;-0.0528
0000640105;-3.1939;-5.8442;2.7174;0.0913;-0.0914;-0.0441
0000640113;-3.2058;-5.8610;2.6600;0.0931;-0.1066;-0.0489
0000640125;-3.2513;-6.0118;2.7605;0.0865;-0.1021;-0.0446
0000640133;-3.2609;-6.0932;2.7007;0.0805;-0.1001;-0.0457
0000640144;-3.0742;-5.8610;2.8180;0.0781;-0.0891;-0.0480
0000640152;-3.2226;-6.0214;2.8252;0.0733;-0.0754;-0.0581
0000640160;-3.0550;-5.8682;2.8276;0.0582;-0.0557;-0.0505
0000640172;-3.1867;-5.8299;2.7773;0.0480;-0.0460;-0.0420
0000640180;-3.3351;-5.8059;2.6695;0.0390;-0.0502;-0.0334
0000640191;-3.3447;-5.9568;2.6719;0.0272;-0.0645;-0.0226
0000640199;-3.2848;-5.9616;2.6480;0.0240;-0.0633;-0.0173
0000640211;-3.3351;-6.0908;2.6671;0.0069;-0.0569;-0.0148
0000640219;-3.3662;-6.0693;2.7414;0.0071;-0.0534;-0.0145
0000640230;-3.2298;-6.0118;2.6528;-0.0033;-0.0497;-0.0104
0000640238;-3.0526;-6.0238;2.6145;-0.0060;-0.0525;-0.0125
0000640250;-3.0981;-6.0717;2.6217;-0.0087;-0.0691;-0.0183
0000640258;-3.2944;-6.1459;2.7246;-0.0197;-0.0707;-0.0103
0000640326;-3.0646;-6.0669;2.8132;-0.0569;-0.0921;0.0153
0000640334;-3.2298;-6.2800;2.8371;-0.0528;-0.0937;0.0161
0000640342;-3.0622;-6.0980;2.7701;-0.0589;-0.0866;0.0238
0000640354;-3.1460;-6.1555;2.7414;-0.0650;-0.0807;0.0294
0000640362;-3.1532;-6.1723;2.7007;-0.0755;-0.0843;0.0337
0000640373;-3.0981;-6.1579;2.7605;-0.0803;-0.0865;0.0350
0000640381;-3.1843;-6.1196;2.8156;-0.0885;-0.0797;0.0416
0000640393;-2.9712;-5.9711;2.7797;-0.1030;-0.0657;0.0409
0000640401;-3.2034;-6.1651;2.7677;-0.1136;-0.0560;0.0420
0000640412;-3.1651;-6.0669;2.7174;-0.1223;-0.0545;0.0468
0000640420;-3.1795;-6.1172;2.6169;-0.1336;-0.0584;0.0528
0000640428;-3.1939;-6.1028;2.7366;-0.1344;-0.0701;0.0492
0000640440;-3.2537;-6.0885;2.7366;-0.1492;-0.0701;0.0485
0000640448;-3.3998;-6.2991;2.7270;-0.1647;-0.0622;0.0521
0000640459;-3.2825;-6.2082;2.8467;-0.1676;-0.0638;0.0566
0000640467;-3.2513;-6.3494;2.9449;-0.1789;-0.0640;0.0606
0000640479;-3.0981;-6.1938;2.9042;-0.1986;-0.0589;0.0658
0000640487;-3.1125;-6.2656;2.8419;-0.2042;-0.0572;0.0642
0000640498;-3.0861;-6.2465;2.8994;-0.2197;-0.0382;0.0743
0000640506;-3.0718;-6.2632;2.8539;-0.2266;-0.0296;0.0755
0000640518;-3.1939;-6.2896;2.8563;-0.2342;-0.0290;0.0731
0000640526;-3.1675;-6.1699;2.8563;-0.2341;-0.0425;0.0718
0000640534;-3.4117;-6.4260;2.8036;-0.2429;-0.0428;0.0750
0000640602;-3.3974;-6.3183;2.5283;-0.2673;-0.1338;0.0742
0000640610;-3.3447;-6.3590;2.6217;-0.2625;-0.1496;0.0737
0000640622;-3.2753;-6.4069;2.7054;-0.2601;-0.1577;0.0707
0000640630;-3.1963;-6.4476;2.7222;-0.2505;-0.1636;0.0781
0000640641;-3.0885;-6.3877;2.7246;-0.2356;-0.1625;0.0846
0000640649;-3.1556;-6.4093;2.7533;-0.2312;-0.1543;0.0910
0000640661;-3.1987;-6.4332;2.8826;-0.2197;-0.1476;0.0902
0000640669;-2.9975;-6.4069;2.7078;-0.2150;-0.1340;0.0971
0000640680;-3.1149;-6.3734;2.7533;-0.1985;-0.1231;0.0970
0000640688;-3.0263;-6.5769;2.8922;-0.1970;-0.1030;0.0989
0000640696;-2.8252;-6.3901;2.8180;-0.1940;-0.0949;0.0951
0000640708;-3.0263;-6.3662;2.9042;-0.1873;-0.0814;0.0943
0000640716;-2.8826;-6.2297;2.8850;-0.1800;-0.0779;0.0891
0000640727;-3.1364;-6.3662;2.9257;-0.1720;-0.0648;0.0827
0000640735;-3.0287;-6.2752;2.9521;-0.1672;-0.0616;0.0863
0000640747;-3.0861;-6.2560;2.9999;-0.1595;-0.0526;0.0782
0000640755;-3.0813;-6.4979;3.0071;-0.1539;-0.0421;0.0781
0000640766;-3.1651;-6.4835;2.9473;-0.1354;-0.0341;0.0715
0000640774;-2.9808;-6.4524;3.0071;-0.1308;-0.0220;0.0655
0000640786;-3.0335;-6.4931;2.9090;-0.1112;-0.0159;0.0556
0000640794;-2.8611;-6.2728;3.0071;-0.0967;-0.0209;0.0468
0000640802;-3.1149;-6.4476;2.9521;-0.0889;-0.0145;0.0460
0000640870;-2.9784;-6.2537;2.9090;-0.0099;-0.0017;0.0215
0000640878;-3.1173;-6.5003;2.9568;-0.0037;-0.0049;0.0249
0000640889;-3.2633;-6.3470;3.0023;0.0172;-0.0211;0.0180
0000640897;-3.1125;-6.3949;2.9975;0.0193;-0.0189;0.0207
0000640909;-3.2034;-6.2608;2.9736;0.0316;-0.0298;0.0085
0000640917;-3.1556;-6.2249;2.8946;0.0280;-0.0354;0.0132
0000640928;-3.3088;-6.3686;2.9281;0.0321;-0.0477;0.0113
0000640936;-3.2250;-6.2417;2.8515;0.0292;-0.0460;0.0184
0000640944;-3.2681;-6.2537;2.9018;0.0346;-0.0564;0.0171
0000640956;-3.2753;-6.2106;2.9377;0.0330;-0.0632;0.0160
0000640964;-3.0335;-6.3351;2.9377;0.0289;-0.0560;0.0221
0000640975;-3.2346;-6.2632;2.9904;0.0280;-0.0542;0.0208
0000640983;-2.9521;-6.0885;2.9880;0.0246;-0.0509;0.0242
0000640995;-3.0861;-6.0190;3.0335;0.0183;-0.0481;0.0228
0000641003;-3.0191;-6.1244;3.0837;0.0139;-0.0437;0.0248
0000641014;-3.1196;-6.2106;3.0933;0.0132;-0.0438;0.0241
0000641022;-3.1101;-6.1531;2.9544;0.0196;-0.0441;0.0211
0000641030;-3.0143;-6.1938;2.9951;0.0177;-0.0394;0.0203
0000641042;-2.9928;-6.1651;3.0311;0.0253;-0.0414;0.0169
0000641050;-3.0311;-6.1818;3.0311;0.0205;-0.0344;0.0132
0000641062;-3.1316;-6.2824;3.0215;0.0241;-0.0374;0.0163
0000641070;-3.1005;-6.1699;2.9592;0.0286;-0.0438;0.0081
0000641138;-3.0311;-6.2153;3.0095;0.0216;-0.0285;0.0057
0000641146;-3.0382;-6.1675;3.0071;0.0228;-0.0254;0.0023
0000641157;-3.1915;-6.1962;3.0143;0.0294;-0.0308;0.0067
0000641165;-3.0670;-6.2417;2.9856;0.0424;-0.0361;0.0029
0000641173;-3.1915;-6.3303;3.0358;0.0449;-0.0317;0.0041
0000641185;-3.0167;-6.1387;3.0311;0.0518;-0.0301;0.0037
0000641193;-3.2394;-6.2991;3.0263;0.0537;-0.0272;0.0033
0000641204;-3.1915;-6.2584;3.0071;0.0565;-0.0364;-0.0048
0000641212;-3.1173;-6.1651;2.9808;0.0610;-0.0409;-0.0103
0000641224;-3.1340;-6.1028;3.1292;0.0593;-0.0426;-0.0127
0000641232;-3.3208;-6.1339;2.9951;0.0537;-0.0426;-0.0089
0000641243;-3.1771;-6.0621;2.9568;0.0536;-0.0486;-0.0123
0000641251;-3.2441;-6.1220;2.9975;0.0488;-0.0544;-0.0083
0000641263;-3.2681;-6.1603;2.9521;0.0472;-0.0496;-0.0029
0000641271;-3.2920;-6.1651;2.9377;0.0448;-0.0538;-0.0029
0000641279;-3.2106;-6.1339;3.0167;0.0422;-0.0521;-0.0039
0000641290;-3.1244;-6.2369;2.9521;0.0420;-0.0644;-0.0115
0000641298;-3.1220;-6.1746;3.0335;0.0344;-0.0580;-0.0081
0000641310;-3.2441;-6.2680;3.0454;0.0284;-0.0545;-0.0101
0000641318;-3.0909;-6.1268;3.0167;0.0185;-0.0534;-0.0084
0000641330;-3.0957;-6.0597;3.0358;0.0173;-0.0560;-0.0023
0000641338;-3.1388;-6.0549;3.0430;0.0079;-0.0644;-0.0072
0000641406;-3.1771;-6.1411;2.9664;-0.0300;-0.0518;-0.0080
0000641414;-3.0526;-6.1004;3.0047;-0.0386;-0.0444;-0.0037
0000641425;-2.9712;-6.0262;3.0502;-0.0366;-0.0473;-0.0049
0000641433;-3.2441;-6.1890;3.0478;-0.0397;-0.0428;-0.0120
0000641441;-2.9473;-5.9687;3.0813;-0.0344;-0.0521;-0.0156
0000641453;-3.0933;-6.1459;2.9209;-0.0325;-0.0538;-0.0195
0000641461;-3.1699;-6.1435;2.9592;-0.0406;-0.0465;-0.0163
0000641472;-3.1077;-6.1292;2.9497;-0.0413;-0.0445;-0.0168
0000641480;-3.0287;-6.0142;3.0550;-0.0402;-0.0424;-0.0143
0000641492;-3.0765;-6.0262;3.0430;-0.0373;-0.0396;-0.0109
0000641500;-3.1556;-6.1244;3.0143;-0.0285;-0.0454;-0.0192
0000641511;-3.1077;-6.2249;3.0574;-0.0314;-0.0417;-0.0185
0000641519;-3.2298;-6.1746;3.0694;-0.0357;-0.0352;-0.0152
0000641531;-3.1795;-6.2297;3.0574;-0.0293;-0.0364;-0.0201
0000641539;-2.9712;-5.9017;2.9999;-0.0357;-0.0338;-0.0205
0000641550;-3.0981;-5.9448;2.9736;-0.0280;-0.0366;-0.0348
0000641558;-3.0358;-5.9759;3.0502;-0.0332;-0.0289;-0.0322
0000641566;-3.1125;-5.9711;3.1029;-0.0345;-0.0304;-0.0345
0000641578;-3.0023;-5.9496;2.9592;-0.0329;-0.0313;-0.0340
0000641586;-3.1436;-6.0645;3.0598;-0.0357;-0.0406;-0.0377
0000641598;-3.2106;-6.1028;2.9616;-0.0378;-0.0380;-0.0334
0000641606;-3.1196;-6.0142;2.9832;-0.0317;-0.0446;-0.0381
0000641674;-2.9592;-5.7030;3.0191;-0.0560;-0.0163;-0.0342
0000641682;-2.9760;-5.8562;2.9329;-0.0602;-0.0147;-0.0362
0000641693;-3.1412;-5.9089;2.9640;-0.0666;-0.0109;-0.0253
0000641701;-3.1268;-5.9065;2.9209;-0.0622;-0.0193;-0.0221
0000641713;-3.2633;-5.9927;2.9449;-0.0713;-0.0175;-0.0179
0000641721;-3.2034;-5.9592;2.9161;-0.0782;-0.0180;-0.0131
0000641732;-3.1723;-5.8778;2.9233;-0.0838;-0.0212;-0.0105
0000641740;-3.1580;-5.9280;2.9401;-0.0809;-0.0244;-0.0101
0000641748;-3.1340;-5.9496;2.8611;-0.0890;-0.0161;-0.0060
0000641760;-3.0430;-5.9975;2.9832;-0.0870;-0.0177;-0.0084
0000641768;-3.2513;-6.0813;3.0095;-0.0926;-0.0144;-0.0013
0000641779;-3.1053;-5.9951;2.9999;-0.0873;-0.0216;-0.0003
0000641787;-3.1412;-6.0741;3.0023;-0.0942;-0.0119;0.0021
0000641799;-3.0957;-5.9185;2.9904;-0.0905;-0.0117;0.0019
0000641807;-3.2034;-6.0813;2.9568;-0.0898;-0.0184;-0.0041
0000641818;-3.1125;-6.0262;3.0287;-0.0949;-0.0148;0.0011
0000641826;-3.2465;-6.1268;2.9928;-0.0895;-0.0209;0.0000
0000641838;-3.1340;-6.0190;2.9712;-0.0983;-0.0200;0.0019
0000641846;-3.0981;-6.0071;2.9808;-0.0937;-0.0233;0.0007
0000641854;-3.0335;-5.9472;3.0023;-0.1021;-0.0152;0.0028
0000641866;-3.2992;-6.2824;2.9688;-0.1033;-0.0250;-0.0020
0000641874;-3.0957;-6.0023;2.9832;-0.1067;-0.0220;0.0012
0000641942;-3.1987;-6.2201;3.1891;-0.1058;-0.0369;0.0068
0000641950;-3.2106;-6.1651;3.2346;-0.1095;-0.0394;0.0101
0000641961;-3.2609;-6.1866;3.3208;-0.1054;-0.0442;0.0024
0000641969;-3.0406;-5.9041;3.2825;-0.1059;-0.0478;0.0035
0000641981;-2.8946;-5.9568;3.3543;-0.1017;-0.0501;-0.0024
0000641989;-3.0526;-6.0214;3.4668;-0.1045;-0.0518;0.0012
0000642000;-2.9449;-6.0142;3.3734;-0.1102;-0.0521;0.0037
0000642008;-3.0789;-6.0908;3.3615;-0.1135;-0.0609;-0.0017
0000642016;-3.2441;-6.1459;3.5051;-0.1191;-0.0630;0.0008
0000642028;-3.1053;-6.1794;3.4740;-0.1216;-0.0779;-0.0037
0000642036;-3.2441;-6.1890;3.4405;-0.1278;-0.0878;-0.0061
0000642047;-3.1891;-6.1794;3.4620;-0.1223;-0.1067;-0.0119
0000642055;-3.2178;-6.1531;3.5123;-0.1138;-0.1303;-0.0176
0000642067;-3.2034;-6.2010;3.4860;-0.1088;-0.1508;-0.0148
0000642075;-3.1843;-6.2680;3.5291;-0.1014;-0.1621;-0.0149
0000642086;-2.8730;-6.1962;3.5698;-0.0969;-0.1709;-0.0135
0000642094;-2.8204;-6.1794;3.5410;-0.0914;-0.1665;-0.0161
0000642106;-2.9329;-6.3159;3.5961;-0.0821;-0.1705;-0.0173
0000642114;-2.8036;-6.2513;3.7158;-0.0830;-0.1727;-0.0196
0000642126;-2.9544;-6.3925;3.6895;-0.0731;-0.1787;-0.0173
0000642134;-3.0981;-6.3159;3.7350;-0.0663;-0.1873;-0.0181
0000642142;-2.7126;-6.0669;3.7230;-0.0588;-0.1925;-0.0211
0000642210;-2.9449;-6.2920;3.9169;-0.0203;-0.2879;-0.0414
0000642218;-3.0670;-6.4165;3.9600;-0.0262;-0.2887;-0.0426
0000642230;-2.9353;-6.3351;4.1204;-0.0258;-0.2996;-0.0465
0000642238;-2.7892;-6.3351;4.1204;-0.0244;-0.3131;-0.0489
0000642249;-2.9090;-6.3327;4.1707;-0.0350;-0.3260;-0.0472
0000642257;-2.7246;-6.3686;4.2593;-0.0365;-0.3503;-0.0502
0000642269;-2.7246;-6.1890;4.3096;-0.0464;-0.3706;-0.0510
0000642277;-2.6193;-6.3782;4.4029;-0.0528;-0.3753;-0.0413
0000642288;-2.5379;-6.2513;4.5226;-0.0655;-0.3924;-0.0390
0000642296;-2.6360;-6.4117;4.6376;-0.0667;-0.4038;-0.0309
0000642308;-2.4157;-6.3303;4.6184;-0.0771;-0.4197;-0.0333
0000642316;-2.2984;-6.2058;4.6807;-0.0915;-0.4286;-0.0313
0000642324;-2.4253;-6.2273;4.7621;-0.1007;-0.4487;-0.0357
0000642335;-2.3918;-6.3973;4.9321;-0.1092;-0.4787;-0.0445
0000642343;-2.2505;-6.3231;4.9991;-0.1124;-0.5029;-0.0414
0000642355;-2.1811;-6.3015;5.0733;-0.1267;-0.5255;-0.0374
0000642363;-2.0638;-6.2608;5.1404;-0.1236;-0.5674;-0.0433
0000642374;-2.2338;-6.3111;5.2864;-0.1311;-0.5890;-0.0530
0000642382;-2.2625;-6.2728;5.4947;-0.1310;-0.5903;-0.0534
0000642394;-2.1428;-6.3135;5.6767;-0.1499;-0.6037;-0.0641
0000642402;-1.9273;-6.2920;5.9592;-0.1733;-0.5444;-0.0662
0000642469;-2.0542;-6.6295;4.4317;-0.2911;-0.9610;-0.0945
0000642477;-2.2218;-6.6966;4.1683;-0.2765;-1.1064;-0.0790
0000642489;-2.1739;-6.3470;4.3622;-0.2603;-1.2642;-0.0674
0000642497;-1.8148;-6.1723;4.3024;-0.2498;-1.2869;-0.0813
0000642505;-1.9393;-6.2704;4.2904;-0.2549;-1.2297;-0.1033
0000642516;-1.6520;-6.2991;3.6488;-0.2511;-1.2191;-0.1549
0000642524;-1.5107;-6.3542;3.3399;-0.2495;-1.2509;-0.1761
0000642536;-1.1756;-6.5817;3.2130;-0.2262;-1.3635;-0.2020
0000642544;-0.7494;-6.4811;3.2848;-0.2040;-1.4204;-0.1949
0000642555;-0.5602;-6.6966;3.6464;-0.1824;-1.4268;-0.1564
0000642563;-0.6201;-6.8354;3.7757;-0.1608;-1.4099;-0.1236
0000642575;-0.0192;-6.7516;3.7661;-0.1435;-1.3378;-0.0658
0000642583;0.2394;-6.8929;3.8475;-0.1239;-1.2712;-0.0133
0000642594;0.3879;-7.0677;3.7158;-0.0977;-1.1946;0.0298
0000642602;0.5818;-7.0749;3.5267;-0.0721;-1.1413;0.0468
0000642610;0.7230;-6.8738;3.3782;-0.0305;-1.0952;0.0597
0000642622;0.7326;-6.5625;3.2537;0.0254;-1.0567;0.0376
0000642630;0.6297;-6.4667;3.2872;0.0504;-1.0265;-0.0171
0000642641;0.7087;-6.1675;3.3926;0.0494;-0.9417;-0.1376
0000642649;0.5243;-6.0669;3.4716;0.0458;-0.8660;-0.2234
0000642661;0.5195;-5.6551;3.6368;0.0057;-0.7237;-0.3028
0000642669;0.4693;-5.6790;3.6727;-0.0249;-0.6297;-0.3055
0000642737;-0.1628;-6.7756;4.4676;0.0087;-0.4744;0.1588
0000642745;-0.1508;-6.3159;4.7645;0.0113;-0.4029;0.1164
0000642753;0.1197;-5.9927;5.1404;0.0028;-0.2931;0.0413
0000642765;0.3759;-5.4636;5.4468;0.0055;-0.0806;-0.0903
0000642773;0.2322;-5.8538;5.3247;0.0123;0.0697;-0.1448
0000642784;-0.0120;-6.6343;5.1451;0.0480;0.1657;-0.1901
0000642792;-0.0862;-7.2832;5.2648;0.0719;0.1905;-0.1744
0000642804;-0.3974;-8.1187;5.4037;0.1053;0.2518;-0.1156
0000642812;-0.8308;-8.3438;5.6383;0.1075;0.2799;-0.0493
0000642823;-1.3551;-7.7596;6.2369;0.0965;0.3520;0.0374
0000642831;-1.6089;-6.7971;6.1818;0.0729;0.4413;0.1041
0000642839;-1.7023;-5.8059;6.0238;0.0258;0.5179;0.1518
0000642851;-1.6831;-4.8004;5.8251;-0.0394;0.5441;0.1739
0000642859;-1.2378;-4.3407;5.9400;-0.0554;0.5469;0.1691
0000642870;-1.0271;-4.6543;6.1339;-0.0709;0.6202;0.1415
0000642878;-0.6488;-5.5689;6.0956;-0.0542;0.6872;0.1031
0000642890;-0.9673;-7.3885;5.7197;-0.0023;0.7633;0.0733
0000642898;-1.2498;-8.2720;5.8251;0.0502;0.7822;0.0754
0000642909;-1.7406;-8.9471;6.2489;0.1182;0.8343;0.0532
0000642917;-1.9178;-8.7077;6.1794;0.1500;0.9034;0.0560
0000642925;-2.4229;-7.9511;6.1651;0.1908;0.9733;0.0821
0000642937;-2.4062;-6.3590;6.0717;0.2092;1.0010;0.1565
0000642945;-2.2673;-5.6767;5.9017;0.1931;1.0164;0.1737
0000643011;-4.1252;-7.5130;6.6559;0.1781;1.0770;-0.0108
0000643019;-4.0103;-7.1611;6.9145;0.2032;1.0838;-0.0226
0000643031;-4.6017;-6.9097;7.1563;0.2105;1.1134;-0.0321
0000643039;-5.1571;-6.8450;7.2951;0.2061;1.1278;-0.0109
0000643050;-6.2896;-6.4596;7.3119;0.1867;1.1373;0.0402
0000643058;-7.0198;-6.2680;7.2089;0.1657;1.0906;0.0830
0000643066;-7.4364;-5.8179;7.2137;0.1462;1.0431;0.1258
0000643078;-7.5369;-5.6623;6.9839;0.1248;0.9759;0.1613
0000643086;-7.1395;-5.7054;6.6295;0.1103;0.9641;0.1559
0000643097;-6.3710;-5.9568;6.1124;0.0995;0.9599;0.1407
0000643105;-6.0813;-6.1962;5.7150;0.1062;0.9650;0.1264
0000643117;-5.5043;-6.3901;5.1811;0.1140;0.9699;0.1156
0000643125;-5.1595;-6.4284;4.6759;0.1232;0.9577;0.0971
0000643133;-4.3910;-6.0525;4.1563;0.1176;0.9510;0.0791
0000643145;-3.5578;-5.9065;3.5650;0.1135;0.9418;0.0545
0000643153;-3.3734;-5.8203;3.2394;0.0989;0.9607;0.0558
0000643165;-3.0598;-5.6767;2.9975;0.0909;0.9669;0.0709
0000643173;-3.1316;-5.6934;2.7222;0.0759;0.9515;0.0790
0000643184;-2.8659;-5.7820;2.6193;0.0659;0.9221;0.0821
0000643192;-2.5163;-6.0238;2.5115;0.0521;0.9226;0.0838
0000643204;-1.9321;-5.8299;2.2769;0.0392;0.9415;0.0798
0000643212;-1.5874;-5.8275;2.2266;0.0356;0.9591;0.0819
0000643220;-1.5323;-5.9879;2.1500;0.0222;0.9785;0.0791
0000643288;-3.2633;-5.7988;2.0830;0.0129;1.0543;0.0526
0000643296;-3.3160;-5.7988;2.2027;0.0081;1.0368;0.0465
0000643308;-3.8882;-6.0190;2.1644;0.0085;1.0127;0.0434
0000643316;-3.9624;-5.9520;2.2362;0.0108;1.0052;0.0420
0000643327;-4.1827;-5.9065;2.1883;0.0100;0.9677;0.0448
0000643335;-4.2856;-5.9065;2.2505;0.0049;0.9629;0.0536
0000643343;-4.3024;-6.0621;2.0542;-0.0017;0.9386;0.0570
0000643355;-4.1252;-5.9687;1.9968;-0.0008;0.9014;0.0537
0000643363;-4.0582;-6.0741;1.8794;-0.0003;0.8992;0.0570
0000643374;-3.7709;-5.9783;1.7358;0.0009;0.8917;0.0489
0000643382;-4.0175;-6.1723;1.6831;0.0059;0.8779;0.0277
0000643394;-3.9672;-6.1651;1.5874;0.0093;0.8691;0.0193
0000643402;-4.1013;-6.1531;1.4054;0.0233;0.8689;0.0085
0000643414;-3.7876;-6.0334;1.3336;0.0480;0.8470;0.0067
0000643422;-4.0414;-6.2058;1.3144;0.0573;0.8436;-0.0023
0000643430;-3.8499;-6.1244;1.1349;0.0713;0.8338;-0.0063
0000643442;-3.8068;-6.0190;1.0774;0.0879;0.8290;-0.0125
0000643450;-3.8427;-6.1818;1.1037;0.1057;0.8184;-0.0294
0000643461;-3.7876;-5.8706;0.8045;0.1002;0.8094;-0.0441
0000643469;-3.7852;-6.0454;0.7829;0.1143;0.8103;-0.0582
0000643481;-3.7254;-6.0334;0.7230;0.1114;0.8172;-0.0572
0000643489;-3.8116;-5.9233;0.5746;0.1119;0.8222;-0.0529
0000643557;-3.9648;-5.9687;-0.0718;0.0882;0.7835;-0.0171
0000643565;-4.0486;-6.0023;-0.2346;0.0906;0.7566;-0.0099
0000643573;-3.9911;-6.0142;-0.3711;0.0922;0.7505;-0.0116
0000643585;-4.0247;-5.9999;-0.3208;0.0987;0.7460;-0.0116
0000643593;-4.0007;-6.0047;-0.3663;0.1132;0.7163;-0.0097
0000643605;-3.8092;-6.0214;-0.4525;0.1191;0.6872;-0.0187
0000643613;-3.6607;-6.0047;-0.6512;0.1248;0.6956;-0.0175
0000643625;-3.8499;-5.9616;-0.6584;0.1152;0.6851;-0.0298
0000643633;-4.1013;-5.9616;-0.7254;0.1144;0.6789;-0.0312
0000643645;-4.0366;-5.9185;-0.8715;0.0999;0.6690;-0.0253
0000643653;-3.8451;-5.9616;-1.0894;0.0961;0.6416;-0.0218
0000643665;-3.9624;-6.0478;-1.1660;0.0895;0.6269;-0.0127
0000643673;-3.9480;-5.8131;-1.2139;0.0774;0.6186;-0.0092
0000643681;-3.7637;-5.9065;-1.2929;0.0757;0.5830;-0.0113
0000643693;-3.9409;-5.8442;-1.2713;0.0685;0.5750;-0.0215
0000643701;-4.2114;-5.9664;-1.4868;0.0719;0.5618;-0.0318
0000643713;-4.2090;-5.7269;-1.5730;0.0713;0.5237;-0.0478
0000643721;-4.3072;-5.9544;-1.5012;0.0585;0.5041;-0.0529
0000643733;-4.4508;-5.8490;-1.4772;0.0553;0.4582;-0.0485
0000643741;-4.1922;-5.7820;-1.5850;0.0390;0.4294;-0.0382
0000643809;-3.9935;-5.6790;-1.8890;-0.0669;0.2846;-0.0165
0000643817;-4.0318;-5.8275;-1.8100;-0.0671;0.2653;-0.0087
0000643829;-3.9504;-6.0478;-2.0231;-0.0705;0.2386;-0.0232
0000643837;-3.8235;-6.2632;-1.9968;-0.0678;0.2248;-0.0346
0000643845;-3.8283;-6.3111;-1.9824;-0.0757;0.2117;-0.0356
0000643857;-3.8140;-6.3303;-1.9680;-0.0826;0.1841;-0.0513
0000643865;-3.5817;-6.0454;-1.9824;-0.0893;0.1828;-0.0365
0000643877;-3.8810;-5.9927;-1.8747;-0.1023;0.1723;-0.0293
0000643885;-3.7828;-5.9065;-1.9776;-0.1096;0.1669;-0.0314
0000643897;-3.8044;-5.9951;-1.9297;-0.1174;0.1656;-0.0199
0000643905;-3.8140;-6.1244;-2.0183;-0.1142;0.1455;-0.0125
0000643917;-3.5147;-6.1411;-2.1045;-0.1074;0.1346;-0.0061
0000643925;-3.7038;-6.2177;-2.0111;-0.1042;0.1494;-0.0067
0000643937;-3.9193;-6.2728;-1.9728;-0.0919;0.1296;-0.0155
0000643945;-3.6200;-6.2417;-2.0279;-0.0771;0.0911;-0.0104
0000643957;-3.9169;-6.3901;-1.9106;-0.0630;0.0945;-0.0068
0000643965;-4.0390;-6.0071;-1.8196;-0.0569;0.0897;-0.0024
0000643973;-4.0869;-6.1723;-1.7406;-0.0465;0.0802;0.0031
0000643985;-3.8355;-6.1076;-1.8962;-0.0310;0.0765;0.0049
0000643993;-3.8906;-6.2153;-1.7693;-0.0147;0.0689;-0.0007
0000644005;-3.5985;-6.1387;-1.9106;0.0105;0.0473;-0.0088
0000644013;-3.5243;-6.1651;-1.9082;0.0257;0.0350;-0.0053
0000644081;-3.8307;-5.8442;-1.9130;0.0374;0.0734;0.0039
0000644089;-3.7661;-5.8945;-2.0039;0.0361;0.0550;0.0048
0000644101;-3.9025;-5.8706;-2.0183;0.0321;0.0316;0.0039
0000644109;-3.9073;-5.8107;-2.0303;0.0278;0.0205;0.0044
0000644121;-4.1228;-5.7269;-2.0063;0.0188;-0.0027;0.0051
0000644129;-4.1922;-5.8395;-1.9297;0.0104;-0.0372;-0.0029
0000644137;-4.0558;-5.6503;-1.9130;0.0065;-0.0642;-0.0048
0000644149;-3.8427;-5.7868;-1.8747;0.0096;-0.0809;-0.0019
0000644157;-3.7397;-5.8371;-1.8603;0.0079;-0.0787;0.0093
0000644169;-3.6799;-6.0358;-1.9130;0.0260;-0.0861;0.0036
0000644177;-3.6416;-6.2058;-1.8914;0.0294;-0.0829;0.0040
0000644189;-3.6727;-6.2321;-1.7597;0.0393;-0.0954;-0.0016
0000644197;-3.7685;-6.2920;-1.9297;0.0462;-0.1002;0.0011
0000644209;-3.8092;-6.0837;-1.8076;0.0488;-0.1077;0.0020
0000644217;-3.9241;-6.0382;-1.7980;0.0410;-0.1075;-0.0015
0000644229;-3.7900;-5.9664;-1.9800;0.0397;-0.1175;-0.0056
0000644237;-3.6057;-5.8562;-1.8747;0.0358;-0.1226;0.0001
0000644245;-3.5338;-5.8083;-1.9082;0.0401;-0.1232;-0.0059
0000644257;-3.6224;-6.0430;-1.9034;0.0458;-0.1312;-0.0039
0000644265;-3.6152;-6.1316;-1.9034;0.0510;-0.1318;-0.0033
0000644277;-3.7589;-6.1651;-1.9178;0.0618;-0.1367;0.0047
0000644285;-3.6919;-6.1292;-1.8603;0.0674;-0.1378;0.0097
0000644353;-3.5410;-5.8706;-1.9393;0.0691;-0.1025;-0.0017
0000644361;-3.6847;-5.8897;-1.8938;0.0629;-0.1111;-0.0052
0000644373;-3.7757;-5.7724;-1.8651;0.0633;-0.1280;-0.0024
0000644381;-3.7852;-5.9640;-1.7310;0.0533;-0.1371;-0.0001
0000644393;-3.6224;-5.7604;-1.6807;0.0478;-0.1536;-0.0045
0000644401;-3.5626;-5.7748;-1.6927;0.0380;-0.1444;0.0013
0000644413;-3.5817;-5.8897;-1.6903;0.0317;-0.1406;0.0013
0000644421;-3.6536;-6.0669;-1.6113;0.0272;-0.1368;0.0092
0000644429;-3.3998;-5.8371;-1.7119;0.0144;-0.1312;0.0211
0000644442;-3.6703;-6.0956;-1.6568;-0.0019;-0.1214;0.0284
0000644451;-3.6009;-6.0262;-1.6089;-0.0087;-0.1214;0.0237
0000644464;-3.6152;-5.8107;-1.5706;-0.0310;-0.1147;0.0179
0000644473;-3.5602;-5.7676;-1.6281;-0.0564;-0.1038;0.0253
0000644486;-3.6847;-5.6671;-1.6568;-0.0843;-0.1031;0.0085
0000644495;-3.8116;-5.6719;-1.7334;-0.0954;-0.1111;-0.0116
0000644508;-3.8211;-5.7078;-1.7454;-0.1219;-0.1259;-0.0220
0000644517;-3.7781;-5.7772;-1.7095;-0.1380;-0.1287;-0.0189
0000644530;-3.5793;-5.8131;-1.7454;-0.1423;-0.1412;-0.0184
0000644539;-3.7661;-5.9209;-1.5969;-0.1411;-0.1382;-0.0059
0000644552;-3.4213;-5.8993;-1.6783;-0.1216;-0.1502;-0.0041
0000644561;-3.4596;-5.8873;-1.5682;-0.1061;-0.1348;-0.0027
0000644570;-3.5362;-6.0023;-1.3767;-0.0938;-0.1227;-0.0044
0000644639;-3.4955;-5.6743;-1.3216;-0.1070;-0.1360;-0.0107
0000644648;-3.6081;-5.8371;-1.2737;-0.1058;-0.1311;-0.0103
0000644661;-3.5506;-5.9017;-1.2258;-0.0990;-0.1130;-0.0079
0000644670;-3.6416;-6.0956;-1.2785;-0.0913;-0.1082;-0.0117
0000644683;-3.6296;-6.1675;-1.2115;-0.0681;-0.1120;-0.0208
0000644692;-3.4884;-6.0573;-1.2067;-0.0496;-0.1023;-0.0245
0000644705;-3.5745;-6.2082;-1.2881;-0.0213;-0.1018;-0.0366
0000644714;-3.4836;-5.9711;-1.1684;-0.0144;-0.0977;-0.0356
0000644727;-3.3686;-6.0094;-1.2306;-0.0111;-0.0970;-0.0413
0000644736;-3.6464;-6.1866;-1.2043;-0.0215;-0.0841;-0.0304
0000644749;-3.5889;-5.9352;-1.2258;-0.0318;-0.0785;-0.0207
0000644758;-3.5362;-5.8395;-1.2809;-0.0460;-0.0754;-0.0144
0000644771;-3.8642;-5.9280;-1.2594;-0.0568;-0.0799;-0.0168
0000644780;-3.8044;-5.9496;-1.3336;-0.0674;-0.0803;-0.0059
0000644789;-3.7828;-5.8873;-1.2115;-0.0648;-0.0870;-0.0173
0000644802;-3.6823;-6.0573;-1.3001;-0.0596;-0.0875;-0.0133
0000644811;-3.6320;-6.0525;-1.2139;-0.0504;-0.0894;-0.0184
0000644824;-3.5937;-6.2034;-1.1899;-0.0345;-0.0878;-0.0260
0000644833;-3.5147;-6.0214;-1.2163;-0.0242;-0.0831;-0.0199
0000644846;-3.6799;-6.1172;-1.1732;-0.0176;-0.0734;-0.0172
0000644855;-3.6320;-5.9927;-1.2498;-0.0120;-0.0709;-0.0123
0000644924;-3.6081;-5.8802;-1.3408;-0.0313;-0.0457;-0.0107
0000644933;-3.4381;-5.8706;-1.2713;-0.0313;-0.0409;-0.0136
0000644946;-3.6559;-6.0885;-1.3455;-0.0316;-0.0365;-0.0124
0000644955;-3.5243;-6.0597;-1.3791;-0.0278;-0.0325;-0.0123
0000644971;-3.2633;-5.7748;-1.3815;-0.0234;-0.0309;-0.0159
0000644980;-3.4907;-5.8035;-1.3408;-0.0237;-0.0119;-0.0176
0000644993;-3.9624;-6.1699;-1.3216;-0.0310;0.0111;-0.0080
0000645002;-4.0438;-6.1004;-1.3216;-0.0308;0.0013;-0.0061
0000645011;-3.8690;-6.0334;-1.3575;-0.0257;-0.0228;-0.0091
0000645023;-3.7062;-5.9089;-1.3240;-0.0260;-0.0394;-0.0096
0000645032;-3.4333;-5.8395;-1.3096;-0.0317;-0.0093;-0.0087
0000645045;-3.5147;-5.8754;-1.4078;-0.0342;-0.0035;-0.0083
0000645054;-3.5338;-5.8730;-1.4126;-0.0262;-0.0127;-0.0168
0000645066;-3.7685;-6.0142;-1.3216;-0.0260;-0.0101;-0.0148
0000645075;-3.6488;-6.0525;-1.2665;-0.0286;-0.0095;-0.0081
0000645088;-3.6392;-6.0932;-1.2761;-0.0233;-0.0101;-0.0100
0000645097;-3.5147;-5.9951;-1.3192;-0.0180;-0.0048;-0.0133
0000645109;-3.4381;-5.9807;-1.3815;-0.0132;0.0139;-0.0099
0000645118;-3.2968;-6.0071;-1.2953;-0.0024;0.0185;-0.0141
0000645187;-3.9049;-5.9280;-1.2833;-0.0035;0.0506;-0.0208
0000645196;-3.6631;-5.8658;-1.1468;-0.0077;0.0553;-0.0175
0000645208;-3.4309;-5.7102;-1.1085;-0.0053;0.0549;-0.0159
0000645217;-3.2801;-5.8035;-1.1612;-0.0059;0.0598;-0.0152
0000645226;-3.4907;-6.0358;-1.1851;-0.0083;0.0843;-0.0141
0000645237;-3.1220;-5.7509;-1.3001;0.0004;0.0885;-0.0141
0000645245;-3.2346;-5.9472;-1.3384;0.0076;0.1034;-0.0077
0000645256;-3.4644;-6.0358;-1.1756;0.0116;0.1403;-0.0072
0000645264;-3.7445;-6.0334;-1.1851;0.0220;0.1307;-0.0137
0000645276;-3.7661;-5.9568;-1.2354;0.0163;0.1164;-0.0140
0000645284;-3.7733;-5.9831;-1.1803;0.0123;0.1013;-0.0105
0000645295;-3.6679;-5.7820;-1.2737;-0.0015;0.1023;-0.0039
0000645303;-3.5817;-5.7389;-1.2761;-0.0143;0.1106;-0.0005
0000645315;-3.6895;-5.8059;-1.4629;-0.0245;0.0847;0.0087
0000645323;-3.8092;-5.9185;-1.3886;-0.0264;0.0802;0.0032
