time;acc_x;acc_y;acc_z;gyro_x;gyro_y;gyro_z
0003616309;11.1594;5.2170;0.2466;0.9229;-1.4285;1.6084
0003616318;11.7436;4.5514;0.0024;1.2881;-1.6562;1.1046
0003616326;11.1522;3.8092;-0.1101;1.2681;-1.7654;0.7149
0003616334;9.4882;3.0239;0.3496;0.9681;-1.7977;0.3513
0003616343;6.9073;2.7821;1.2450;0.4655;-1.7886;-0.0007
0003616351;5.3534;2.4660;1.7549;0.0636;-1.6739;-0.2332
0003616359;3.9504;2.5809;1.5826;-0.1827;-1.4338;-0.4026
0003616370;2.2529;3.0335;0.8260;-0.2269;-1.0475;-0.5061
0003616378;1.0989;3.7589;0.6512;-0.1268;-0.7409;-0.5272
0003616389;-0.6105;3.8188;0.9481;0.0161;-0.2984;-0.6006
0003616397;-1.1995;3.8427;1.1349;0.1331;0.0107;-0.6675
0003616408;-2.0183;3.3423;1.3695;0.3034;0.4106;-0.7188
0003616416;-2.3750;2.7438;1.2378;0.4174;0.5950;-0.6800
0003616427;-0.7542;1.3384;1.2809;0.5943;0.6988;-0.5438
0003616435;1.6041;1.0391;1.8028;0.6075;0.8406;-0.4466
0003616443;3.2226;0.6177;1.9225;0.4908;0.9431;-0.3833
0003616454;5.6144;0.4525;2.0159;0.2118;0.9582;-0.3118
0003616462;7.1108;0.3376;2.0806;-0.0077;0.8974;-0.2589
0003616516;10.7164;2.2122;1.3838;0.0032;0.0081;-0.1962
0003616524;9.6654;2.0231;1.6879;0.1352;-0.1203;-0.1511
0003616535;8.3366;1.7071;1.9058;0.2509;-0.2276;-0.0629
0003616543;7.4986;1.2785;2.0231;0.2894;-0.2831;-0.0236
0003616551;6.9983;1.2234;2.1859;0.2782;-0.3087;0.0053
0003616562;6.3829;1.0846;2.4205;0.2264;-0.3246;0.0454
0003616570;5.7868;0.9098;2.4565;0.1871;-0.3256;0.0677
0003616581;5.8275;1.1899;2.7988;0.1314;-0.3380;0.1071
0003616589;6.0693;1.3431;3.0119;0.1096;-0.3404;0.1252
0003616600;6.0645;1.4006;2.9449;0.1030;-0.3624;0.1577
0003616608;6.3231;1.5347;2.9257;0.1009;-0.3782;0.1821
0003616616;6.6631;1.5945;2.8252;0.1148;-0.4162;0.1990
0003616627;6.9049;1.6089;2.7007;0.1411;-0.4487;0.2209
0003616635;7.1060;2.0207;2.7701;0.1571;-0.4579;0.2153
0003616646;6.7421;2.3822;2.6887;0.1384;-0.4339;0.1908
0003616654;6.4643;2.8730;2.5019;0.1088;-0.3986;0.1524
0003616665;5.9233;3.4357;2.0327;0.0304;-0.3256;0.1203
0003616673;5.8083;3.7469;1.7645;-0.0397;-0.2915;0.1191
0003616684;5.7820;4.2186;1.3024;-0.1196;-0.3054;0.1236
0003616692;5.8897;4.4508;1.2186;-0.1555;-0.3355;0.1268
0003616700;6.1339;4.6040;1.5945;-0.1879;-0.3000;0.1250
0003616711;5.9233;4.6424;3.7517;-0.2169;-0.0817;0.0957
0003616719;4.9297;4.5753;4.6615;-0.2397;0.1179;0.0318
0003616773;6.6631;4.1228;-1.3838;-1.2839;-0.4509;-1.7104
0003616781;8.2720;4.1587;-3.0789;-1.5008;-0.7294;-1.9405
0003616792;10.3860;4.2856;-4.7238;-1.6856;-0.9337;-2.0652
0003616800;10.6614;4.3910;-5.2840;-1.6770;-0.8873;-1.9862
0003616811;9.6079;4.2880;-4.5657;-1.4065;-0.6670;-1.6409
0003616819;8.3558;3.7924;-3.0765;-1.0480;-0.5670;-1.3193
0003616827;6.9647;3.0622;-1.1779;-0.5922;-0.5442;-1.0200
0003616838;5.5402;3.1196;1.2689;-0.1102;-0.5175;-0.7206
0003616846;5.6336;3.6871;1.7717;0.0642;-0.5741;-0.5890
0003616857;7.3598;4.2689;1.4964;0.0945;-0.7116;-0.4668
0003616865;8.1786;4.4939;1.1133;-0.0135;-0.8897;-0.4314
0003616876;9.6103;5.0254;0.9266;-0.2185;-1.2283;-0.4816
0003616884;10.2256;5.0973;0.8523;-0.2971;-1.4909;-0.5423
0003616895;11.2623;4.5777;0.7949;-0.1729;-1.8421;-0.5441
0003616903;11.5520;4.1444;0.6369;0.0458;-2.0398;-0.4711
0003616911;11.9279;3.8355;1.0271;0.3046;-2.1949;-0.3889
0003616922;11.2934;3.2226;0.9792;0.6201;-2.3285;-0.2653
0003616930;10.6039;2.8252;1.2546;0.7296;-2.4221;-0.2193
0003616941;9.7468;2.3942;1.8651;0.7011;-2.4904;-0.1940
0003616949;8.7580;2.0997;2.4445;0.5975;-2.5334;-0.2297
0003616960;7.6399;1.3910;2.8683;0.4250;-2.5611;-0.3103
0003616968;6.8331;1.1325;2.7318;0.3050;-2.5714;-0.3753
0003617022;3.7757;1.5514;2.1763;-0.0209;-2.1232;-0.3992
0003617030;4.3670;1.6688;2.3535;0.0284;-2.0133;-0.3663
0003617038;5.0039;1.6376;2.3631;0.1066;-1.9164;-0.3716
0003617049;5.7221;2.1021;2.3272;0.1828;-1.8836;-0.4070
0003617057;6.1028;2.1356;2.3296;0.2256;-1.8699;-0.4608
0003617068;6.6391;2.4014;2.3607;0.2607;-1.8153;-0.5197
0003617076;6.7732;2.4421;2.4421;0.2743;-1.7670;-0.5520
0003617087;6.8091;2.5690;2.5235;0.3228;-1.7387;-0.5915
0003617095;6.7828;2.4301;2.7174;0.3920;-1.7439;-0.6242
0003617103;6.7636;2.3272;2.7653;0.4766;-1.7512;-0.6502
0003617114;6.9959;2.0279;2.8946;0.5841;-1.7748;-0.6789
0003617122;7.1898;2.1811;2.9832;0.6471;-1.8189;-0.7012
0003617133;6.9408;1.6568;3.3854;0.6761;-1.8667;-0.7285
0003617141;6.8474;1.4222;3.3208;0.6527;-1.9105;-0.7362
0003617152;7.0054;1.2378;3.2370;0.5466;-1.9394;-0.7131
0003617160;7.0797;1.0127;3.1987;0.4100;-1.9833;-0.6795
0003617171;7.4196;1.0463;2.8084;0.1715;-2.0555;-0.6099
0003617179;7.6974;1.1564;2.6336;-0.0226;-2.0904;-0.5212
0003617187;8.0302;1.1971;2.5187;-0.2236;-2.1240;-0.4343
0003617198;8.8083;2.0279;2.1069;-0.4543;-2.0977;-0.3040
0003617206;8.7508;2.4636;1.7478;-0.5641;-2.0692;-0.2238
0003617217;8.4420;3.2298;2.0590;-0.6186;-2.0504;-0.1567
0003617225;7.9727;3.6943;2.1859;-0.5664;-2.0479;-0.1451
0003617279;5.6407;3.9456;-1.5634;0.4101;-2.0837;-0.2505
0003617287;5.7892;5.5354;-3.0861;0.0234;-2.1124;0.2599
0003617298;4.8339;8.6933;-3.5817;-1.1243;-2.1521;1.6615
0003617306;3.2154;8.8585;-3.5051;-1.7123;-2.0300;2.4764
0003617314;3.1603;8.4587;-1.9848;-1.6614;-2.0197;2.7251
0003617325;5.3510;8.1570;0.6225;-0.8973;-2.1224;2.3515
0003617333;7.1874;7.3789;1.7693;-0.1021;-2.2396;1.7424
0003617344;8.9064;6.4691;2.5905;0.9443;-2.4094;0.7894
0003617352;9.0573;5.4708;3.0430;1.3512;-2.4479;0.2875
0003617363;7.5681;3.4860;4.2904;1.5191;-2.3844;-0.2198
0003617371;6.1914;2.7342;4.6160;1.4166;-2.2512;-0.5060
0003617379;4.8794;1.8507;3.8954;1.1078;-2.0832;-0.6856
0003617390;2.9544;1.4437;1.9728;0.5648;-1.8143;-0.8888
0003617398;1.2833;1.0989;0.7302;0.1723;-1.5375;-0.9932
0003617409;-0.9673;0.4956;0.1580;-0.1789;-1.2556;-1.1518
0003617417;-2.3200;0.1628;0.0958;-0.2459;-1.0832;-1.2505
0003617428;-3.3040;0.1580;0.5267;-0.1656;-1.0087;-1.2874
0003617436;-2.9425;0.5267;0.6369;-0.0901;-1.0491;-1.1707
0003617447;1.0630;1.1013;1.0439;-0.0753;-0.9757;-0.8612
0003617455;3.3303;1.3360;1.1516;-0.1883;-0.8422;-0.6194
0003617463;5.6551;1.5490;1.4724;-0.3280;-0.7501;-0.4273
0003617474;7.9224;1.8771;1.3838;-0.4850;-0.7430;-0.2786
0003617482;9.0836;1.6999;1.5395;-0.5249;-0.7625;-0.2380
0003617536;5.3391;3.8283;2.2505;-0.6265;-0.8941;-0.3954
0003617544;4.9177;4.3311;2.4421;-0.5165;-0.8420;-0.3264
0003617555;4.4772;4.1492;2.4373;-0.2381;-0.7762;-0.2673
0003617563;4.1755;3.7613;2.3128;-0.0444;-0.7091;-0.2425
0003617574;3.9049;2.8467;2.0327;0.1364;-0.6273;-0.2846
0003617582;3.5171;1.8531;1.9249;0.1799;-0.5568;-0.3493
0003617590;3.6105;1.6496;1.8938;0.0898;-0.4859;-0.3816
0003617601;3.8738;1.8723;2.2984;-0.2346;-0.4056;-0.2995
0003617609;3.7469;2.0399;1.9968;-0.4445;-0.3958;-0.2817
0003617620;3.7804;2.6049;2.0375;-0.6242;-0.3539;-0.2914
0003617628;3.8786;3.1843;2.0183;-0.6651;-0.3247;-0.3243
0003617639;4.3910;4.1635;1.9728;-0.6951;-0.3372;-0.3551
0003617647;4.4652;4.3263;1.8866;-0.6210;-0.3692;-0.3869
0003617658;5.0470;4.8291;2.0351;-0.4245;-0.4239;-0.4234
0003617666;5.3534;4.8459;2.0806;-0.2581;-0.4767;-0.4578
0003617674;5.5186;4.8004;2.1572;-0.0939;-0.5389;-0.4822
0003617685;5.8131;4.3407;1.8268;0.1231;-0.6414;-0.5144
0003617693;5.6312;4.1396;1.6113;0.2685;-0.6848;-0.5327
0003617704;5.1715;3.1867;1.4916;0.4290;-0.7464;-0.5421
0003617712;4.8961;2.9353;1.4581;0.5196;-0.7858;-0.5289
0003617766;4.3479;0.7135;1.3144;0.6873;-0.8716;-0.2602
0003617774;4.5897;0.5722;1.4533;0.6744;-0.8589;-0.2413
0003617785;4.8123;0.1532;1.6544;0.6190;-0.8322;-0.2156
0003617793;4.9775;0.0934;1.7382;0.5645;-0.8286;-0.2072
0003617801;5.0159;0.0144;1.6640;0.4856;-0.8164;-0.1763
0003617812;4.8674;-0.0646;1.7693;0.3584;-0.8046;-0.1460
0003617820;4.8004;0.1604;1.7765;0.2326;-0.7879;-0.1255
0003617831;4.6495;0.4812;1.9465;0.0516;-0.7806;-0.1078
0003617839;4.6567;1.2665;2.3032;-0.0602;-0.7710;-0.1042
0003617850;4.4772;2.5139;2.4038;-0.2206;-0.7396;-0.1255
0003617858;4.7692;3.5554;2.3343;-0.3110;-0.7385;-0.1533
0003617869;4.3718;4.6280;2.5762;-0.4130;-0.6968;-0.1476
0003617877;4.5370;5.8131;2.7102;-0.4557;-0.6548;-0.1419
0003617885;4.4891;7.1802;2.7629;-0.4996;-0.6094;-0.1459
0003617896;4.8171;9.0597;3.0167;-0.5231;-0.5379;-0.2114
0003617904;5.0853;10.3813;3.3662;-0.4820;-0.5145;-0.2835
0003617915;5.7006;12.2009;3.7876;-0.4044;-0.4794;-0.4112
0003617923;5.6192;13.3644;3.7541;-0.3335;-0.4222;-0.5119
0003617934;4.8698;14.4059;3.5626;-0.1545;-0.3353;-0.6479
0003617942;4.0917;14.6669;2.7773;0.0674;-0.3323;-0.6715
0003617953;3.5937;14.4849;1.7645;0.4178;-0.4241;-0.4891
0003617961;3.5099;13.8385;1.4868;0.6125;-0.5355;-0.1960
0003617969;3.6847;12.6366;1.3934;0.7881;-0.6498;0.1771
0003618023;7.6160;1.2785;-1.9656;1.7111;-1.4637;0.5558
0003618031;7.8673;0.6608;-2.0303;1.4978;-1.5640;0.4335
0003618042;7.5130;-0.5531;-1.9632;0.9706;-1.6537;0.2302
0003618050;7.6974;-0.9433;-1.7980;0.4971;-1.7082;0.1239
0003618061;8.2696;-1.2067;-1.3120;-0.1619;-1.7802;0.0663
0003618069;8.5521;-1.2067;-0.7925;-0.5861;-1.8070;0.0750
0003618080;8.8969;-0.7781;-0.1820;-1.0567;-1.8021;0.1450
0003618088;8.7269;-0.3783;0.0646;-1.3303;-1.7877;0.2065
0003618096;8.2265;0.5914;0.3903;-1.5600;-1.7822;0.2398
0003618107;7.1204;1.7765;0.5746;-1.8490;-1.7540;0.2132
0003618115;6.5003;2.6312;0.7374;-1.9990;-1.7419;0.1575
0003618126;5.6072;2.9066;1.2282;-2.0399;-1.7076;0.0344
0003618134;5.5330;3.3447;1.3551;-1.9037;-1.6590;-0.0381
0003618145;5.4133;3.1939;1.8052;-1.5126;-1.5684;-0.0649
0003618153;5.5306;3.2298;1.6855;-1.0862;-1.4942;-0.0392
0003618164;5.2002;2.6480;1.6975;-0.4423;-1.4145;0.0203
0003618172;5.0805;2.4756;1.6328;-0.0791;-1.3458;0.0733
0003618180;5.0781;2.0710;1.4748;0.1494;-1.3019;0.1142
0003618191;4.9728;1.3216;1.1588;0.2996;-1.2529;0.1300
0003618199;4.8914;0.9194;1.0175;0.2963;-1.1997;0.1395
0003618210;5.0589;0.4980;0.5818;0.2441;-1.1305;0.1496
0003618218;5.4516;0.0694;0.3352;0.2042;-1.0603;0.1518
0003618272;7.3287;-0.8284;-0.0479;0.0516;-0.9277;0.1601
0003618280;7.5896;-0.9409;-0.1365;-0.0328;-0.9731;0.1561
0003618288;8.0637;-0.9433;-0.3304;-0.1014;-1.0195;0.1539
0003618299;8.3629;-0.8236;-0.3017;-0.2065;-1.0176;0.1683
0003618307;8.4132;-0.6512;-0.1293;-0.2801;-1.0279;0.1487
0003618318;8.4611;-0.2873;0.0144;-0.3683;-1.0704;0.1094
0003618326;8.5473;-0.0694;-0.2490;-0.3898;-1.1181;0.0950
0003618337;8.4443;0.2490;0.4166;-0.3665;-1.2076;0.0650
0003618345;8.7029;0.2849;0.3400;-0.3028;-1.2562;0.0530
0003618356;8.5521;0.4717;0.8308;-0.1717;-1.3237;0.0604
0003618364;8.4851;0.4956;0.8140;-0.0624;-1.3676;0.0859
0003618372;8.1810;0.3041;0.9433;0.0412;-1.4115;0.1167
0003618383;8.0158;-0.0670;0.8523;0.1077;-1.4734;0.1617
0003618391;7.9535;-0.1437;0.7997;0.1184;-1.5120;0.1805
0003618402;8.0756;-0.2011;0.8643;0.0550;-1.4775;0.2096
0003618410;7.8937;-0.3065;1.1827;-0.0585;-1.4446;0.2226
0003618421;7.3095;-0.2490;1.3384;-0.2378;-1.3917;0.2196
0003618429;6.7828;-0.2155;1.3815;-0.3581;-1.3610;0.2010
0003618440;6.1675;0.2897;1.3743;-0.4975;-1.3304;0.2072
0003618448;6.1124;0.1820;1.7526;-0.5149;-1.2773;0.2236
0003618456;5.9041;0.0311;2.0016;-0.4779;-1.1979;0.2521
0003618467;5.8754;0.1197;2.5809;-0.4080;-1.0905;0.2665
0003618475;5.8730;0.2418;2.9257;-0.4207;-1.0148;0.2630
0003618529;3.4620;6.9552;5.6312;-1.5853;-0.3158;-0.3523
0003618537;3.3184;8.9495;5.6048;-1.7399;-0.2902;-0.5994
0003618548;4.5633;12.4139;5.5091;-1.7255;-0.3782;-0.9261
0003618556;6.3925;14.8010;5.2194;-1.4914;-0.5646;-1.1040
0003618567;9.5672;17.8272;5.2864;-0.9443;-0.7689;-1.1676
0003618575;11.8824;19.3068;4.8219;-0.4868;-0.8404;-1.0423
0003618583;13.1442;20.7482;4.5155;-0.0933;-0.8239;-0.7857
0003618594;13.5272;20.7793;4.0749;0.3738;-0.6776;-0.4784
0003618602;12.5696;18.5215;3.7948;0.8807;-0.5324;-0.5245
0003618613;11.1306;14.9781;4.0199;1.6792;-0.5092;-0.6699
0003618621;10.5967;12.2511;3.8068;2.0406;-0.5943;-0.6749
0003618632;10.3118;8.7460;2.6408;2.3657;-0.7085;-0.7305
0003618640;10.1011;6.4141;2.1691;2.5113;-0.8427;-0.8096
0003618651;9.6175;3.7230;2.1093;2.5504;-0.9799;-0.9446
0003618659;8.9256;1.7358;1.9728;2.4869;-1.0769;-1.0564
0003618667;8.3773;0.1532;1.6999;2.3521;-1.1646;-1.1562
0003618678;7.6758;-1.6352;1.3384;2.0684;-1.3122;-1.2778
0003618686;7.3478;-2.8467;0.4477;1.8105;-1.3837;-1.3105
0003618697;7.4986;-4.1779;-0.7805;1.4542;-1.4107;-1.2434
0003618705;7.5441;-4.7908;-1.5227;1.1506;-1.3752;-1.1064
0003618716;7.5178;-5.0446;-1.6257;0.5841;-1.2684;-0.7622
0003618724;7.0629;-4.2282;-0.7925;0.0037;-1.2564;-0.4395
0003618778;3.6176;1.5443;-1.5012;-2.8625;-0.3976;0.2042
0003618786;3.0191;2.1668;-1.0702;-2.5083;-0.3267;-0.0024
0003618797;2.7773;2.7557;0.2658;-1.7682;-0.2679;-0.3100
0003618805;3.1651;3.6152;1.2809;-1.2323;-0.2229;-0.4863
0003618813;3.3399;4.0486;1.7430;-0.8226;-0.1877;-0.5930
0003618824;3.7493;3.8642;1.6185;-0.4457;-0.1498;-0.6042
0003618832;4.0582;3.4836;1.2881;-0.2213;-0.1038;-0.5375
0003618843;4.5586;2.7102;0.7614;0.1098;-0.0366;-0.4411
0003618851;4.6974;2.0758;0.5483;0.3015;0.0119;-0.3612
0003618862;5.1715;1.3048;0.2418;0.4766;0.0694;-0.2603
0003618870;5.1595;0.7590;0.0862;0.5332;0.0930;-0.2206
0003618878;4.9009;0.0168;-0.1652;0.5379;0.1195;-0.2164
0003618889;4.9177;-0.4717;-0.4310;0.4627;0.1583;-0.2340
0003618897;4.8483;-0.8404;-0.3855;0.3801;0.1639;-0.2450
0003618908;5.1667;-1.2713;-0.1820;0.2326;0.1720;-0.2201
0003618916;5.4636;-1.2713;-0.2274;0.1306;0.1684;-0.1925
0003618927;5.2241;-1.2641;-0.1772;0.0060;0.1847;-0.1338
0003618935;5.0542;-1.1588;0.3735;-0.0550;0.1943;-0.0987
0003618946;5.0254;-1.0511;1.0582;-0.0939;0.2426;-0.0374
0003618954;4.7549;-0.7853;0.4094;-0.0787;0.2392;0.0314
0003618962;4.6112;-1.1540;0.8859;-0.0604;0.2491;0.0657
0003618973;4.8147;-0.8763;1.3815;-0.0312;0.2822;0.1088
0003618981;4.6280;-0.8475;1.5036;-0.0203;0.2693;0.1569
0003619035;4.9488;1.4078;1.8076;-0.2336;0.3220;0.2274
0003619043;5.2289;1.8555;1.9728;-0.2073;0.3232;0.1400
0003619054;5.6814;2.3128;2.2913;-0.1557;0.3082;0.0442
0003619062;5.8993;2.5714;2.4876;-0.1154;0.2943;0.0108
0003619073;5.9735;2.9521;2.9257;-0.1240;0.2697;0.0084
0003619081;6.3470;3.5123;3.2968;-0.1892;0.2368;0.0167
0003619089;6.7445;4.3024;3.4261;-0.2694;0.1973;0.0268
0003619100;6.8235;4.9560;3.4333;-0.3336;0.1303;0.0695
0003619108;6.7660;5.6360;3.7685;-0.3100;0.0811;0.0919
0003619119;6.9216;6.8857;4.6232;-0.2529;0.0368;0.1520
0003619127;7.5633;8.0397;4.8147;-0.1863;-0.0132;0.2074
0003619138;7.9033;8.9735;5.0087;-0.0368;-0.0266;0.3156
0003619146;7.7716;9.6893;5.0254;0.1395;0.0100;0.4074
0003619154;7.7883;10.5465;5.0063;0.3499;0.0500;0.4590
0003619165;6.9288;11.7388;4.3598;0.5942;0.1334;0.5241
0003619173;6.1268;12.7084;3.2322;0.7408;0.1873;0.5151
0003619184;5.3654;13.3094;1.4557;0.9489;0.1502;0.4310
0003619192;6.3494;13.7284;1.5371;1.0925;0.0632;0.3074
0003619203;7.9775;12.2511;2.5618;1.3117;-0.0009;-0.0336
0003619211;7.9296;11.4874;2.2434;1.3915;-0.0137;-0.3018
0003619219;7.3550;9.7396;2.0255;1.4200;-0.0400;-0.4207
0003619230;5.4995;7.5178;1.8292;1.4072;0.0003;-0.2936
0003619238;4.5705;5.7581;1.4940;1.3512;0.0608;-0.0971
0003619292;6.5434;-2.0087;-2.9449;0.9737;-0.1212;0.7144
0003619300;6.3853;-1.4365;-2.7988;0.3932;-0.1990;0.6410
0003619311;6.7469;-1.0534;-2.5211;-0.5007;-0.2429;0.4322
0003619319;7.4819;-0.5842;-1.1612;-1.0216;-0.2713;0.2161
0003619330;8.4779;0.0239;-0.2705;-1.4453;-0.3616;-0.0673
0003619338;9.2129;0.1077;-0.1796;-1.5324;-0.4337;-0.1729
0003619346;9.3613;0.1413;-0.1772;-1.4478;-0.4738;-0.1919
0003619357;9.0716;0.0335;-0.4693;-1.1285;-0.4795;-0.1302
0003619365;8.5880;0.0383;-0.6225;-0.8556;-0.4987;-0.0357
0003619376;7.9583;0.3065;-0.3208;-0.6123;-0.5371;0.1803
0003619384;7.4675;0.5698;-0.0215;-0.5493;-0.5760;0.3507
0003619395;6.8881;0.7422;0.5243;-0.5987;-0.6130;0.5424
0003619403;6.2560;0.7015;0.6991;-0.6447;-0.6238;0.6110
0003619414;5.6862;0.7063;0.6105;-0.6374;-0.6122;0.6107
0003619422;5.2481;0.6584;0.5171;-0.5706;-0.5681;0.5421
0003619430;5.2648;0.7829;0.3903;-0.4395;-0.5236;0.4253
0003619441;5.7652;0.7685;0.2035;-0.2370;-0.4199;0.2770
0003619449;5.9089;0.6393;0.1460;-0.0945;-0.3420;0.1970
0003619460;6.1363;0.3663;0.2370;0.0746;-0.2659;0.1226
0003619468;5.8227;0.0646;0.4214;0.1471;-0.2272;0.0935
0003619479;5.8035;-0.2705;0.6560;0.1605;-0.2080;0.0999
0003619487;5.9185;-0.6800;0.4812;0.1537;-0.2056;0.1296
0003619495;6.3255;-0.6752;0.0958;0.1332;-0.2001;0.1836
0003619549;7.8937;-0.2562;0.7398;-0.2951;-0.1438;0.2618
0003619557;7.9847;-0.1580;0.7518;-0.3373;-0.1470;0.2549
0003619568;8.1810;0.3065;0.9050;-0.4126;-0.1272;0.2415
0003619576;8.3462;0.5028;0.8954;-0.4466;-0.1134;0.2557
0003619587;8.2121;0.8906;0.8691;-0.4903;-0.0911;0.3024
0003619595;8.2576;1.5323;0.8428;-0.5119;-0.0770;0.3203
0003619606;8.1307;1.7286;0.9481;-0.4942;-0.0496;0.3721
0003619614;8.4970;2.0925;1.0511;-0.4485;-0.0035;0.4199
0003619622;8.5258;2.4541;1.3072;-0.3916;0.0552;0.4614
0003619633;7.8434;2.6552;1.2594;-0.3429;0.1422;0.5313
0003619641;7.8362;2.9401;1.3168;-0.3158;0.2000;0.5818
0003619652;7.4148;3.4524;1.8028;-0.3172;0.2952;0.6627
0003619660;7.1802;3.6248;2.0159;-0.3389;0.3511;0.7189
0003619671;6.9599;4.3287;2.6097;-0.3567;0.4143;0.7606
0003619679;6.8019;4.6759;3.1292;-0.3457;0.4531;0.7385
0003619687;6.9743;4.9273;3.5338;-0.3015;0.4610;0.6558
0003619698;7.9033;5.5019;3.9887;-0.1888;0.4322;0.4410
0003619706;8.5736;6.0717;4.2329;-0.0951;0.3701;0.2130
0003619717;9.7252;6.7708;4.2401;-0.0300;0.2402;-0.1242
0003619725;10.5369;7.5058;4.2449;-0.0410;0.0947;-0.3373
0003619736;12.2918;8.5617;4.2641;-0.1179;-0.1793;-0.5361
0003619744;13.1873;9.4212;4.3120;-0.1717;-0.4137;-0.6182
0003619798;7.9057;9.1818;4.5274;0.4866;-0.7210;-0.7048
0003619806;6.4931;7.7931;4.9081;0.6895;-0.6266;-0.6063
0003619814;5.0805;6.2130;3.9528;0.8120;-0.5267;-0.4987
0003619825;4.8722;3.4931;2.2266;1.0617;-0.4319;-0.4992
0003619833;5.9831;1.8675;0.7518;1.2688;-0.3389;-0.6138
0003619844;7.7596;0.2849;-0.5938;1.4117;-0.3636;-0.8535
0003619852;8.9735;-0.4693;-1.3216;1.3560;-0.4250;-1.0504
0003619863;10.2999;-0.8739;-1.8579;1.0740;-0.5385;-1.3407
0003619871;10.4603;-1.0463;-1.6257;0.7474;-0.6018;-1.4797
0003619882;10.4220;-1.1851;-1.0918;0.2192;-0.7000;-1.3933
0003619890;10.0197;-0.7661;-0.6416;-0.1825;-0.7492;-1.1331
0003619898;9.1746;-0.2825;0.1796;-0.6005;-0.8146;-0.7797
0003619909;8.5497;0.5507;0.7494;-1.1068;-0.8925;-0.2177
0003619917;8.0421;0.9194;1.0343;-1.3813;-0.8948;0.1749
0003619928;7.8530;1.3479;1.1875;-1.5608;-0.8084;0.5919
0003619936;6.9480;1.4509;1.5634;-1.5489;-0.6876;0.7642
0003619947;5.9256;2.3080;2.0111;-1.4687;-0.4835;0.7421
0003619955;5.0661;3.1173;2.4134;-1.4635;-0.2924;0.5375
0003619966;3.6248;4.4005;2.2913;-1.5192;-0.0386;0.0730
0003619974;2.8587;5.3439;2.1620;-1.5262;0.1144;-0.2590
0003619982;2.3511;6.0597;1.7310;-1.3928;0.2903;-0.5144
0003619993;1.6400;6.0382;1.8100;-0.9185;0.3914;-0.7663
0003620001;1.1157;6.1531;2.2410;-0.5148;0.4674;-0.7524
0003620055;7.5753;-0.1030;2.1787;0.9474;0.4373;-0.2868
0003620063;7.8171;-0.7949;1.6185;0.9911;0.4000;-0.2337
0003620074;7.8745;-1.9609;0.7614;1.0693;0.3148;-0.1919
0003620082;7.3430;-2.7198;0.3687;1.1094;0.2394;-0.1725
0003620090;6.9360;-3.4860;-0.0215;1.1105;0.1596;-0.1743
0003620101;6.1866;-3.9409;-0.1197;0.9847;0.0839;-0.1921
0003620109;5.4229;-4.3886;-0.0934;0.7991;0.0189;-0.1929
0003620120;4.9105;-4.6950;0.1867;0.5021;-0.0388;-0.1500
0003620128;4.7932;-4.8147;0.2274;0.3014;-0.0294;-0.0953
0003620139;3.9289;-5.2194;0.5722;0.0739;0.0197;-0.0782
0003620147;3.6440;-5.2074;0.6512;-0.0757;0.0516;-0.0614
0003620158;3.4237;-4.4819;0.4908;-0.3074;0.1114;-0.0629
0003620166;3.8283;-4.1875;0.5722;-0.4666;0.1657;-0.0052
0003620174;3.7278;-3.2848;0.5914;-0.6242;0.2289;0.0060
0003620185;4.1156;-1.5706;0.3543;-0.8833;0.3569;-0.0252
0003620193;4.4221;-0.7159;0.2993;-0.9951;0.4053;-0.0268
0003620204;4.9057;0.4046;0.6416;-1.0087;0.4819;-0.0266
0003620212;4.9464;0.9984;0.8116;-0.9846;0.5213;0.0093
0003620223;5.3774;2.1644;0.9218;-0.8887;0.5460;0.0597
0003620231;5.6743;2.7533;1.0151;-0.8192;0.5618;0.1106
0003620242;5.8849;3.6799;1.0271;-0.7617;0.5650;0.1573
0003620250;6.1124;4.7501;1.3168;-0.7428;0.5676;0.1764
0003620258;5.9185;5.4971;1.7047;-0.7405;0.5546;0.1761
0003620312;7.7093;13.9007;6.7493;-0.4758;0.3990;0.1383
0003620320;8.2193;15.7945;6.9073;-0.2453;0.4438;0.0775
0003620331;7.4005;17.3197;6.6319;0.2232;0.4647;-0.0893
0003620339;5.9831;16.4170;6.8761;0.6624;0.5209;-0.1958
0003620350;3.3519;14.7674;6.7828;1.2764;0.6658;-0.1340
0003620358;2.0614;13.2567;5.8371;1.7447;0.6370;0.0296
0003620366;1.4892;12.3206;4.7836;2.1178;0.6061;0.1234
0003620377;2.7007;9.5529;3.1891;2.3947;0.5668;0.0408
0003620385;4.6064;7.8697;2.3511;2.4948;0.5816;-0.1731
0003620396;6.5050;5.5019;1.6328;2.3768;0.6386;-0.4005
0003620404;7.5010;3.5721;1.3671;2.2202;0.6490;-0.4584
0003620415;8.3390;0.9361;1.2139;1.9660;0.6663;-0.3737
0003620423;8.9160;-0.8164;0.4956;1.8318;0.6650;-0.2261
0003620431;8.7340;-2.2218;-0.6656;1.7327;0.6751;-0.0430
0003620442;7.7452;-3.6799;-1.7933;1.4012;0.6619;0.2686
0003620450;6.8690;-3.9504;-2.0997;1.0233;0.5648;0.5171
0003620461;6.1435;-3.8714;-2.3343;0.3120;0.3781;0.7669
0003620469;6.8618;-3.1005;-2.1620;-0.2762;0.2979;0.7831
0003620480;7.9583;-2.5690;-1.4796;-1.0395;0.1041;0.6282
0003620488;8.8298;-1.7957;-1.0247;-1.4818;-0.1139;0.3932
0003620499;10.2089;-0.7685;-0.4477;-1.9418;-0.4470;0.0003
0003620507;11.7555;-0.1245;-0.5842;-2.1380;-0.6203;-0.2348
0003620515;13.0843;0.2729;-0.9960;-2.1440;-0.7260;-0.3698
0003620565;5.5258;5.8131;-0.1293;-1.4158;-0.9418;0.3248
0003620573;4.8890;5.7078;0.1245;-0.9262;-0.9289;0.4143
0003620584;4.9464;4.9177;0.5818;-0.0413;-0.8138;0.4707
0003620592;5.1332;4.0558;0.4214;0.5388;-0.7108;0.4806
0003620603;5.5474;2.4828;-0.1987;1.0888;-0.6178;0.4746
0003620611;5.6072;1.2881;-0.2514;1.2923;-0.5589;0.4419
0003620622;5.5545;-0.2131;-0.2921;1.3395;-0.5160;0.4004
0003620630;5.7269;-1.2713;-0.1724;1.2914;-0.5124;0.3824
0003620638;5.9592;-1.8890;-0.2538;1.1936;-0.5064;0.3941
0003620649;6.3614;-2.3056;-0.4429;0.9958;-0.5285;0.3821
0003620657;6.7349;-2.6719;-0.5148;0.8082;-0.5325;0.3800
0003620668;7.0126;-2.8084;-0.6177;0.5512;-0.5017;0.3838
0003620676;7.1347;-2.7916;-0.6584;0.3722;-0.4506;0.4072
0003620687;7.2042;-2.5307;-0.3855;0.1248;-0.3531;0.4177
0003620695;7.1802;-2.1117;-0.1652;-0.0360;-0.2875;0.3826
0003620706;7.3717;-1.1851;0.1053;-0.2049;-0.1981;0.3812
0003620714;7.3406;-0.6752;0.4908;-0.3096;-0.1306;0.3878
0003620722;7.2305;0.0335;0.8260;-0.4145;-0.0538;0.4243
0003620733;6.8857;1.4509;1.0558;-0.5592;0.0488;0.5646
0003620741;6.3542;2.7869;1.0582;-0.6588;0.1148;0.7220
0003620752;5.2888;4.5633;1.3479;-0.7293;0.1869;0.9890
0003620760;4.4772;6.0382;1.7286;-0.6997;0.2380;1.1656
0003620814;11.0612;10.5776;3.2992;1.7846;0.4227;0.0889
0003620822;12.7898;9.1961;3.2777;2.0992;0.1533;-0.1231
0003620830;14.1904;7.7093;3.0550;2.2343;-0.1422;-0.2942
0003620841;14.9470;5.3678;2.4876;2.1501;-0.3972;-0.4815
0003620849;14.9302;3.7876;2.5091;1.9997;-0.5640;-0.6358
0003620860;14.2240;1.5562;2.8323;1.7212;-0.7918;-0.8513
0003620868;13.4650;0.3256;3.1819;1.5183;-0.9394;-1.0100
0003620879;12.9383;-0.1389;2.8180;1.2099;-1.1050;-1.1187
0003620887;12.7204;-0.4788;1.0199;1.0154;-1.1704;-1.1755
0003620898;9.6750;0.1915;-3.6009;0.7739;-0.9767;-1.2534
0003620906;5.9041;2.0375;-5.5857;0.3870;-0.8222;-1.2025
0003620917;2.1644;3.4668;-1.9465;-0.5452;-0.4759;-0.7546
0003620925;-0.2801;3.3902;0.7326;-1.1514;-0.4426;-0.3852
0003620933;-1.9345;2.0638;2.1189;-1.2781;-0.3793;-0.1988
0003620944;-1.8627;0.0551;2.2458;-0.4966;-0.1949;-0.2208
0003620952;2.8946;-0.4860;1.5921;0.2906;-0.1203;-0.2727
0003620963;6.5577;-0.9888;-0.2107;0.8661;-0.2110;-0.4858
0003620971;9.1770;-1.2713;-1.3120;0.8973;-0.3174;-0.6398
0003620982;12.3900;-1.1133;-2.1261;0.4990;-0.3460;-0.7349
0003620990;13.3740;-0.6225;-2.1883;-0.0679;-0.3355;-0.7549
0003621001;11.9710;0.9074;-1.3168;-1.1106;-0.4632;-0.6175
0003621009;9.9024;2.0207;-0.5746;-1.8612;-0.7214;-0.3657
0003621063;3.8882;4.1252;1.5634;-0.4858;-0.8339;-0.4076
0003621071;4.0486;3.6990;1.7071;-0.2551;-0.7673;-0.5263
0003621079;4.1707;3.0095;1.8076;-0.2010;-0.6482;-0.6006
0003621090;4.5633;2.3008;1.8675;-0.3092;-0.4586;-0.6447
0003621098;4.7453;2.1835;1.7789;-0.4278;-0.2907;-0.6218
0003621109;4.4819;1.9632;0.7709;-0.5008;-0.0957;-0.5192
0003621117;4.6687;1.6903;0.1963;-0.4775;0.0007;-0.4507
0003621128;4.8602;1.8364;-0.3591;-0.4141;0.0783;-0.3640
0003621136;5.1882;1.8651;-0.6057;-0.3608;0.0961;-0.2746
0003621147;5.8083;1.9393;-0.5100;-0.2927;0.1086;-0.1653
0003621155;6.3566;1.9489;-0.2825;-0.2513;0.1199;-0.0970
0003621163;6.6080;2.0111;0.0790;-0.2240;0.1363;-0.0378
0003621174;6.7708;1.6089;-0.2274;-0.1406;0.1716;-0.0093
0003621182;6.6272;1.6472;-0.4956;-0.0867;0.2128;-0.0492
0003621193;6.5098;1.6783;-0.6321;-0.0240;0.2555;-0.1599
0003621201;6.0597;1.3001;-0.6033;0.0298;0.2710;-0.2338
0003621212;5.4803;0.8619;-0.5315;0.1061;0.3238;-0.3227
0003621220;4.9871;0.4022;-0.2346;0.1653;0.3653;-0.3581
0003621228;4.5562;0.1437;-0.1796;0.1893;0.4040;-0.3752
0003621239;4.3144;-0.5507;0.1772;0.1797;0.4651;-0.3343
0003621247;4.2353;-0.8404;0.1508;0.1789;0.5180;-0.2916
0003621258;4.2713;-1.3288;0.0694;0.1286;0.5878;-0.2202
0003621266;4.1611;-1.7023;0.0479;0.0899;0.6270;-0.1712
0003621322;6.6224;-1.4605;1.7095;-0.5868;0.2911;-0.3022
0003621331;7.1036;-0.9242;1.7406;-0.6779;0.2209;-0.4001
0003621343;7.6950;0.0766;1.8220;-0.7663;0.0837;-0.5364
0003621352;7.8626;0.7015;1.9848;-0.8095;-0.0321;-0.5814
0003621361;7.4292;1.6185;1.9513;-0.8316;-0.1264;-0.5720
0003621373;6.6224;2.7773;2.2960;-0.8577;-0.2236;-0.5225
0003621382;6.0047;3.7781;2.8539;-0.8922;-0.2633;-0.4438
0003621394;5.1906;5.0518;3.5171;-0.9262;-0.2733;-0.3333
0003621403;5.2218;6.4787;3.9385;-0.9150;-0.2244;-0.2297
0003621415;5.1523;7.9200;4.2665;-0.8154;-0.1033;-0.0276
0003621424;4.7932;8.9495;4.5370;-0.7344;-0.0023;0.1458
0003621436;4.5203;10.1299;5.0566;-0.6270;0.0931;0.3391
0003621445;4.1851;10.4172;5.1260;-0.4942;0.1408;0.4173
0003621454;4.2952;10.9607;5.8395;-0.3360;0.1920;0.5028
0003621468;4.0055;11.7603;6.6128;-0.0826;0.3687;0.6149
0003621477;3.9887;13.4698;5.8490;0.0059;0.4125;0.6800
0003621489;5.6719;15.3684;3.9480;0.1236;0.0973;0.6559
0003621498;8.6742;16.1656;3.6703;0.1487;-0.2413;0.5256
0003621553;6.0454;4.3838;2.7102;2.2676;-1.4811;-0.3713
0003621562;5.4564;2.4852;2.4612;2.3367;-1.5479;-0.1246
0003621571;4.9775;0.7446;2.5618;2.2108;-1.5769;0.1262
0003621583;4.8794;-1.2905;2.3727;1.8672;-1.5832;0.4570
0003621592;5.2888;-2.1548;2.0279;1.5302;-1.5278;0.6880
0003621603;5.2577;-3.3734;1.2186;1.0813;-1.4607;0.8781
0003621612;5.0901;-3.8786;0.3735;0.7220;-1.3992;0.8776
0003621624;4.6974;-3.0263;-0.1772;0.1054;-1.3610;0.6182
0003621633;4.7836;-1.8028;-0.8691;-0.5261;-1.3006;0.3985
0003621644;4.8650;-0.9290;-1.0008;-1.2859;-1.2283;0.1069
0003621653;5.0494;-0.4525;-0.9936;-1.7385;-1.1546;-0.1051
0003621662;5.1284;-0.3735;-0.6776;-1.9232;-1.0726;-0.2490
0003621674;5.3941;-0.1748;0.0000;-1.7596;-1.0159;-0.2930
0003621683;5.5474;-0.0694;0.0096;-1.4322;-0.9791;-0.2518
0003621694;5.7700;0.0096;0.5914;-0.9734;-0.9180;-0.2090
0003621703;5.8275;0.0862;1.0391;-0.6828;-0.8468;-0.1420
0003621715;5.6336;0.3208;1.5131;-0.5840;-0.7947;-0.0168
0003621724;5.7940;0.7997;1.6065;-0.7105;-0.7502;0.0806
0003621735;5.9256;0.8763;1.4796;-0.9771;-0.6771;0.1392
0003621744;6.0501;1.1875;1.0487;-1.1153;-0.6247;0.1334
0003621753;6.2034;1.4198;0.7326;-1.1354;-0.5802;0.1195
0003621765;6.4643;1.6759;0.3807;-0.9406;-0.5189;0.0838
0003621774;6.4452;1.5754;0.4214;-0.6472;-0.4803;0.0605
0003621829;6.4667;-0.7135;1.4341;0.2575;-0.4622;0.2040
0003621838;6.2537;-0.9242;1.4198;0.1021;-0.4503;0.2497
0003621850;6.5625;-0.9601;1.2402;-0.0802;-0.4614;0.2794
0003621859;7.0342;-0.8667;1.1588;-0.2136;-0.4818;0.2813
0003621870;7.5202;-0.7829;1.0606;-0.3356;-0.5161;0.2489
0003621879;8.2193;-0.4669;0.8499;-0.4118;-0.5749;0.2134
0003621888;8.4779;-0.1724;0.9098;-0.4734;-0.6246;0.2001
0003621900;9.3278;0.3448;1.2713;-0.5409;-0.6917;0.2272
0003621909;9.6558;0.6416;1.5490;-0.5565;-0.7241;0.2779
0003621920;9.7875;1.1253;1.8268;-0.5622;-0.7357;0.3656
0003621929;9.3877;1.5419;1.9968;-0.5982;-0.7242;0.4219
0003621941;8.2313;2.0279;2.0375;-0.6611;-0.7290;0.4506
0003621950;7.7117;2.4756;2.0039;-0.6900;-0.7233;0.4410
0003621961;7.2544;2.7773;1.9561;-0.6475;-0.6772;0.4341
0003621970;6.6679;2.8419;1.9513;-0.5481;-0.6205;0.4291
0003621979;6.4835;2.9616;2.0901;-0.3972;-0.5417;0.4442
0003621991;6.3877;3.1651;2.1356;-0.2062;-0.4375;0.4716
0003622000;6.3135;3.1316;2.1069;-0.0839;-0.3424;0.4775
0003622011;6.5745;3.1556;2.0614;-0.0045;-0.2491;0.4426
0003622020;6.6391;3.3710;2.0087;-0.0505;-0.1970;0.3886
0003622032;7.2975;3.9959;1.9656;-0.1402;-0.1753;0.3136
0003622041;7.5992;4.3910;1.7980;-0.1889;-0.2245;0.2638
0003622050;8.5593;5.1858;1.6448;-0.2100;-0.2974;0.2077
0003622104;14.6549;11.2839;3.7014;-0.0087;-0.6584;-0.3380
0003622113;15.1649;11.6813;4.1922;0.1879;-0.6899;-0.3792
0003622125;15.5791;11.2480;4.6256;0.5845;-0.7270;-0.4357
0003622134;14.8656;9.9742;5.1212;0.9433;-0.7550;-0.4365
0003622145;13.7116;7.9847;6.9216;1.2157;-0.8984;-0.4159
0003622154;13.4674;5.9448;6.2728;1.4123;-0.9513;-0.4094
0003622166;12.2631;3.6272;2.2936;1.7638;-0.9614;-0.7926
0003622175;8.7029;4.3167;0.1652;1.5783;-0.9260;-0.8136
0003622184;5.1595;5.3032;-0.3855;0.9081;-0.9667;-0.7056
0003622195;1.5323;5.3439;0.1101;0.0093;-0.8304;-0.3788
0003622204;0.6704;4.4125;1.2186;-0.2192;-0.8042;-0.0657
0003622216;3.8858;2.6217;3.1747;0.3561;-0.5780;-0.1537
0003622225;5.6838;2.1404;4.5418;0.9346;-0.4187;-0.3637
0003622236;5.6982;1.0151;3.5099;1.2950;-0.2693;-0.5692
0003622245;5.4324;-0.2873;2.0734;1.4111;-0.1499;-0.7057
0003622257;5.2050;-1.8028;1.2857;1.4168;-0.0570;-0.8639
0003622266;5.4061;-2.0231;1.6520;1.2965;-0.0148;-0.8962
0003622275;5.7341;-1.9345;1.3024;1.0100;-0.0562;-0.7322
0003622286;5.0733;-1.4653;0.2753;0.4708;-0.1001;-0.4374
0003622295;4.1563;-1.1229;-0.2945;-0.1123;-0.0625;-0.2309
0003622307;2.9592;-0.2155;0.1604;-0.9583;0.0858;-0.0987
0003622316;2.8898;0.7374;0.7877;-1.4910;0.1291;-0.0554
0003622372;5.1451;3.3998;2.9999;-0.1296;0.2553;-0.4884
0003622381;5.8227;3.1723;2.7007;0.0622;0.2285;-0.4531
0003622393;6.6535;2.5594;2.2410;0.2089;0.1632;-0.3760
0003622402;7.2736;1.9632;2.0853;0.2950;0.0946;-0.3192
0003622411;7.6088;1.4748;1.7478;0.3728;0.0049;-0.2673
0003622422;8.1475;1.1756;1.4485;0.4299;-0.1023;-0.2338
0003622431;8.1211;0.7111;1.1756;0.4764;-0.1936;-0.2241
0003622443;8.2001;0.4286;0.8116;0.5267;-0.3138;-0.2429
0003622452;7.9080;0.1030;0.6608;0.5333;-0.3792;-0.2518
0003622463;7.4747;-0.2801;0.5243;0.5081;-0.4619;-0.2641
0003622472;7.2760;-0.4573;0.5004;0.4395;-0.5002;-0.2481
0003622484;6.7516;-0.4429;0.3663;0.3227;-0.5317;-0.2201
0003622493;6.4117;-0.2586;0.3256;0.2170;-0.5316;-0.1740
0003622502;6.1579;-0.0072;0.4764;0.1179;-0.5233;-0.1343
0003622513;5.7317;0.2442;0.6895;0.0180;-0.4936;-0.0773
0003622522;5.6024;0.6847;0.7207;-0.0252;-0.4852;-0.0506
0003622534;5.6120;1.2737;0.5770;-0.0404;-0.4562;-0.0286
0003622543;5.7078;1.5586;0.5411;-0.0020;-0.4337;-0.0044
0003622554;5.6360;1.6520;0.4836;0.1037;-0.4104;0.0153
0003622563;5.6455;1.7190;0.4621;0.2164;-0.4030;0.0148
0003622572;5.3463;1.4844;0.5267;0.3269;-0.3825;0.0127
0003622584;4.9321;1.3455;0.7015;0.4359;-0.3148;-0.0036
0003622593;4.5586;1.1516;0.9170;0.4611;-0.2505;-0.0095
0003622649;5.1858;1.3168;0.8068;0.2088;-0.0365;-0.0637
0003622658;5.3870;1.3455;0.7781;0.2010;-0.0298;-0.0707
0003622670;5.5952;1.6065;0.9577;0.2113;-0.0229;-0.0853
0003622679;5.6264;1.6640;1.1732;0.2188;-0.0230;-0.0834
0003622690;5.6934;1.8316;1.1396;0.1927;-0.0229;-0.0743
0003622699;5.3870;1.8435;1.2258;0.1703;-0.0254;-0.0718
0003622708;5.5689;2.2697;1.1899;0.1535;-0.0207;-0.0572
0003622720;5.3032;2.1715;1.4317;0.1648;-0.0147;-0.0201
0003622729;5.1954;2.2098;1.3791;0.1845;-0.0151;0.0103
0003622740;5.1811;2.2362;1.5706;0.1804;-0.0004;0.0545
0003622749;5.1164;2.3200;1.5897;0.1783;-0.0011;0.0813
0003622761;5.3798;2.5235;1.6041;0.1747;-0.0108;0.1200
0003622770;5.5857;2.4541;1.7478;0.1827;-0.0232;0.1522
0003622779;5.7054;2.2913;1.8507;0.1928;-0.0344;0.1663
0003622790;5.7940;2.4948;1.8890;0.2008;-0.0492;0.1881
0003622799;5.9113;2.5690;2.0566;0.2238;-0.0624;0.2049
0003622811;6.0813;2.4325;2.2841;0.2711;-0.0671;0.2316
0003622820;5.9975;2.4732;2.3415;0.3040;-0.0761;0.2451
0003622831;5.6910;2.3128;2.3583;0.3071;-0.0632;0.2518
0003622840;5.7509;2.5570;2.3032;0.3003;-0.0504;0.2563
0003622849;5.4348;2.6384;2.3990;0.2932;-0.0274;0.2743
0003622862;5.0278;2.5379;2.4660;0.3024;0.0261;0.2875
0003622871;4.8147;2.8850;2.6719;0.2762;0.0786;0.2934
0003622926;5.4779;2.9784;2.5139;0.0903;0.1166;0.1498
0003622934;6.0142;2.9185;2.5929;0.0633;0.0701;0.1609
0003622944;6.7062;2.5235;2.7246;0.0673;0.0258;0.2120
0003622952;6.7612;1.9537;3.1627;0.0822;0.0290;0.2571
0003622960;6.5745;1.7190;3.6895;0.0746;0.0621;0.2623
0003622971;5.8155;1.5467;3.8307;-0.1123;0.1263;0.1613
0003622979;5.6575;1.9130;2.6959;-0.3687;0.0558;0.0008
0003622989;6.5050;3.4093;1.0391;-0.8462;-0.2028;-0.3098
0003622997;7.6447;4.9201;-0.5411;-1.2722;-0.4048;-0.5918
