time;acc_x;acc_y;acc_z;gyro_x;gyro_y;gyro_z
0003975991;5.5043;0.6704;-0.6033;-0.3597;-3.4953;1.2001
0003976000;5.5282;1.2402;-0.5938;-0.4149;-3.4095;1.1237
0003976008;5.6216;1.7358;-0.4884;-0.4181;-3.3338;1.0339
0003976016;5.5402;2.0806;-0.2897;-0.4234;-3.2531;0.9534
0003976025;5.4253;2.3343;-0.2011;-0.4265;-3.1682;0.8528
0003976033;5.1691;2.4780;-0.0694;-0.4355;-3.0491;0.7782
0003976044;4.5179;2.3248;-0.0024;-0.4097;-2.9178;0.6965
0003976052;4.2569;2.1261;0.0862;-0.3709;-2.7879;0.6615
0003976060;3.8523;1.7573;0.0551;-0.3094;-2.6758;0.6330
0003976071;3.6775;1.2498;0.1245;-0.1984;-2.5075;0.6091
0003976079;3.8666;1.0127;-0.0311;-0.1403;-2.3836;0.5894
0003976090;4.1946;0.6584;-0.2131;-0.0907;-2.2553;0.5549
0003976098;4.1515;0.3256;-0.4645;-0.0841;-2.1437;0.5474
0003976109;4.6064;0.1006;-0.6153;-0.1363;-2.0274;0.5404
0003976117;4.8267;-0.2562;-0.8930;-0.1917;-1.9460;0.5513
0003976128;5.1643;-0.4884;-1.1301;-0.2880;-1.8864;0.5448
0003976136;5.4181;-0.5363;-0.6225;-0.3825;-1.8059;0.5399
0003976144;5.3582;-0.8499;-0.6608;-0.4550;-1.7528;0.5442
0003976193;6.7804;-1.5323;0.0622;-0.7753;-1.6000;0.5140
0003976201;7.2496;-1.3743;0.2418;-0.8328;-1.5965;0.4951
0003976212;7.4795;-1.0942;0.2610;-0.9469;-1.6070;0.4411
0003976220;7.8195;-0.7326;0.3017;-1.0637;-1.6065;0.3753
0003976231;7.9368;0.1389;0.6369;-1.2422;-1.6385;0.2458
0003976239;7.8578;1.2570;1.0750;-1.3921;-1.6794;0.1110
0003976250;7.8003;2.9640;1.5802;-1.6403;-1.7275;-0.0794
0003976258;7.5010;4.6328;1.9920;-1.8283;-1.7790;-0.2126
0003976266;7.0413;6.5074;2.3439;-2.0082;-1.8342;-0.3124
0003976277;5.9352;9.4164;2.7677;-2.2179;-1.8886;-0.4537
0003976285;5.3654;11.8657;3.1795;-2.3149;-1.8886;-0.5065
0003976296;5.2002;15.8688;3.9840;-2.3381;-1.8896;-0.4572
0003976304;4.8890;18.4354;4.8961;-2.1485;-1.8182;-0.3307
0003976315;5.3534;21.5742;6.8929;-1.6641;-1.6505;-0.1756
0003976323;5.5665;22.2541;8.2193;-1.0245;-1.5688;-0.1274
0003976334;6.4189;22.0051;9.8976;0.1408;-1.4397;-0.2639
0003976342;7.0246;20.7505;9.3230;1.1145;-1.3292;-0.4335
0003976350;6.4236;18.9740;6.7516;1.9954;-1.1926;-0.6119
0003976361;4.1899;15.2032;2.8132;2.8200;-0.9352;-0.7202
0003976369;2.8587;12.1482;0.5746;3.1369;-0.7135;-0.7202
0003976380;1.3815;8.0948;-1.4844;3.3159;-0.4457;-0.7148
0003976388;1.0247;5.5809;-2.2649;3.2391;-0.2530;-0.6532
0003976438;9.0261;-1.8268;-3.0215;1.3295;-0.9419;-0.1459
0003976446;9.9766;-2.3080;-4.0390;1.5363;-1.1274;-0.2421
0003976457;11.0468;-2.4708;-5.3343;1.8676;-1.2842;-0.4759
0003976465;11.4970;-2.2936;-6.1172;1.9744;-1.3045;-0.6967
0003976476;10.9176;-2.0207;-6.8450;1.7078;-1.3872;-0.9181
0003976484;8.3103;-1.6759;-7.0461;1.1774;-1.7393;-0.8917
0003976492;6.2273;-1.1277;-6.3183;0.3276;-2.0432;-0.6969
0003976503;4.6591;-0.8380;-4.0247;-0.7044;-2.1817;-0.2641
0003976511;4.4388;-0.5100;-2.8419;-1.0764;-2.2318;0.0695
0003976522;4.4341;0.0239;-2.2458;-1.2027;-2.2667;0.4643
0003976530;5.0589;0.1915;-2.1452;-1.0796;-2.2611;0.5654
0003976541;5.7892;0.2825;-2.1428;-0.7576;-2.2364;0.4566
0003976549;5.9113;0.2562;-1.9632;-0.5221;-2.1871;0.3024
0003976560;5.6743;0.1125;-1.8387;-0.2587;-2.0927;0.0943
0003976568;5.2960;0.1053;-1.8435;-0.1466;-1.9921;-0.0027
0003976576;4.7429;-0.1460;-1.7334;-0.1099;-1.8714;-0.0850
0003976587;3.9073;-0.2203;-1.5275;-0.1536;-1.6679;-0.1693
0003976595;3.2298;-0.3711;-1.5155;-0.2217;-1.5206;-0.2124
0003976606;2.4373;-0.2658;-1.7741;-0.3174;-1.3314;-0.2675
0003976614;1.8627;-0.2729;-1.8627;-0.3677;-1.1832;-0.2730
0003976625;1.3623;-0.4764;-2.0758;-0.3644;-1.0431;-0.2649
0003976633;1.4629;-0.3998;-2.1332;-0.3180;-0.9483;-0.2354
0003976687;4.5538;-1.7166;-1.8818;-0.0538;-0.4120;-0.0699
0003976695;5.1380;-1.8794;-1.9800;-0.0644;-0.3981;-0.0826
0003976706;5.4181;-2.4229;-1.9704;-0.0874;-0.3916;-0.0947
0003976714;5.4684;-2.4948;-1.9752;-0.1525;-0.3993;-0.1111
0003976725;5.3558;-2.5043;-2.3415;-0.2738;-0.4739;-0.1104
0003976733;5.2601;-2.5450;-2.2601;-0.3780;-0.4986;-0.0742
0003976741;4.8411;-2.4253;-2.1261;-0.4908;-0.5161;-0.0488
0003976752;4.5107;-2.0973;-1.9561;-0.6797;-0.5438;-0.0075
0003976760;3.9648;-1.9393;-1.7765;-0.8585;-0.5574;0.0289
0003976771;3.9433;-1.3695;-1.5203;-1.1270;-0.5678;0.0959
0003976779;4.0630;-0.8499;-1.1684;-1.2913;-0.5677;0.1472
0003976790;4.1970;-0.5578;-0.7063;-1.4013;-0.5408;0.1897
0003976798;4.1084;0.0144;-0.7302;-1.4544;-0.5492;0.2094
0003976809;4.6088;0.6153;-0.4980;-1.4506;-0.5276;0.1749
0003976817;5.0613;0.8116;-0.2203;-1.4111;-0.5212;0.1303
0003976828;5.3032;1.0175;-0.1484;-1.2469;-0.5180;0.0402
0003976836;5.3127;1.0104;-0.1341;-1.0886;-0.4927;-0.0372
0003976844;4.8698;0.8499;-0.0886;-0.9057;-0.4806;-0.1226
0003976855;4.0223;1.2402;-0.3831;-0.7302;-0.4214;-0.2025
0003976863;3.3806;1.2833;-0.7566;-0.7072;-0.3773;-0.2210
0003976874;2.4421;2.2027;-1.2043;-0.8435;-0.3094;-0.1314
0003976882;1.7741;2.6312;-1.0870;-1.0417;-0.2491;-0.0222
0003976935;6.4236;11.0947;1.5586;-2.6089;-0.4129;0.8166
0003976943;7.3167;13.4099;1.6041;-2.4046;-0.3000;0.7316
0003976954;7.5609;17.7554;3.3543;-1.9529;-0.2260;0.4238
0003976962;6.7253;19.8336;5.5043;-1.5797;-0.1761;0.1018
0003976970;4.9895;21.5047;7.5058;-1.0958;-0.0601;-0.1396
0003976981;1.6400;22.0769;9.2703;-0.1356;0.2020;-0.2955
0003976989;-0.2682;21.8806;9.5816;0.7713;0.2533;-0.2964
0003977000;-0.6464;21.7441;6.8690;2.0006;0.1877;-0.3377
0003977008;2.1739;19.1536;4.0534;2.6352;0.1885;-0.4766
0003977019;5.0302;14.4203;3.1268;3.1113;0.2397;-0.7128
0003977027;5.7030;11.0923;3.0550;3.0867;0.2565;-0.8970
0003977038;5.0039;7.4460;2.2697;2.7988;0.2935;-1.0734
0003977046;3.6248;5.5067;1.3336;2.5683;0.3156;-1.0328
0003977054;2.5522;4.3527;0.2993;2.3550;0.3484;-0.8545
0003977065;1.6113;2.8730;-0.8595;2.1242;0.5008;-0.4534
0003977073;1.2378;2.1356;-1.5131;1.9760;0.5998;-0.1053
0003977084;1.0367;0.6105;-1.9632;1.8261;0.6704;0.3569
0003977092;2.3870;-0.1915;-2.2386;1.7499;0.7011;0.6765
0003977103;4.1683;-1.0032;-2.6863;1.7753;0.7438;0.9886
0003977111;5.0542;-1.6616;-3.5626;1.8983;0.7441;1.0479
0003977122;5.9304;-2.0638;-5.2146;2.1000;0.7734;0.9462
0003977130;6.0358;-2.3870;-5.5306;2.1615;0.8123;0.7537
0003977138;6.0717;-2.1572;-5.5905;2.0418;0.7966;0.5181
0003977192;8.2720;-3.4189;-2.2673;-0.5221;0.0966;0.0189
0003977200;8.3917;-3.5027;-2.0925;-0.6452;0.0608;0.1660
0003977211;8.3749;-3.3782;-1.8986;-0.7645;0.0032;0.3612
0003977219;8.5880;-3.0382;-1.7454;-0.8388;-0.0374;0.4616
0003977230;8.3462;-2.3224;-1.8747;-0.9414;-0.0845;0.5444
0003977238;8.0254;-1.7286;-2.0303;-1.0114;-0.1025;0.5433
0003977249;7.2113;-0.6895;-2.1715;-1.0341;-0.1315;0.4800
0003977257;6.4715;-0.3160;-2.0686;-0.9812;-0.1280;0.4022
0003977265;6.2896;0.2466;-1.6352;-0.8621;-0.1066;0.2955
0003977276;5.8347;0.1532;-0.8452;-0.6175;-0.0436;0.1533
0003977284;5.5976;-0.0431;-0.2179;-0.3998;0.0252;0.0658
0003977295;5.3271;-0.4070;0.2610;-0.0766;0.1312;-0.0152
0003977303;5.0087;-0.8595;0.1772;0.1571;0.2012;-0.0358
0003977314;5.0733;-1.2330;-0.0072;0.4274;0.3035;-0.0132
0003977322;5.0446;-1.6592;-0.2274;0.5709;0.3520;0.0145
0003977333;5.5474;-1.9704;-0.3783;0.6519;0.3980;0.0671
0003977341;6.2896;-2.1548;-0.4214;0.6412;0.4057;0.1049
0003977349;6.7109;-2.2936;-0.3567;0.5797;0.3972;0.1356
0003977360;7.4124;-2.2242;-0.4262;0.4092;0.3581;0.1689
0003977368;8.0278;-2.0207;-0.4118;0.2726;0.2994;0.1645
0003977379;8.2815;-1.8244;-0.3639;0.0486;0.2344;0.1504
0003977387;8.6503;-1.4653;-0.2298;-0.1223;0.1745;0.1370
0003977441;6.7684;1.7837;0.4549;-0.8812;-0.0955;0.2694
0003977449;6.2513;1.7573;1.1995;-0.8934;-0.1094;0.2701
0003977457;5.7916;1.7957;1.6089;-0.9108;-0.1142;0.2527
0003977468;5.5833;1.7549;2.0039;-0.9154;-0.1131;0.1876
0003977476;5.7437;2.1117;2.2505;-0.9358;-0.1023;0.1132
0003977487;6.3422;3.0382;2.2434;-1.0088;-0.1077;-0.0041
0003977495;6.4236;3.7493;2.2601;-1.0888;-0.1304;-0.1132
0003977506;6.5601;4.9249;2.0830;-1.1767;-0.1783;-0.3140
0003977514;6.6104;6.1723;2.0183;-1.2232;-0.2005;-0.4699
0003977525;6.7157;8.1475;1.8986;-1.2808;-0.2517;-0.7067
0003977533;6.6367;9.9671;1.6855;-1.3207;-0.2638;-0.8625
0003977541;6.5481;12.1051;1.4772;-1.3527;-0.2611;-0.9830
0003977552;6.6032;15.8903;1.0630;-1.4190;-0.2766;-1.0609
0003977560;6.6367;18.7370;0.3831;-1.4173;-0.3679;-1.0397
0003977571;7.0413;22.2445;0.3855;-1.2525;-0.3689;-0.8805
0003977579;7.0509;23.5661;0.4669;-0.9554;-0.2852;-0.6829
0003977590;6.0789;23.3674;1.0630;-0.3235;-0.0318;-0.4406
0003977598;5.0542;22.2541;1.3719;0.1392;0.1825;-0.3359
0003977609;4.8698;19.0100;0.8571;0.7330;0.3581;-0.1813
0003977617;5.5210;16.1106;0.6871;1.0170;0.3250;-0.0855
0003977625;6.5290;13.6182;0.3496;1.1814;0.1989;-0.0425
0003977636;8.4851;10.9630;0.1604;1.2758;-0.0181;-0.0270
0003977644;9.5074;8.9783;-0.1652;1.3454;-0.2502;-0.0544
0003977698;9.9742;-1.6400;-0.9433;2.3317;-1.5103;-0.7389
0003977706;8.8202;-2.7605;-1.5395;2.3631;-1.6060;-0.7958
0003977717;7.2018;-3.9648;-3.2848;2.3911;-1.6094;-0.7763
0003977725;6.0501;-4.7022;-4.6232;2.3822;-1.5424;-0.6728
0003977736;4.8076;-5.1236;-5.9951;2.1883;-1.3638;-0.4073
0003977744;4.3215;-4.7812;-5.4708;1.8515;-1.3935;-0.1908
0003977755;3.6009;-4.6352;-4.2114;1.0523;-1.6541;0.0711
0003977763;3.2226;-4.5107;-2.9377;0.3973;-1.8290;0.2016
0003977771;3.0167;-4.4341;-2.0255;-0.1623;-1.8922;0.2737
0003977782;3.0071;-3.8786;-1.2761;-0.7061;-1.8739;0.3544
0003977790;3.1244;-3.4548;-1.5083;-0.8948;-1.7433;0.3457
0003977801;2.9449;-2.8659;-1.8938;-0.9655;-1.5641;0.2096
0003977809;2.4995;-2.4756;-1.9154;-0.9383;-1.4309;0.0632
0003977820;2.4493;-1.8244;-1.8004;-0.8395;-1.2514;-0.1144
0003977828;2.3870;-1.3599;-1.4940;-0.7622;-1.1206;-0.2360
0003977839;2.1141;-1.1492;-1.2115;-0.6753;-0.9550;-0.3790
0003977847;2.0159;-0.7757;-1.0989;-0.6254;-0.8075;-0.4183
0003977858;1.9106;-0.6321;-1.0080;-0.5248;-0.6121;-0.4066
0003977866;1.8507;-0.6129;-1.1277;-0.4361;-0.5235;-0.3552
0003977874;2.0470;-0.4214;-1.1109;-0.3627;-0.4387;-0.2836
0003977885;2.2170;-0.5602;-1.1756;-0.2471;-0.3440;-0.1944
0003977893;2.7845;-0.7039;-1.1971;-0.1564;-0.2862;-0.1363
0003977947;4.6184;-3.0454;-1.5610;0.4791;-0.1195;-0.1483
0003977955;4.5179;-3.2417;-1.5395;0.3786;-0.1439;-0.1262
0003977966;4.6567;-3.1771;-1.4174;0.1617;-0.1708;-0.0642
0003977974;4.5203;-3.2130;-1.2953;-0.0325;-0.1803;0.0065
0003977985;4.6926;-2.9497;-1.0894;-0.2830;-0.1927;0.1054
0003977993;4.3862;-2.7581;-1.1109;-0.4373;-0.1969;0.1087
0003978004;4.1611;-2.2721;-0.9744;-0.6101;-0.1655;0.1518
0003978012;3.7086;-1.7310;-1.0534;-0.6897;-0.1214;0.1669
0003978020;3.6871;-1.5850;-0.8835;-0.7449;-0.0983;0.1936
0003978031;3.2298;-0.8380;-0.7350;-0.7802;-0.0609;0.1829
0003978039;2.8946;-0.5267;-1.0080;-0.8603;-0.0424;0.1693
0003978050;3.0670;0.0982;-0.4357;-0.9543;-0.0674;0.1423
0003978058;3.3399;0.7350;0.1125;-1.0367;-0.0813;0.1352
0003978069;3.7206;1.5395;0.2825;-1.1458;-0.1262;0.1576
0003978077;4.3766;2.1763;0.1915;-1.1910;-0.1519;0.1717
0003978088;4.3838;2.8228;0.0982;-1.2047;-0.1811;0.2070
0003978096;4.5825;3.7014;-0.0048;-1.1438;-0.2005;0.2149
0003978104;4.2329;4.3024;0.0766;-1.0547;-0.1917;0.2228
0003978115;3.8858;5.2984;0.2729;-0.9481;-0.1760;0.1876
0003978123;3.4357;6.1196;0.5339;-0.8960;-0.1523;0.1500
0003978134;3.2202;7.5393;0.9481;-0.8603;-0.0866;0.0942
0003978142;2.9090;8.6718;1.1157;-0.8423;-0.0215;0.0513
0003978196;-0.4190;18.3252;3.9385;-0.2470;0.6355;-0.1182
0003978204;-1.0606;18.3779;4.3790;0.1351;0.7759;-0.1018
0003978215;-2.2458;18.0834;3.1819;0.9449;0.8529;-0.0493
0003978223;-1.3240;17.7841;0.9625;1.5989;0.7549;0.0248
0003978231;1.3743;16.5032;-0.4405;2.0420;0.6480;0.1172
0003978242;4.8339;13.8217;-1.3719;2.1714;0.5023;0.1243
0003978250;6.0693;11.7986;-2.3894;2.1348;0.4121;0.0417
0003978261;5.3151;8.4755;-3.2082;2.0897;0.3873;-0.1948
0003978269;3.7804;6.1986;-3.3184;2.0414;0.3937;-0.3114
0003978280;2.2936;3.4477;-2.8874;1.8664;0.4914;-0.2932
0003978288;1.9178;1.8675;-2.4397;1.6559;0.6047;-0.1689
0003978296;1.9800;0.6057;-2.2673;1.4325;0.7530;0.0017
0003978307;2.7078;-1.2881;-2.3703;1.2043;0.9623;0.2541
0003978315;3.2250;-2.2817;-2.6480;1.1591;1.0782;0.3789
0003978326;3.6703;-3.3710;-3.2441;1.2526;1.1241;0.4465
0003978334;3.5698;-4.1539;-3.2968;1.3205;1.0821;0.4584
0003978345;4.2042;-4.2737;-3.4165;1.2975;1.0104;0.4259
0003978353;4.9608;-4.1827;-3.1915;1.1286;0.9610;0.3664
0003978364;6.0717;-3.4884;-3.2298;0.6442;0.8777;0.2172
0003978372;6.9097;-3.0047;-3.0502;0.1817;0.7617;0.0686
0003978380;7.5800;-2.6360;-2.9090;-0.2890;0.6446;-0.0294
0003978391;8.2384;-1.9513;-2.5546;-0.8470;0.5770;0.0152
0003978399;8.3366;-1.7166;-2.1955;-1.0904;0.5877;0.1118
0003978453;6.6631;-0.9673;-1.7573;-0.6023;0.4960;0.4826
0003978461;6.8163;-0.6584;-2.0207;-0.6163;0.4868;0.4690
0003978472;6.5434;-0.5363;-2.2051;-0.5796;0.4626;0.4124
0003978480;6.7325;-0.3903;-2.2529;-0.5104;0.4470;0.3563
0003978491;7.0749;-0.1173;-2.0231;-0.3587;0.3988;0.2671
0003978499;7.2113;-0.2011;-1.8675;-0.2446;0.3613;0.2194
0003978507;7.1778;-0.4860;-1.7262;-0.1358;0.3340;0.1604
0003978518;7.4436;-0.6033;-1.4940;-0.0005;0.2924;0.0913
0003978526;7.5010;-0.6895;-1.2354;0.0859;0.2514;0.0564
0003978537;7.4939;-0.7278;-1.0056;0.1295;0.1799;0.0605
0003978545;7.7883;-0.4238;-1.0511;0.1204;0.1152;0.0857
0003978556;7.9942;-0.3831;-0.9673;0.0739;0.0238;0.1720
0003978564;8.1427;0.0790;-1.1947;0.0517;-0.0697;0.2289
0003978575;8.2432;0.5722;-1.3431;0.0119;-0.2021;0.3162
0003978583;8.5329;1.0056;-1.4437;-0.0037;-0.2960;0.3702
0003978591;8.7125;1.3288;-1.5730;0.0013;-0.4061;0.3902
0003978602;8.7029;1.6975;-1.6807;0.0512;-0.5413;0.3948
0003978610;9.0333;2.0566;-1.5371;0.1118;-0.6354;0.3806
0003978621;9.1698;2.2218;-1.4246;0.1821;-0.7318;0.3701
0003978629;8.8514;2.2266;-1.2905;0.2084;-0.7750;0.3712
0003978640;8.7867;2.2553;-0.8523;0.2216;-0.8262;0.3933
0003978648;7.9607;2.3200;-0.7350;0.1801;-0.8439;0.3980
0003978656;7.0246;2.4995;-0.4860;0.0977;-0.8719;0.3866
0003978710;4.1180;7.2712;-0.5914;-0.2960;-0.5934;0.1763
0003978718;4.9273;8.2456;-0.3041;-0.2457;-0.5449;0.1502
0003978729;5.9831;9.5050;-0.4741;-0.1352;-0.5668;0.0452
0003978737;6.3782;10.6470;-0.5483;-0.0386;-0.6021;-0.0769
0003978748;6.4715;11.7436;-0.9098;0.0758;-0.6356;-0.2878
0003978756;6.5003;12.5576;-1.1061;0.1753;-0.6726;-0.4366
0003978767;6.2920;12.7515;-1.2378;0.3672;-0.7228;-0.5536
0003978775;6.4691;12.6893;-0.8523;0.4943;-0.7746;-0.5412
0003978786;7.6686;12.3469;-0.4429;0.6178;-0.8784;-0.4203
0003978794;8.1618;11.7867;-0.2897;0.6672;-0.9915;-0.3395
0003978802;8.9352;10.8098;-0.1197;0.7028;-1.1556;-0.2931
0003978813;10.0461;8.8155;-0.2682;0.8033;-1.3257;-0.2487
0003978821;10.2208;7.6255;-1.1995;0.9573;-1.3845;-0.2036
0003978832;9.4475;5.9089;-3.2034;1.1695;-1.2752;-0.2132
0003978840;7.6734;4.0606;-3.7254;1.2023;-1.3476;-0.3579
0003978851;5.5282;1.5969;-3.6631;1.0313;-1.3642;-0.4915
0003978859;4.3910;0.2011;-2.9928;0.8199;-1.3816;-0.5281
0003978870;3.7876;-1.2019;-1.6065;0.4843;-1.3799;-0.5325
0003978878;3.5721;-2.4038;-1.4916;0.3368;-1.4177;-0.5614
0003978886;3.8786;-3.0023;-2.5187;0.3495;-1.5475;-0.5780
0003978897;6.2537;-3.0143;-4.2377;0.4887;-1.6603;-0.3990
0003978905;8.1642;-2.4588;-5.4300;0.4840;-1.7048;-0.2209
0003978955;2.8060;1.9776;-3.5123;-1.7685;-1.8443;0.3060
0003978963;1.4820;2.3224;-3.2394;-1.8147;-1.5965;0.4138
0003978974;0.3352;2.4876;-2.6863;-1.6298;-1.2854;0.4764
0003978982;-0.2274;2.4373;-2.2146;-1.3973;-1.0960;0.4334
0003978993;-0.4118;1.9201;-1.3575;-1.0345;-0.8720;0.2691
0003979001;-0.0527;1.8890;-1.1253;-0.8322;-0.7409;0.0902
0003979012;0.4932;1.7549;-0.8380;-0.6933;-0.5296;-0.1432
0003979020;1.0199;1.7023;-0.8523;-0.6632;-0.3828;-0.2573
0003979028;1.8387;1.9776;-1.0534;-0.6739;-0.2585;-0.3128
0003979039;2.9137;2.0734;-1.4006;-0.6663;-0.1471;-0.2975
0003979047;3.5530;2.0399;-1.8028;-0.6372;-0.1204;-0.2614
0003979058;4.3598;2.3870;-1.9680;-0.5718;-0.0791;-0.2198
0003979066;4.6950;2.1979;-1.9848;-0.5105;-0.0532;-0.1978
0003979077;4.9728;1.9130;-1.8531;-0.3877;-0.0230;-0.1789
0003979085;4.8195;1.4246;-1.6712;-0.2902;-0.0172;-0.1420
0003979096;4.6136;0.8523;-1.4940;-0.1440;0.0144;-0.0833
0003979104;4.2377;0.3017;-1.3120;-0.0414;0.0059;-0.0140
0003979112;4.1444;-0.0982;-1.3886;0.0671;0.0123;0.0629
0003979123;3.9217;-0.7614;-1.2594;0.2086;0.0546;0.1174
0003979131;3.8595;-1.0965;-1.2594;0.2899;0.0943;0.1148
0003979142;3.7158;-1.4269;-1.1396;0.3575;0.1885;0.0965
0003979150;3.5602;-1.7765;-1.1061;0.3668;0.2569;0.0747
0003979200;3.8283;-1.5131;-1.2689;-0.1006;0.4405;0.0418
0003979208;4.0534;-1.4341;-1.2546;-0.1843;0.4469;0.0449
0003979219;4.2258;-1.3455;-1.0391;-0.2703;0.4173;0.0274
0003979227;4.5945;-1.1253;-0.8356;-0.3234;0.3758;0.0163
0003979235;4.6160;-1.2881;-0.8284;-0.3532;0.3435;-0.0068
0003979246;4.9009;-1.0223;-0.9744;-0.3797;0.2951;-0.0498
0003979254;4.8195;-1.0774;-0.9601;-0.3623;0.2629;-0.0986
0003979265;4.5969;-1.0295;-0.7087;-0.4040;0.2225;-0.1331
0003979273;4.6687;-0.2705;-0.7326;-0.5355;0.2002;-0.1031
0003979284;4.1444;0.4357;-0.7973;-0.7930;0.1929;-0.0799
0003979292;4.0749;1.1756;-0.7207;-1.0124;0.1969;-0.0594
0003979303;3.7086;2.9257;-0.6105;-1.3275;0.2061;-0.0304
0003979311;3.5769;4.5873;-0.5004;-1.5724;0.2521;0.0105
0003979319;3.2154;6.0094;-0.4956;-1.7636;0.3168;0.0513
0003979330;3.0478;8.9088;-0.1437;-1.9105;0.4373;0.1124
0003979338;2.5259;10.6279;0.3591;-1.9356;0.5269;0.1478
0003979349;2.0255;14.0995;1.5610;-1.7744;0.6350;0.1580
0003979357;1.7621;15.7395;2.5738;-1.5064;0.6744;0.1210
0003979368;1.6831;17.7075;4.5681;-0.8859;0.7528;0.0011
0003979376;1.7214;18.0738;5.7964;-0.2810;0.7945;-0.1021
0003979387;2.0423;17.2191;6.3662;0.6805;0.8592;-0.2146
0003979395;1.9800;15.1744;5.5833;1.4353;0.9555;-0.2758
0003979403;1.5179;12.1625;3.6799;2.1047;1.0408;-0.3016
0003979453;9.9288;3.6368;-3.6488;1.6689;0.4683;-0.2314
0003979461;9.0094;1.8531;-2.8922;1.2367;0.3365;-0.1380
0003979472;7.6734;0.0958;-2.1476;0.8207;0.2254;0.1370
0003979480;6.5817;-1.0127;-2.1835;0.6499;0.1689;0.3537
0003979491;5.2050;-1.4916;-2.6169;0.5071;0.0859;0.6302
0003979499;4.9009;-1.1516;-3.1747;0.3673;0.0274;0.7931
0003979507;4.9297;-0.3615;-3.7158;0.1355;-0.0436;0.8756
0003979518;6.0501;1.0415;-4.1300;-0.2990;-0.1732;0.8556
0003979526;6.7516;1.6185;-3.9025;-0.5821;-0.2791;0.7588
0003979537;7.2568;2.5905;-3.3232;-0.7794;-0.3957;0.5765
0003979545;7.5369;2.9161;-2.7318;-0.7737;-0.4349;0.4309
0003979556;6.9887;2.7605;-2.0207;-0.5622;-0.4967;0.2537
0003979564;6.3758;2.0901;-1.7023;-0.2892;-0.5280;0.1920
0003979575;5.3199;1.0774;-1.6161;0.0966;-0.5059;0.1887
0003979583;4.9392;0.6512;-1.6712;0.2531;-0.4719;0.2085
0003979591;4.3981;0.1221;-1.8148;0.2867;-0.4393;0.2553
0003979602;3.7206;-0.7925;-2.0686;0.1859;-0.3440;0.3641
0003979610;3.6152;-1.1875;-2.1811;0.0588;-0.2705;0.4485
0003979621;3.5865;-1.3431;-2.2913;-0.1292;-0.1732;0.5542
0003979629;3.8595;-1.3719;-2.1332;-0.2273;-0.1006;0.5922
0003979640;4.2401;-1.2450;-2.0973;-0.3046;0.0015;0.5756
0003979648;4.5179;-1.1253;-1.9752;-0.3107;0.0837;0.5446
0003979698;5.7892;-0.4118;-1.0750;0.0024;0.3817;0.1564
0003979706;5.8514;-0.2705;-0.8930;0.0051;0.4186;0.1743
0003979714;5.8610;-0.3352;-0.6895;-0.0085;0.4277;0.2080
0003979725;6.0166;-0.0359;-0.4118;-0.0332;0.4453;0.2547
0003979733;6.2968;0.2011;-0.4094;-0.0424;0.4583;0.2915
0003979744;6.5505;0.5076;-0.3424;-0.0296;0.4606;0.3317
0003979752;6.6870;1.0415;-0.4525;0.0195;0.4610;0.3431
0003979763;6.8331;1.2234;-0.6009;0.1303;0.4406;0.3533
0003979771;6.9264;1.6376;-0.7278;0.2146;0.4335;0.3617
0003979782;7.1228;1.9034;-0.9649;0.3098;0.4286;0.3587
0003979790;7.3622;2.1691;-1.3408;0.3457;0.4167;0.3567
0003979798;7.3909;2.2386;-1.4724;0.3401;0.4159;0.3580
0003979809;7.1491;2.0375;-1.7023;0.3015;0.3864;0.3511
0003979817;7.0437;2.2960;-1.7789;0.2503;0.3580;0.3411
0003979828;6.8809;2.0231;-1.6927;0.1791;0.3300;0.3335
0003979836;6.8977;2.1524;-1.4844;0.1336;0.3311;0.3315
0003979847;6.8833;1.7765;-1.1803;0.0849;0.3176;0.3265
0003979855;6.9887;1.8100;-0.8380;0.0428;0.3208;0.3119
0003979863;6.9695;1.7047;-0.8715;-0.0041;0.3369;0.3000
0003979874;7.0246;1.9944;-0.4525;-0.0799;0.3456;0.2667
0003979882;6.9312;2.1117;-0.1437;-0.1619;0.3552;0.2382
0003979932;7.5848;5.8754;0.6991;-0.4068;0.1499;0.0256
0003979940;7.9799;7.1012;0.7135;-0.4383;0.1151;-0.0645
0003979951;8.6095;8.7053;0.3591;-0.4716;0.0745;-0.1773
0003979959;8.9423;9.9288;-0.0886;-0.4393;0.0195;-0.2349
0003979967;9.0214;10.7045;-0.2969;-0.3416;-0.0906;-0.2499
0003979978;9.7731;11.0708;-0.0886;-0.1503;-0.2562;-0.1998
0003979986;10.0844;10.5776;-0.5435;0.0573;-0.2706;-0.1756
0003979997;11.0947;10.2161;-2.4804;0.3973;-0.1851;-0.1859
0003980005;9.3661;9.6917;-3.8235;0.5224;-0.1611;-0.2140
0003980016;6.7708;7.8889;-3.6081;0.4475;-0.1905;-0.2657
0003980024;5.5043;6.6248;-3.4333;0.3098;-0.1847;-0.2743
0003980035;5.3702;5.5976;-2.5426;0.0690;-0.2771;-0.2309
0003980043;6.2896;4.5083;-2.0327;0.0281;-0.3513;-0.2234
0003980054;8.1259;3.8571;-1.2282;0.0722;-0.4706;-0.1860
0003980062;8.9136;3.0143;-0.7350;0.1135;-0.5929;-0.2090
0003980070;9.2225;2.1117;-0.4070;0.1684;-0.7340;-0.2974
0003980081;8.3749;0.4429;-0.4669;0.3026;-0.9268;-0.5307
0003980089;8.3007;-0.0934;-0.4142;0.3697;-1.0304;-0.6682
0003980100;7.2065;-0.9026;-1.6616;0.4295;-1.1187;-0.7979
0003980108;6.3566;-1.1396;-2.5139;0.3942;-1.0761;-0.7967
0003980119;5.0901;-0.4717;-3.7565;0.1384;-0.9902;-0.7481
0003980127;3.9768;0.0287;-3.9097;-0.2192;-0.9558;-0.6759
0003980177;2.7940;3.7828;-1.2570;-1.4759;-0.6809;0.0099
0003980185;3.8044;3.9265;-0.8140;-1.2690;-0.6074;-0.1108
0003980193;4.2521;3.8307;-0.2945;-1.0251;-0.5664;-0.2441
0003980204;4.8339;3.6320;0.0359;-0.7064;-0.4990;-0.3822
0003980212;4.5250;3.4357;-0.0215;-0.5321;-0.4616;-0.4499
0003980223;4.5562;3.5051;-0.4238;-0.4116;-0.4085;-0.4583
0003980231;4.3144;3.1268;-0.6464;-0.3660;-0.3870;-0.4514
0003980242;4.1659;2.5546;-0.6967;-0.3317;-0.3627;-0.4000
0003980250;4.2976;2.4229;-0.7111;-0.3060;-0.3488;-0.3528
0003980261;4.3838;2.0494;-0.6871;-0.2667;-0.3465;-0.3056
0003980269;4.4628;1.7861;-0.6393;-0.2458;-0.3440;-0.2697
0003980280;4.6280;1.4102;-0.5818;-0.1676;-0.3281;-0.2439
0003980288;4.7238;0.9481;-0.6728;-0.0973;-0.3112;-0.2332
0003980296;4.9991;0.5746;-0.7877;-0.0137;-0.2994;-0.2032
0003980307;5.2002;0.0838;-0.8859;0.0883;-0.2621;-0.1595
0003980315;5.3965;-0.0742;-1.1612;0.1576;-0.2292;-0.1499
0003980326;5.2816;-0.3184;-1.2929;0.1896;-0.1797;-0.1514
0003980334;5.1547;-0.5459;-1.2474;0.1781;-0.1592;-0.1661
0003980345;5.0063;-0.6752;-1.3815;0.1128;-0.1023;-0.1940
0003980353;4.8100;-0.7230;-1.3408;0.0505;-0.0402;-0.2029
0003980364;4.4772;-0.7685;-1.3791;-0.0509;0.0325;-0.2262
0003980372;4.3024;-0.7039;-1.2210;-0.1111;0.0738;-0.2551
0003980422;3.9768;-0.0168;-1.1540;-0.1355;0.4150;-0.3655
0003980430;4.0031;0.1006;-1.2713;-0.1420;0.4346;-0.3681
0003980438;4.0079;0.2346;-1.1588;-0.1600;0.4455;-0.3540
0003980449;4.3239;0.6273;-1.1301;-0.1903;0.4287;-0.3242
0003980457;4.2210;0.6488;-1.2689;-0.2226;0.4219;-0.2988
0003980468;4.2114;1.0247;-1.2258;-0.2643;0.3933;-0.2617
0003980476;4.4077;1.2737;-1.2282;-0.3147;0.3788;-0.2032
0003980487;4.4317;1.9130;-1.2617;-0.3477;0.3862;-0.1355
0003980495;4.3718;2.2889;-1.2091;-0.3513;0.4048;-0.0941
0003980506;3.9528;2.7198;-0.9768;-0.3665;0.4229;-0.0679
0003980514;3.8786;3.2609;-0.8571;-0.3833;0.4467;-0.0600
0003980522;3.5530;3.4836;-0.8068;-0.3745;0.4719;-0.0569
0003980533;3.4692;4.0941;-0.6057;-0.3496;0.5051;-0.0729
0003980541;3.4668;4.2282;-0.4310;-0.3138;0.5209;-0.0897
0003980552;3.4716;4.5753;-0.2849;-0.2805;0.5624;-0.1196
0003980560;3.4812;4.8243;-0.2155;-0.2607;0.5925;-0.1287
0003980571;3.6559;5.1643;-0.1341;-0.2108;0.5889;-0.1511
0003980579;3.8666;5.4253;-0.1460;-0.1601;0.5757;-0.1628
0003980590;3.9169;4.9584;-0.2227;-0.0297;0.5435;-0.1907
0003980598;4.2784;4.8243;-0.2801;0.0722;0.5112;-0.2061
0003980606;4.4867;4.4724;-0.2131;0.1576;0.4723;-0.2245
0003980617;4.5921;3.6943;-0.1772;0.2304;0.3966;-0.2486
0003980625;4.6926;3.3495;-0.1293;0.2531;0.3460;-0.2491
0003980675;4.8578;2.1261;-0.2562;0.2818;0.0644;-0.0659
0003980683;4.7812;1.9393;-0.3687;0.2967;0.0468;-0.0204
0003980694;4.3574;1.6688;-0.3855;0.3112;0.0242;0.0393
0003980702;4.3048;1.5538;-0.3160;0.3143;-0.0075;0.0673
0003980710;4.1994;1.3719;-0.1508;0.2767;-0.0217;0.1066
0003980721;4.5993;1.5443;-0.0407;0.2133;-0.0625;0.1400
0003980729;4.6471;1.3168;-0.1149;0.1559;-0.0862;0.1669
0003980740;4.7740;1.3240;-0.1053;0.1002;-0.1330;0.1727
0003980748;5.0446;1.4293;0.0359;0.0510;-0.1693;0.1727
0003980759;4.9177;1.2258;0.2705;-0.0156;-0.2214;0.1841
0003980767;5.0326;1.4772;0.0527;-0.0506;-0.2826;0.2153
0003980778;6.0573;2.3870;-0.5626;-0.0922;-0.4058;0.2597
0003980786;6.9480;3.2346;-1.2617;-0.0997;-0.5037;0.2706
0003980794;7.5776;4.2569;-1.9369;-0.0773;-0.6091;0.2711
0003980805;7.5800;5.2696;-2.2793;-0.0088;-0.7931;0.1819
0003980813;6.9312;5.8299;-1.6927;0.0250;-0.8948;0.0675
0003980824;5.4300;5.9065;-0.2945;0.0754;-0.9847;-0.1033
0003980832;4.4365;5.8826;0.7302;0.0897;-0.9494;-0.2086
0003980843;2.9784;5.9568;1.5610;0.0801;-0.8132;-0.3300
0003980851;1.7454;6.1699;1.5371;0.0340;-0.6730;-0.4068
0003980862;0.2945;6.7445;1.1588;-0.0673;-0.3882;-0.4710
0003980870;-0.5124;7.6662;0.8954;-0.1523;-0.2032;-0.5217
0003980878;-0.9361;8.4827;0.6943;-0.2346;-0.0437;-0.5772
0003980932;3.1053;10.9511;-0.4166;0.7024;0.6515;-0.4806
0003980940;4.0989;10.4172;-0.9098;1.1315;0.5697;-0.2610
0003980951;5.2170;8.7293;-1.0798;1.6439;0.3415;0.0426
0003980959;6.1770;7.1012;-0.9242;1.8995;0.1931;0.2220
0003980970;7.7835;5.2361;-0.4549;2.0106;0.0328;0.3336
0003980978;8.2073;3.9385;-0.6345;1.9632;-0.0464;0.3804
0003980986;8.1594;2.8946;-1.1349;1.9132;-0.1316;0.4346
0003980997;7.1754;1.4653;-1.8914;1.8367;-0.3160;0.6083
0003981006;6.8235;0.1891;-2.3822;1.7321;-0.4886;0.7646
0003981019;6.0166;-1.3144;-2.5259;1.5322;-0.7095;0.8978
0003981028;5.5234;-2.0159;-2.6647;1.3540;-0.8601;0.9770
0003981040;5.3630;-1.6735;-2.9712;0.9245;-0.9638;1.1166
0003981049;5.8299;-0.8236;-2.9856;0.3992;-0.9912;1.1791
0003981063;6.8881;0.1437;-2.7054;-0.4923;-1.0726;1.0611
0003981072;7.4651;0.9074;-1.9513;-0.8475;-1.1695;0.8760
0003981081;7.3263;1.2522;-1.2450;-0.9975;-1.2453;0.6178
0003981093;6.4596;1.3192;-0.6536;-0.8721;-1.2873;0.2763
0003981102;5.7628;1.1971;-0.2801;-0.6065;-1.3105;0.0979
0003981113;4.9799;1.0295;0.0527;-0.2795;-1.2891;0.0317
0003981122;4.6280;1.1708;-0.2083;-0.1364;-1.2604;0.0865
0003981176;3.5674;1.4772;-0.6321;-0.1747;-0.8977;0.3066
0003981185;4.0031;1.5778;-0.8715;-0.0827;-0.8102;0.2378
0003981196;4.3311;1.5371;-1.1253;0.0442;-0.7389;0.1649
0003981205;4.4987;1.3048;-1.3288;0.1280;-0.7012;0.1331
0003981214;4.6783;1.0702;-1.4509;0.1584;-0.6628;0.1287
0003981226;4.8147;0.8691;-1.5682;0.1271;-0.6432;0.1382
0003981235;4.9488;0.8092;-1.6735;0.0649;-0.6380;0.1584
0003981246;5.2529;0.8930;-1.7334;-0.0474;-0.6516;0.1767
0003981255;5.5162;1.1732;-1.6735;-0.1268;-0.6726;0.1905
0003981267;5.7078;1.2067;-1.6137;-0.2006;-0.7189;0.2010
0003981276;6.2249;1.4820;-1.7310;-0.1731;-0.7606;0.1807
0003981287;6.2920;1.8435;-1.8172;-0.1187;-0.7834;0.1515
0003981296;6.3877;1.9441;-1.6400;-0.0629;-0.8384;0.1216
0003981305;6.1459;1.9034;-1.5275;-0.0160;-0.8691;0.1139
0003981317;6.2944;2.2075;-1.4868;0.0354;-0.9317;0.1098
0003981326;6.2968;2.2505;-1.2234;0.0492;-0.9675;0.1168
0003981337;6.2058;2.3798;-1.2210;0.0734;-1.0199;0.1186
0003981346;6.3063;2.3128;-1.2833;0.0861;-1.0601;0.1284
0003981358;6.0166;2.2434;-1.0511;0.1239;-1.1295;0.1568
0003981367;6.2991;2.4205;-1.1396;0.1588;-1.1782;0.1893
0003981378;5.9664;2.1452;-1.0391;0.2054;-1.2375;0.2148
0003981387;6.1244;2.2075;-0.9553;0.2467;-1.2906;0.2236
0003981396;6.1028;2.1237;-0.9026;0.2759;-1.3336;0.2308
0003981449;5.8658;2.1739;-0.2131;0.3769;-1.4915;0.1358
0003981458;5.8610;2.0327;-0.0287;0.4049;-1.5005;0.1246
0003981469;6.0956;1.7262;0.2059;0.4237;-1.5218;0.1103
0003981478;6.6008;1.8579;0.3783;0.4036;-1.5472;0.0990
0003981490;6.5290;1.3982;0.5602;0.3349;-1.5747;0.0947
0003981499;6.7469;1.3096;0.8260;0.2722;-1.6250;0.0929
0003981508;6.9815;1.1660;0.9601;0.1871;-1.6714;0.1065
0003981519;7.1180;0.9002;1.0894;0.0691;-1.7555;0.1150
0003981528;7.1563;0.7949;0.8045;-0.0233;-1.8286;0.1009
0003981540;6.7373;1.3982;0.1006;-0.1487;-1.8559;0.0645
0003981549;5.6623;1.7980;-0.7661;-0.2150;-1.8832;0.0269
0003981560;4.4508;2.8683;-1.7142;-0.2169;-1.7848;-0.0268
0003981569;3.6105;3.6033;-2.5594;-0.1884;-1.6768;-0.0075
0003981581;2.5690;4.5322;-3.2609;-0.1294;-1.4578;0.0965
0003981590;2.0782;5.0326;-3.1867;-0.1104;-1.2604;0.2543
0003981599;2.2865;5.1787;-2.8204;-0.0946;-1.0600;0.4618
0003981610;2.8898;4.6807;-2.6959;0.0829;-0.8791;0.5584
0003981619;2.3080;4.8818;-2.8491;0.2878;-0.7786;0.5139
0003981631;0.5794;5.0996;-2.5115;0.3192;-0.7321;0.5267
0003981640;1.1037;4.6471;-2.9999;0.3263;-0.7051;0.6468
0003981651;4.0606;3.8930;-2.9832;0.4928;-0.6170;0.7177
0003981660;5.6623;2.9113;-2.5857;0.6123;-0.5753;0.6722
0003981669;6.6439;1.6807;-2.1500;0.6811;-0.6251;0.5536
0003981724;7.5513;1.3479;-2.1787;-0.0159;-1.4545;0.1066
0003981733;5.9041;2.0734;-2.0183;-0.1713;-1.4941;0.1915
0003981744;4.4987;3.0143;-1.4389;-0.2976;-1.4954;0.3092
0003981753;3.6368;3.5578;-1.0678;-0.3525;-1.4738;0.4065
0003981765;2.9257;4.0558;-0.8787;-0.2992;-1.3964;0.4972
0003981774;3.1101;4.3239;-0.9744;-0.1407;-1.3328;0.4974
0003981785;3.5865;3.7038;-0.8715;0.1607;-1.2644;0.3825
0003981794;3.9816;3.0885;-0.8164;0.3571;-1.2228;0.2477
0003981803;4.1444;2.4948;-0.8882;0.4274;-1.2073;0.1290
0003981815;4.3622;2.0016;-1.2905;0.3405;-1.1912;0.0622
0003981824;4.4532;1.7430;-1.5802;0.2238;-1.1960;0.0726
0003981835;4.5083;1.9561;-1.7813;0.0815;-1.2127;0.1059
0003981844;4.5203;2.2266;-1.6999;0.0265;-1.2009;0.1456
0003981856;4.8626;2.8635;-1.8435;0.0168;-1.1835;0.1919
0003981865;4.9752;3.1915;-2.1189;0.0390;-1.1604;0.2100
0003981876;4.7357;3.3423;-2.3463;0.0978;-1.1211;0.2006
0003981885;4.6855;3.4692;-2.4876;0.1512;-1.0678;0.1768
0003981894;4.3527;3.2226;-2.3008;0.2066;-1.0401;0.1263
0003981906;3.9792;2.7078;-1.9561;0.2389;-0.9714;0.0636
0003981915;4.3335;2.7102;-1.8651;0.2216;-0.9182;0.0200
0003981926;4.4125;2.3200;-1.9345;0.1537;-0.8627;-0.0181
0003981935;4.7022;2.3367;-1.8914;0.0917;-0.8515;-0.0520
0003981989;5.7006;2.8730;-1.5251;-0.0151;-0.9497;0.0155
0003981998;5.5593;2.8132;-1.3958;-0.0083;-0.9990;0.0201
0003982007;5.6336;2.8563;-1.2785;-0.0104;-1.0391;0.0320
0003982018;5.5665;3.1460;-1.3384;0.0051;-1.0837;0.0192
0003982027;5.1427;2.9257;-1.3336;0.0328;-1.1049;0.0124
0003982039;4.6639;2.8323;-1.3455;0.0665;-1.1036;-0.0055
0003982048;4.4365;2.8108;-1.4341;0.0751;-1.0749;-0.0079
0003982059;3.9816;2.7246;-1.5107;0.0815;-1.0427;-0.0152
0003982068;3.8331;2.8060;-1.5347;0.0711;-0.9781;-0.0193
0003982080;3.5602;2.7940;-1.5131;0.0568;-0.9018;-0.0369
0003982089;3.5314;2.8778;-1.5299;0.0425;-0.8375;-0.0481
0003982098;3.4860;2.9975;-1.5347;0.0485;-0.7809;-0.0661
0003982109;3.6344;2.9568;-1.6305;0.0496;-0.7141;-0.0877
0003982118;3.7852;3.0430;-1.7190;0.0513;-0.6574;-0.0922
0003982130;4.0199;3.0622;-1.8411;0.0481;-0.6083;-0.1091
0003982139;4.3311;2.9928;-1.7526;0.0489;-0.5840;-0.1243
0003982150;4.5203;2.9832;-1.8555;0.0488;-0.5589;-0.1354
0003982159;4.5681;2.7461;-1.8435;0.0480;-0.5581;-0.1476
0003982171;4.5107;2.4948;-1.7837;0.0304;-0.5480;-0.1541
0003982180;4.6256;2.7294;-1.6903;0.0200;-0.5454;-0.1556
0003982189;4.4987;2.6480;-1.6831;0.0139;-0.5411;-0.1475
0003982200;4.3096;2.6145;-1.7095;0.0141;-0.5359;-0.1446
0003982209;4.2856;2.5786;-1.8148;0.0096;-0.5332;-0.1390
0003982263;4.2306;2.7581;-1.8459;0.0175;-0.4578;-0.0891
0003982272;4.1132;2.5642;-1.8124;0.0123;-0.4361;-0.0750
0003982283;4.2976;2.7773;-1.9130;0.0115;-0.4169;-0.0679
0003982292;4.1731;2.5307;-1.9369;0.0020;-0.3836;-0.0540
0003982304;4.1779;2.6217;-1.8794;-0.0115;-0.3515;-0.0492
0003982313;4.3862;2.6001;-1.8268;-0.0221;-0.3256;-0.0486
0003982324;4.1922;2.6169;-1.8076;-0.0297;-0.2979;-0.0504
0003982333;4.1875;2.6983;-1.8196;-0.0421;-0.2791;-0.0528
0003982342;4.5226;2.9185;-1.8914;-0.0574;-0.2530;-0.0517
0003982354;4.4412;2.9137;-1.8076;-0.0560;-0.2241;-0.0636
0003982363;4.3311;2.9425;-1.7549;-0.0485;-0.2176;-0.0791
0003982374;4.3766;2.9592;-1.7047;-0.0424;-0.2090;-0.0927
0003982383;4.4963;3.0478;-1.8316;-0.0349;-0.1840;-0.0938
0003982395;4.3287;2.9042;-1.8172;-0.0234;-0.1800;-0.1090
0003982404;4.5059;2.8060;-1.7885;-0.0173;-0.1711;-0.1078
0003982415;4.6663;2.6552;-1.8172;-0.0345;-0.1537;-0.1049
0003982424;4.5777;2.7174;-1.8124;-0.0488;-0.1472;-0.1005
0003982433;4.6448;2.8180;-1.9489;-0.0585;-0.1366;-0.0949
0003982446;4.5035;2.5546;-1.7573;-0.0646;-0.1394;-0.0958
0003982455;4.6160;2.7390;-1.7693;-0.0761;-0.1318;-0.0759
0003982509;4.7453;2.9257;-1.8579;-0.0381;-0.1195;-0.0484
0003982518;4.7573;2.9353;-1.8220;-0.0253;-0.1230;-0.0453
0003982529;4.4796;2.7725;-1.6712;-0.0236;-0.1100;-0.0448
0003982538;4.5729;2.7677;-1.6783;-0.0281;-0.1054;-0.0389
0003982550;4.5346;2.8587;-1.7526;-0.0392;-0.0927;-0.0288
0003982559;4.5155;2.6408;-1.7406;-0.0412;-0.0898;-0.0345
0003982570;4.4819;2.6935;-1.8340;-0.0522;-0.0734;-0.0237
0003982579;4.3239;2.5714;-1.7262;-0.0521;-0.0715;-0.0240
0003982588;4.5753;2.6863;-1.8364;-0.0598;-0.0685;-0.0196
0003982600;4.6807;2.6935;-1.8196;-0.0633;-0.0659;-0.0115
0003982609;4.8866;2.8419;-1.8411;-0.0730;-0.0644;-0.0040
0003982620;4.8100;2.8826;-1.7645;-0.0723;-0.0674;-0.0023
0003982629;4.7884;2.8491;-1.7837;-0.0687;-0.0778;-0.0051
0003982641;4.5945;2.9113;-1.6496;-0.0634;-0.0883;-0.0021
0003982650;4.8578;3.0694;-1.6257;-0.0580;-0.0875;-0.0005
0003982661;4.7645;3.0550;-1.7119;-0.0413;-0.0867;-0.0021
0003982670;4.8147;3.0885;-1.7334;-0.0205;-0.0877;-0.0063
0003982682;4.5538;2.9592;-1.7573;0.0023;-0.0827;-0.0049
0003982691;4.6591;2.8467;-1.6999;0.0092;-0.0763;0.0003
0003982700;4.5538;2.7677;-1.6520;0.0179;-0.0701;0.0009
0003982711;4.7118;2.8683;-1.6496;0.0120;-0.0628;0.0020
0003982720;4.6280;2.7102;-1.7933;0.0024;-0.0518;0.0115
0003982774;4.7956;2.9880;-1.6448;-0.0444;-0.0529;0.0069
0003982783;4.8794;3.0598;-1.5874;-0.0365;-0.0521;0.0005
0003982794;4.9033;2.9880;-1.6017;-0.0246;-0.0606;0.0049
0003982803;4.8985;2.8156;-1.5419;-0.0155;-0.0632;0.0064
0003982815;4.8291;2.8826;-1.5347;-0.0017;-0.0637;0.0036
0003982824;4.9153;2.9760;-1.5419;0.0023;-0.0726;-0.0017
0003982833;4.9057;2.9233;-1.4341;0.0092;-0.0815;-0.0015
0003982844;4.9752;2.8395;-1.4557;0.0029;-0.0867;-0.0004
0003982853;4.8674;2.8563;-1.4006;0.0040;-0.0837;0.0017
0003982865;4.8123;2.8228;-1.3815;0.0069;-0.0873;0.0024
0003982874;4.6831;2.8395;-1.3503;0.0133;-0.0977;-0.0024
0003982885;4.6878;2.7749;-1.3958;0.0107;-0.0909;-0.0036
0003982894;4.6926;2.7845;-1.4078;0.0139;-0.0894;-0.0031
0003982906;4.6424;2.8491;-1.5012;0.0201;-0.0801;-0.0085
0003982915;4.7357;2.6719;-1.4365;0.0216;-0.0735;-0.0105
0003982924;4.8028;2.9161;-1.5754;0.0256;-0.0733;-0.0132
0003982935;4.7046;2.7988;-1.5802;0.0232;-0.0687;-0.0096
0003982944;4.5945;2.7007;-1.5778;0.0091;-0.0560;-0.0093
0003982956;4.7980;2.8228;-1.4964;-0.0019;-0.0621;-0.0085
0003982965;4.9177;2.7964;-1.4198;-0.0181;-0.0581;-0.0021
0003982976;4.6448;2.8826;-1.4964;-0.0121;-0.0661;-0.0012
0003982985;5.0135;3.1029;-1.5060;-0.0041;-0.0778;0.0017
0003983040;4.9153;2.7294;-1.4317;0.0334;-0.1484;0.0089
0003983049;4.9464;2.6671;-1.5371;0.0320;-0.1644;0.0076
0003983058;4.7860;2.6959;-1.5514;0.0184;-0.1623;0.0119
0003983069;4.6448;2.6432;-1.5395;0.0096;-0.1701;0.0196
0003983078;4.9584;2.9113;-1.6257;0.0057;-0.1833;0.0144
0003983090;4.9177;2.9856;-1.6305;0.0017;-0.1897;0.0156
0003983099;4.9105;2.9856;-1.5634;0.0056;-0.2032;0.0095
0003983110;4.9129;2.8252;-1.6065;0.0028;-0.2150;0.0068
0003983119;4.8052;2.7366;-1.5490;0.0004;-0.2282;0.0065
0003983128;4.9728;2.8515;-1.5993;-0.0007;-0.2430;0.0048
0003983140;4.8818;2.8276;-1.6065;-0.0067;-0.2698;0.0036
0003983149;5.0350;2.7821;-1.6688;-0.0089;-0.2805;0.0032
0003983160;4.8602;2.7198;-1.8076;-0.0108;-0.2982;-0.0043
0003983169;4.9799;2.9281;-1.7502;-0.0177;-0.3182;-0.0083
0003983181;4.8171;2.9281;-1.7837;-0.0274;-0.3333;-0.0208
0003983190;4.7956;2.9712;-1.7909;-0.0321;-0.3480;-0.0304
0003983201;4.6424;3.0023;-1.7645;-0.0238;-0.3736;-0.0466
0003983210;4.7118;3.0622;-1.8268;-0.0220;-0.3758;-0.0440
0003983222;4.6519;3.0311;-1.7382;0.0021;-0.3937;-0.0484
0003983231;4.5633;2.8371;-1.7885;0.0123;-0.4017;-0.0484
0003983240;4.6974;2.8347;-1.6951;0.0324;-0.4154;-0.0464
0003983251;4.6376;3.0406;-1.7573;0.0404;-0.4210;-0.0422
0003983260;4.7046;2.8994;-1.7502;0.0489;-0.4383;-0.0486
0003983310;4.5274;2.7916;-1.8004;0.0667;-0.5247;-0.0201
0003983319;4.5897;2.9161;-1.7980;0.0679;-0.5626;-0.0238
0003983330;4.7094;2.9185;-1.8364;0.0550;-0.5870;-0.0164
0003983339;4.7621;2.9712;-1.8411;0.0726;-0.6269;-0.0330
0003983351;4.8315;3.1603;-1.8555;0.0909;-0.6683;-0.0410
0003983360;4.9201;2.9377;-1.7837;0.1019;-0.7036;-0.0465
0003983369;5.0518;3.0430;-1.7645;0.1087;-0.7496;-0.0636
0003983380;5.3870;3.1867;-1.8172;0.1139;-0.8054;-0.0662
0003983389;5.2888;2.8012;-1.7645;0.1292;-0.8663;-0.0762
0003983401;5.4851;3.0263;-1.7717;0.1568;-0.9395;-0.0727
0003983410;5.5138;2.8611;-1.7047;0.1728;-0.9810;-0.0646
0003983421;5.4588;2.8347;-1.6161;0.2062;-1.0532;-0.0616
0003983430;5.2505;2.7054;-1.4820;0.2248;-1.0830;-0.0388
0003983442;5.0685;2.4612;-1.3360;0.2450;-1.1165;-0.0008
0003983451;4.5897;2.2242;-1.1540;0.2445;-1.1258;0.0397
0003983460;4.2952;2.1787;-1.0463;0.2419;-1.1103;0.0866
0003983471;4.0438;1.9441;-0.9337;0.2423;-1.0781;0.1545
0003983480;3.6966;1.7693;-0.5148;0.2293;-1.0281;0.2160
0003983492;3.4165;1.7310;-0.3065;0.1873;-0.9593;0.2847
0003983501;3.2777;1.8842;-0.3352;0.1440;-0.9026;0.3155
0003983512;3.2729;2.1261;-0.4836;0.0510;-0.8355;0.3158
0003983521;3.4716;2.5594;-0.5315;-0.0168;-0.7762;0.3071
0003983571;3.8140;3.4955;-0.7087;0.0140;-0.4614;0.2165
0003983580;3.7541;3.3591;-0.6488;0.0493;-0.4233;0.1851
0003983589;3.5147;3.1939;-0.6943;0.0847;-0.3854;0.1651
0003983600;3.6176;2.9185;-0.6129;0.1049;-0.3397;0.1444
0003983609;3.6057;2.7150;-0.5938;0.1034;-0.3034;0.1427
0003983621;3.5745;2.5522;-0.8116;0.0803;-0.2557;0.1504
0003983630;3.5769;2.5235;-0.8045;0.0441;-0.2276;0.1543
0003983641;3.6775;2.4349;-0.6967;0.0032;-0.1868;0.1572
0003983650;3.6105;2.3415;-0.6057;-0.0317;-0.1583;0.1608
0003983659;3.6105;2.3727;-0.6033;-0.0609;-0.1339;0.1667
0003983671;3.5745;2.4277;-0.6943;-0.0871;-0.1037;0.1824
0003983680;3.5075;2.5259;-0.5315;-0.0882;-0.0925;0.2022
0003983691;3.8092;2.8683;-0.5890;-0.0811;-0.0947;0.2273
0003983700;3.6512;2.8228;-0.5650;-0.0691;-0.1038;0.2494
0003983712;3.7230;2.8754;-0.7829;-0.0456;-0.1355;0.2803
0003983721;3.8714;3.0311;-0.9553;-0.0304;-0.1597;0.2980
0003983732;3.9624;2.9880;-0.9218;0.0007;-0.2162;0.2976
0003983741;3.8523;3.0718;-0.8308;0.0266;-0.2598;0.2852
0003983750;3.6775;2.9688;-0.7901;0.0486;-0.3083;0.2839
0003983763;3.5195;2.7701;-0.7590;0.0942;-0.3720;0.3000
0003983772;3.5267;2.6743;-0.8284;0.1299;-0.4116;0.3292
0003983784;3.8786;2.5259;-1.2115;0.1860;-0.4675;0.3695
0003983793;4.1994;2.6217;-1.6352;0.1868;-0.5127;0.3564
0003983843;7.3885;3.7996;-2.5259;-0.0077;-1.1141;-0.3551
0003983852;6.0142;3.0957;-1.2234;0.1757;-1.1329;-0.2505
0003983864;4.5562;2.2505;-0.2035;0.2793;-1.0833;-0.1043
0003983873;3.6320;1.7885;-0.2897;0.2465;-1.0200;-0.0052
0003983882;2.7964;1.5658;-0.5746;0.1584;-0.9437;0.0658
0003983893;2.1021;1.5131;-1.1947;0.0346;-0.8202;0.0854
0003983902;2.1404;1.8938;-1.7382;-0.0590;-0.7381;0.0592
0003983914;2.7557;2.5211;-2.2505;-0.1430;-0.6186;0.0000
0003983923;3.1388;2.7677;-2.3655;-0.1347;-0.5437;-0.0344
0003983934;3.9337;3.1651;-2.6073;-0.0593;-0.5076;-0.0778
0003983943;4.5753;3.3662;-2.6791;0.0217;-0.5047;-0.1053
0003983955;5.6695;3.5793;-2.6073;0.1108;-0.5180;-0.1263
0003983964;6.2273;3.3950;-2.5474;0.1823;-0.5586;-0.1414
0003983973;6.7133;3.4285;-2.5762;0.2583;-0.5708;-0.1310
0003983984;6.7828;3.0502;-2.4397;0.3597;-0.5856;-0.1058
0003983993;6.6559;2.8874;-2.3128;0.4163;-0.5941;-0.0769
0003984005;6.8570;2.8036;-2.1955;0.4366;-0.5955;-0.0524
0003984014;6.7995;2.7366;-2.2529;0.4068;-0.6027;-0.0417
0003984025;6.6295;2.4541;-2.0686;0.3449;-0.6177;-0.0356
0003984034;6.6415;2.5714;-1.9201;0.2737;-0.6131;-0.0220
0003984046;6.2560;2.6456;-1.8986;0.2034;-0.6218;-0.0191
0003984055;6.2273;2.8611;-1.9609;0.1652;-0.6388;-0.0180
0003984064;5.9424;2.9233;-1.9130;0.1470;-0.6627;0.0036
0003984114;6.3973;3.9241;-2.3176;0.2036;-0.7087;0.2733
0003984123;6.2896;3.7350;-2.2936;0.2678;-0.7202;0.2954
0003984135;6.4955;3.6990;-2.3535;0.3796;-0.7360;0.3254
0003984144;6.5362;3.4644;-2.3798;0.4568;-0.7592;0.3423
0003984155;6.9121;3.4429;-2.3320;0.5192;-0.7825;0.3535
0003984164;7.1467;3.3734;-2.3798;0.5494;-0.8119;0.3524
0003984176;7.0820;3.1723;-2.3822;0.5678;-0.8635;0.3509
0003984185;6.9719;3.0382;-2.2889;0.5690;-0.9080;0.3487
0003984194;6.7660;2.8371;-2.0853;0.5474;-0.9594;0.3497
0003984205;6.4524;2.6193;-1.9800;0.5085;-1.0239;0.3536
0003984214;6.1435;2.6193;-1.6759;0.4791;-1.0733;0.3577
0003984226;5.8873;2.5714;-1.6328;0.4555;-1.1282;0.3549
0003984235;5.4444;2.6240;-1.6185;0.4343;-1.1560;0.3465
0003984246;5.3654;2.7031;-1.5945;0.4269;-1.1787;0.3336
0003984255;4.8914;2.6384;-1.6783;0.4245;-1.1820;0.3111
0003984264;4.7262;2.6240;-1.7142;0.4124;-1.1434;0.3026
0003984276;4.6160;2.5067;-1.4820;0.4005;-1.1219;0.2721
0003984285;4.3958;2.3583;-1.3336;0.3782;-1.0961;0.2438
0003984296;4.3455;2.1668;-1.4365;0.3375;-1.0605;0.2089
0003984305;4.5538;2.2793;-1.3838;0.3127;-1.0293;0.1783
0003984317;4.8171;2.4014;-1.6352;0.2867;-0.9826;0.1464
0003984326;5.2074;2.4205;-1.7573;0.2543;-0.9170;0.1379
0003984377;5.1260;1.5634;-1.1061;0.2991;-0.9312;-0.2194
0003984386;5.3127;1.6544;-1.5802;0.2765;-0.9401;-0.2850
0003984395;5.0470;1.5538;-1.9752;0.2185;-0.9361;-0.3427
0003984407;4.6112;1.5107;-2.1811;0.1194;-0.9653;-0.4238
0003984416;4.5657;1.8866;-2.5762;0.0536;-0.9892;-0.4803
0003984427;4.0797;2.3439;-3.4620;0.0176;-1.0028;-0.4956
0003984436;3.6631;2.9712;-4.4508;-0.0105;-0.9709;-0.4305
0003984448;3.1077;4.5322;-5.7365;-0.1131;-0.8708;-0.1823
0003984457;3.3639;5.6479;-5.5450;-0.2442;-0.7747;0.0833
0003984468;3.9073;5.6958;-3.8738;-0.3231;-0.6718;0.3681
0003984477;5.0422;5.2481;-2.6145;-0.1701;-0.6563;0.4166
0003984486;6.1196;4.6974;-2.1548;0.1252;-0.6716;0.3428
0003984498;7.3191;3.6440;-2.2841;0.5220;-0.7338;0.2218
0003984507;7.5753;2.8970;-2.6001;0.7192;-0.7991;0.1407
0003984518;7.6710;1.8747;-3.0550;0.8388;-0.9096;0.0621
0003984527;7.4555;1.3791;-2.9688;0.8298;-0.9998;0.0049
0003984539;6.2872;1.0175;-3.0837;0.6307;-1.0918;0.0003
0003984548;5.3941;1.0750;-3.1101;0.4229;-1.1334;0.0472
0003984557;5.0901;1.8340;-3.1651;0.2410;-1.1475;0.1194
0003984568;4.5586;2.4397;-2.9712;0.0935;-1.1258;0.2242
0003984577;4.5777;3.2513;-2.9329;0.0636;-1.0877;0.2964
0003984589;4.5562;3.6081;-2.6839;0.1382;-1.0248;0.3571
0003984598;4.3958;3.4620;-2.4086;0.2577;-0.9826;0.3556
0003984652;4.4652;1.9154;-2.8036;0.4383;-0.7667;0.1447
0003984661;4.6064;1.8004;-2.9688;0.3865;-0.7634;0.1348
0003984673;4.6974;1.8483;-3.0694;0.3056;-0.7545;0.1362
0003984682;4.8507;1.8890;-3.0550;0.2673;-0.7576;0.1472
0003984691;4.8842;1.9561;-2.8778;0.2298;-0.7544;0.1644
0003984702;4.8100;1.9273;-2.7557;0.2254;-0.7600;0.1744
0003984711;4.8866;1.8004;-2.7126;0.2206;-0.7568;0.1808
0003984723;4.5155;1.6376;-2.7318;0.1968;-0.7470;0.1881
0003984732;4.4173;1.8220;-2.7126;0.1507;-0.7253;0.1986
0003984743;4.0151;1.8962;-2.7198;0.0830;-0.6869;0.2184
0003984752;3.8451;2.0159;-2.7964;0.0282;-0.6636;0.2304
0003984761;3.8618;2.0087;-2.8012;-0.0253;-0.6243;0.2493
0003984773;3.9169;2.3822;-2.9568;-0.0882;-0.5778;0.2529
0003984782;4.1228;2.6217;-2.8994;-0.1243;-0.5473;0.2466
0003984793;4.1922;2.8323;-2.8299;-0.1406;-0.5212;0.2158
0003984802;4.3191;2.9401;-2.7677;-0.1338;-0.4991;0.1839
0003984814;4.3167;2.7653;-2.8970;-0.0985;-0.4674;0.1436
0003984823;4.2760;2.6624;-2.8635;-0.0556;-0.4501;0.1226
0003984834;4.1061;2.4948;-2.8299;-0.0282;-0.4205;0.1095
0003984843;4.0151;2.2314;-2.7845;-0.0305;-0.3940;0.1134
0003984852;3.9672;2.2194;-2.8754;-0.0514;-0.3644;0.1244
0003984902;4.4460;2.5690;-2.9688;-0.1716;-0.2940;0.1282
0003984911;4.5466;2.4924;-3.0215;-0.1712;-0.2899;0.1335
0003984922;4.8722;2.5211;-3.0191;-0.1352;-0.2980;0.1527
0003984931;4.7669;2.3296;-2.9928;-0.1262;-0.2979;0.1808
0003984943;4.7716;2.1093;-2.5857;-0.1384;-0.2775;0.2309
0003984952;4.7549;2.0111;-2.6384;-0.1561;-0.2715;0.2569
0003984963;4.6974;1.9106;-2.5498;-0.1664;-0.2543;0.3022
0003984972;4.2928;2.1883;-2.3176;-0.2314;-0.2058;0.2871
0003984981;4.1707;2.6288;-2.3152;-0.3611;-0.1580;0.2374
0003984993;3.6751;2.8683;-2.3176;-0.4844;-0.0610;0.2184
0003985002;3.5889;3.3136;-2.4804;-0.4968;0.0044;0.1990
0003985013;3.2920;3.4931;-2.7653;-0.4429;0.0562;0.1415
0003985022;3.8044;3.9840;-2.7605;-0.3627;0.1175;0.0854
0003985034;4.1180;4.2856;-2.7414;-0.2241;0.1573;-0.0229
0003985043;4.2904;4.4652;-2.7246;-0.1180;0.1427;-0.1247
0003985054;4.6495;4.5083;-2.9568;-0.0016;0.1162;-0.2246
0003985063;4.9368;4.2784;-3.2130;0.0905;0.0762;-0.2839
0003985072;4.9512;4.0821;-3.3591;0.1767;0.0261;-0.3143
0003985084;4.8052;3.4716;-3.2106;0.2731;-0.0309;-0.3250
0003985093;4.8243;3.2250;-3.1675;0.3396;-0.0818;-0.3238
0003985104;4.8937;2.7773;-3.1603;0.3772;-0.0950;-0.2879
0003985113;5.0087;2.3894;-2.9688;0.3889;-0.1071;-0.2521
0003985164;5.2241;1.5155;-3.4596;0.2737;-0.1235;-0.1527
0003985172;5.2960;1.6161;-3.2896;0.2473;-0.1402;-0.1537
0003985183;4.9799;1.4820;-3.3567;0.1916;-0.1392;-0.1376
0003985191;4.5825;1.3815;-3.1819;0.1647;-0.1388;-0.1239
0003985199;4.4029;1.5754;-3.1220;0.1291;-0.1436;-0.1130
0003985209;4.2042;1.8387;-3.0670;0.0981;-0.1448;-0.0931
0003985217;3.8523;1.8196;-3.1029;0.0659;-0.1292;-0.0749
0003985228;3.9145;2.1739;-3.3902;0.0360;-0.1042;-0.0474
0003985236;3.9959;2.5331;-3.4884;0.0264;-0.0870;-0.0222
0003985246;4.1803;2.6288;-3.3279;0.0192;-0.0719;0.0047
0003985254;4.3574;2.8898;-3.2848;0.0069;-0.0509;0.0333
