time;acc_x;acc_y;acc_z;gyro_x;gyro_y;gyro_z
0000936796;6.6511;-15.1864;3.8595;0.0302;-0.2156;0.1418
0000936805;6.6272;-15.4737;3.9121;0.0308;-0.2029;0.1236
0000936812;6.7900;-15.3492;3.7828;0.0317;-0.1832;0.1092
0000936820;6.7062;-15.3780;3.8618;0.0286;-0.1616;0.0914
0000936829;6.5984;-15.4809;3.7757;0.0377;-0.1411;0.0669
0000936837;6.8977;-15.3181;3.8116;0.0477;-0.1279;0.0450
0000936849;6.9504;-15.3325;3.9361;0.0498;-0.0858;0.0301
0000936857;7.0509;-15.1697;4.1180;0.0374;-0.0508;0.0262
0000936865;6.9959;-15.3492;4.1492;0.0372;-0.0261;0.0073
0000936876;7.0054;-15.1433;3.8978;0.0281;0.0139;-0.0211
0000936884;6.6248;-15.1744;3.9121;0.0036;0.0372;-0.0326
0000936896;6.7995;-15.1529;3.9768;-0.0248;0.0654;-0.0526
0000936904;6.5864;-15.3492;4.0270;-0.0290;0.0709;-0.0632
0000936970;6.3805;-15.4713;3.7397;-0.0822;0.0468;-0.1107
0000936978;6.2513;-15.3851;3.6224;-0.0721;0.0413;-0.1092
0000936990;6.3398;-15.2511;3.6655;-0.0759;0.0478;-0.1081
0000936998;6.5218;-15.1409;3.5554;-0.0926;0.0489;-0.1058
0000937006;6.3542;-15.2702;3.5721;-0.1001;0.0553;-0.0982
0000937017;6.3710;-15.2654;3.5961;-0.1050;0.0620;-0.0937
0000937025;6.1172;-15.4378;3.7397;-0.0959;0.0436;-0.0918
0000937037;6.2513;-15.6150;3.6966;-0.1094;0.0418;-0.0761
0000937045;6.1076;-15.5336;3.4261;-0.0702;0.0314;-0.0743
0000937056;6.3303;-15.7131;3.6200;-0.0961;0.0334;-0.0649
0000937064;6.5290;-15.6868;3.6416;-0.0890;0.0252;-0.0610
0000937076;6.6750;-15.5168;3.5865;-0.0723;0.0204;-0.0698
0000937084;6.5888;-15.5527;3.6703;-0.0586;0.0055;-0.0759
0000937095;6.7445;-15.5503;3.6583;-0.1055;0.0207;-0.0648
0000937103;7.0294;-15.5958;3.5243;-0.0877;0.0192;-0.0657
0000937111;6.9216;-15.5072;3.4333;-0.0460;0.0208;-0.0606
0000937123;7.0413;-15.7036;3.5674;-0.0791;0.0196;-0.0433
0000937131;7.1898;-15.8807;3.5865;-0.0504;0.0309;-0.0281
0000937142;6.9121;-15.9358;3.6057;-0.0064;0.0236;-0.0188
0000937150;6.9336;-15.7108;3.5506;0.0043;0.0305;-0.0119
0000937162;6.8139;-15.5216;3.5889;-0.0073;0.0334;-0.0103
0000937170;6.5314;-15.4761;3.4979;-0.0192;0.0377;-0.0071
0000937238;6.5888;-15.5264;3.8523;0.0183;0.0885;-0.0570
0000937246;6.4404;-15.3013;3.7589;0.0249;0.0963;-0.0510
0000937258;6.2560;-15.0595;3.8666;0.0196;0.0917;-0.0501
0000937266;6.2297;-15.0069;3.9313;0.0056;0.0873;-0.0529
0000937274;6.2177;-14.8560;3.8379;-0.0137;0.0847;-0.0530
0000937285;6.0501;-15.0045;3.8954;-0.0388;0.0719;-0.0614
0000937293;6.1794;-14.9063;3.9313;-0.0496;0.0613;-0.0532
0000937305;6.0142;-15.2080;3.8762;-0.0546;0.0398;-0.0489
0000937313;6.0071;-15.1290;3.9025;-0.0257;0.0361;-0.0372
0000937324;5.9879;-15.3540;3.9744;-0.0922;0.0135;-0.0561
0000937332;6.0932;-15.6605;4.0989;-0.0995;0.0136;-0.0541
0000937344;6.0669;-15.6677;3.9768;-0.0497;-0.0016;-0.0565
0000937352;6.3614;-15.5647;3.8140;-0.0300;-0.0152;-0.0604
0000937360;6.3303;-15.2966;3.7804;-0.0242;-0.0184;-0.0526
0000937371;6.3710;-15.3875;3.7086;-0.0272;-0.0211;-0.0442
0000937379;6.4907;-15.2439;3.5961;-0.0369;-0.0257;-0.0368
0000937391;6.5242;-15.2391;3.6152;-0.0433;-0.0268;-0.0273
0000937399;6.6463;-15.2726;3.6727;-0.0506;-0.0266;-0.0260
0000937410;6.8977;-15.2726;3.5793;-0.0474;-0.0244;-0.0201
0000937418;6.9743;-15.2918;3.5602;-0.0574;-0.0131;-0.0113
0000937430;6.7947;-15.4211;3.4644;-0.0640;-0.0041;-0.0136
0000937438;6.8690;-15.5767;3.5793;-0.0638;-0.0037;-0.0217
0000937506;6.7253;-15.5934;3.6512;-0.0849;0.0181;-0.0365
0000937514;6.4189;-15.5767;3.4907;-0.0644;0.0063;-0.0237
0000937526;6.5218;-15.2487;3.5386;-0.0613;-0.0104;-0.0185
0000937534;6.3734;-15.3588;3.5961;-0.0702;-0.0145;-0.0079
0000937542;6.3686;-15.5575;3.6224;-0.0666;-0.0273;-0.0097
0000937553;6.4524;-15.5671;3.4955;-0.0645;-0.0334;0.0040
0000937561;6.5625;-15.4881;3.5626;-0.0578;-0.0441;0.0011
0000937573;6.4165;-15.5575;3.6200;-0.0613;-0.0430;-0.0012
0000937581;6.5529;-15.6006;3.4860;-0.0620;-0.0449;-0.0024
0000937592;6.5817;-15.3827;3.5075;-0.0557;-0.0398;-0.0021
0000937600;6.4165;-15.5288;3.5291;-0.0512;-0.0470;-0.0093
0000937612;6.5290;-15.4354;3.5171;-0.0516;-0.0428;-0.0039
0000937620;6.5122;-15.1505;3.3878;-0.0155;-0.0428;0.0004
0000937631;6.7133;-14.9949;3.4117;-0.0477;-0.0434;-0.0015
0000937639;6.4428;-15.1481;3.4931;-0.0734;-0.0458;-0.0100
0000937651;6.6822;-15.3253;3.5817;-0.1074;-0.0433;-0.0121
0000937659;6.5936;-15.5719;3.6009;-0.1175;-0.0448;-0.0049
0000937667;6.6080;-15.6581;3.5817;-0.1098;-0.0421;-0.0043
0000937678;6.5027;-15.5336;3.4884;-0.0795;-0.0569;-0.0107
0000937686;6.3782;-15.5934;3.5051;-0.0751;-0.0650;-0.0107
0000937698;6.3973;-15.6988;3.6105;-0.0937;-0.0690;-0.0129
0000937706;6.5050;-15.9310;3.5674;-0.0795;-0.0606;-0.0083
0000937774;6.6966;-15.4905;3.5650;-0.0302;-0.0601;0.0264
0000937782;6.5697;-15.6150;3.4405;-0.0258;-0.0666;0.0313
0000937794;6.6894;-15.5743;3.3830;-0.0337;-0.0657;0.0346
0000937802;6.6008;-15.6270;3.2920;-0.0268;-0.0722;0.0336
0000937813;6.5170;-15.5767;3.4740;-0.0232;-0.0745;0.0248
0000937821;6.5577;-15.5527;3.3902;-0.0226;-0.0663;0.0183
0000937829;6.4955;-15.5671;3.3327;-0.0187;-0.0691;0.0059
0000937841;6.6295;-15.4115;3.3375;-0.0292;-0.0578;-0.0091
0000937849;6.4236;-15.3923;3.3639;-0.0434;-0.0516;-0.0125
0000937860;6.4141;-15.4905;3.4285;-0.0600;-0.0413;-0.0145
0000937868;6.4332;-15.3684;3.5243;-0.0659;-0.0366;-0.0177
0000937880;6.4093;-15.3995;3.4979;-0.0747;-0.0325;-0.0167
0000937888;6.4021;-15.3756;3.4692;-0.0731;-0.0386;-0.0218
0000937899;6.3470;-15.4809;3.6679;-0.0661;-0.0384;-0.0137
0000937907;6.5434;-15.3804;3.5721;-0.0573;-0.0506;-0.0164
0000937919;6.4308;-15.2989;3.5410;-0.0457;-0.0518;-0.0145
0000937927;6.5194;-15.2247;3.5865;-0.0453;-0.0505;-0.0145
0000937938;6.5122;-15.2559;3.5362;-0.0465;-0.0626;-0.0091
0000937946;6.2752;-15.5072;3.5362;-0.0564;-0.0661;-0.0068
0000937954;6.4835;-15.5216;3.5195;-0.0524;-0.0731;-0.0036
0000937966;6.5745;-15.4641;3.4620;-0.0618;-0.0787;0.0068
0000937974;6.6415;-15.6748;3.5003;-0.0498;-0.0842;0.0115
0000938042;6.9432;-15.7922;3.1436;-0.0208;-0.0502;0.0298
0000938050;6.9145;-15.5575;3.2058;-0.0153;-0.0484;0.0286
0000938062;6.7756;-15.5743;3.1316;-0.0163;-0.0370;0.0298
0000938070;6.6702;-15.5192;3.1029;-0.0145;-0.0369;0.0282
0000938081;6.3662;-15.7419;3.1364;-0.0203;-0.0270;0.0341
0000938089;6.2704;-15.8233;3.2178;-0.0052;-0.0294;0.0269
0000938101;6.1890;-15.8999;3.3710;0.0141;-0.0329;0.0329
0000938109;6.2130;-15.7850;3.3184;0.0211;-0.0321;0.0288
0000938117;6.2369;-15.7060;3.3974;0.0284;-0.0380;0.0211
0000938128;6.1507;-15.7108;3.4572;0.0306;-0.0253;0.0153
0000938136;6.2513;-15.4498;3.4668;0.0284;-0.0266;-0.0011
0000938148;6.3877;-15.2247;3.5051;0.0147;-0.0152;-0.0260
0000938156;6.2177;-15.2439;3.5075;0.0152;-0.0193;-0.0430
0000938168;6.3111;-15.3851;3.5961;0.0121;-0.0040;-0.0541
0000938176;6.4787;-15.3037;3.5554;0.0145;0.0045;-0.0584
0000938187;6.3470;-15.5001;3.5721;0.0220;0.0257;-0.0789
0000938195;6.5098;-15.4641;3.6200;0.0112;0.0517;-0.0863
0000938203;6.6607;-15.3851;3.6392;0.0035;0.0661;-0.1029
0000938215;6.7971;-15.3780;3.6727;0.0099;0.0841;-0.1198
0000938223;6.8283;-15.4809;3.6248;0.0208;0.0907;-0.1296
0000938235;6.9145;-15.4043;3.6392;0.0332;0.0907;-0.1246
0000938243;6.8474;-15.5312;3.6943;0.0390;0.0891;-0.1138
0000938311;6.4787;-15.2918;3.4046;-0.0197;0.0373;-0.0533
0000938319;6.6008;-15.4258;3.3399;-0.0238;0.0201;-0.0316
0000938330;6.4596;-15.6868;3.3806;-0.0104;-0.0063;-0.0027
0000938338;6.3279;-15.9574;3.2801;-0.0032;-0.0249;0.0120
0000938350;6.3470;-15.8352;3.2968;0.0095;-0.0440;0.0410
0000938358;6.3877;-15.8352;3.3926;0.0244;-0.0512;0.0529
0000938366;6.4548;-15.7060;3.3615;0.0254;-0.0588;0.0540
0000938377;6.5625;-15.6054;3.2920;0.0305;-0.0652;0.0486
0000938385;6.7229;-15.3612;3.3255;0.0203;-0.0568;0.0433
0000938397;6.5362;-15.4091;3.2681;0.0048;-0.0482;0.0337
0000938405;6.4596;-15.3588;3.3519;0.0035;-0.0528;0.0140
0000938416;6.4117;-15.5120;3.3399;-0.0157;-0.0430;0.0123
0000938424;6.4476;-15.4713;3.3734;-0.0175;-0.0409;0.0040
0000938436;6.4931;-15.5527;3.3806;-0.0208;-0.0372;0.0099
0000938444;6.4069;-15.5623;3.3878;-0.0176;-0.0440;0.0089
0000938452;6.4069;-15.4881;3.6033;-0.0139;-0.0508;0.0124
0000938463;6.4907;-15.4426;3.5338;-0.0113;-0.0508;0.0183
0000938471;6.3997;-15.3947;3.5219;-0.0083;-0.0602;0.0216
0000938483;6.4189;-15.4234;3.6224;0.0037;-0.0795;0.0218
0000938491;6.3183;-15.4067;3.7014;-0.0007;-0.0821;0.0326
0000938503;6.1100;-15.4306;3.6751;0.0015;-0.0971;0.0372
0000938511;6.3686;-15.4426;3.6990;-0.0031;-0.0985;0.0425
0000938579;6.4763;-15.5049;3.5745;0.0265;-0.1127;0.0449
0000938587;6.5194;-15.2511;3.4907;0.0296;-0.1238;0.0458
0000938595;6.5601;-15.0954;3.5554;0.0160;-0.1224;0.0497
0000938606;6.3566;-15.2199;3.4213;0.0097;-0.1355;0.0473
0000938614;6.3470;-15.2223;3.4500;0.0016;-0.1352;0.0581
0000938626;6.3422;-15.4043;3.4500;-0.0039;-0.1359;0.0593
0000938634;6.4524;-15.3277;3.4860;-0.0077;-0.1422;0.0604
0000938645;6.4332;-15.3875;3.4644;-0.0080;-0.1470;0.0553
0000938653;6.4500;-15.4689;3.3686;-0.0208;-0.1392;0.0570
0000938665;6.4212;-15.5910;3.4860;-0.0356;-0.1318;0.0525
0000938673;6.5697;-15.4426;3.5027;-0.0358;-0.1308;0.0461
0000938684;6.4093;-15.5839;3.3639;-0.0456;-0.1219;0.0460
0000938692;6.5170;-15.5432;3.4069;-0.0436;-0.1171;0.0384
0000938700;6.3877;-15.4474;3.3639;-0.0413;-0.1103;0.0394
0000938712;6.2321;-15.5719;3.3112;-0.0337;-0.1191;0.0306
0000938720;6.3734;-15.5767;3.3998;-0.0350;-0.1134;0.0340
0000938731;6.4811;-15.6078;3.4788;-0.0258;-0.1110;0.0254
0000938739;6.7469;-15.5144;3.4357;-0.0250;-0.0969;0.0244
0000938751;6.6200;-15.5503;3.5291;-0.0196;-0.0843;0.0224
0000938759;6.7493;-15.4522;3.5123;-0.0249;-0.0687;0.0176
0000938771;6.6463;-15.4546;3.5745;-0.0317;-0.0517;0.0008
0000938779;6.6128;-15.4234;3.4477;-0.0297;-0.0498;-0.0108
0000938847;6.6655;-15.3229;3.6440;-0.0234;-0.0087;-0.0028
0000938855;6.4691;-15.3397;3.5650;-0.0242;-0.0161;-0.0060
0000938863;6.6008;-15.3277;3.4884;-0.0222;-0.0197;-0.0051
0000938874;6.3422;-15.5192;3.5434;-0.0253;-0.0249;-0.0020
0000938882;6.4165;-15.4737;3.5458;-0.0293;-0.0286;-0.0011
0000938894;6.3758;-15.4163;3.4907;-0.0224;-0.0374;0.0019
0000938902;6.5170;-15.5408;3.4812;-0.0200;-0.0445;-0.0065
0000938913;6.2513;-15.6270;3.4572;-0.0273;-0.0420;0.0012
0000938921;6.3446;-15.5049;3.4141;-0.0205;-0.0541;-0.0003
0000938933;6.1507;-15.6988;3.4572;-0.0268;-0.0482;0.0009
0000938941;6.3782;-15.5001;3.4357;-0.0308;-0.0458;0.0088
0000938952;6.2441;-15.5767;3.3830;-0.0292;-0.0506;-0.0001
0000938960;6.2680;-15.5575;3.4022;-0.0276;-0.0470;0.0001
0000938968;6.4093;-15.5312;3.3998;-0.0301;-0.0450;-0.0020
0000938980;6.3638;-15.5240;3.3734;-0.0264;-0.0492;0.0000
0000938988;6.2728;-15.6700;3.4405;-0.0258;-0.0442;0.0012
0000938999;6.3518;-15.6341;3.4261;-0.0185;-0.0472;-0.0067
0000939007;6.5194;-15.4689;3.4644;-0.0240;-0.0472;-0.0081
0000939019;6.5362;-15.5025;3.3830;-0.0258;-0.0388;-0.0115
0000939027;6.5266;-15.5192;3.4309;-0.0180;-0.0453;-0.0185
0000939039;6.4069;-15.6461;3.4812;-0.0253;-0.0424;-0.0156
0000939047;6.4643;-15.5767;3.4716;-0.0228;-0.0316;-0.0151
0000939115;6.4500;-15.4618;3.4405;-0.0284;-0.0274;-0.0152
0000939123;6.5074;-15.5192;3.4764;-0.0276;-0.0221;-0.0113
0000939134;6.2752;-15.6629;3.5291;-0.0272;-0.0286;-0.0116
0000939142;6.6391;-15.4354;3.5314;-0.0277;-0.0276;-0.0147
0000939150;6.3015;-15.5264;3.4979;-0.0221;-0.0294;-0.0145
0000939162;6.3829;-15.5001;3.4812;-0.0196;-0.0333;-0.0123
0000939170;6.3662;-15.4450;3.5410;-0.0149;-0.0414;-0.0172
0000939181;6.4428;-15.4306;3.3662;-0.0177;-0.0357;-0.0137
0000939189;6.4452;-15.4450;3.5195;-0.0139;-0.0424;-0.0176
0000939201;6.5170;-15.3971;3.4189;-0.0196;-0.0404;-0.0208
0000939209;6.4452;-15.4330;3.4692;-0.0256;-0.0362;-0.0120
0000939220;6.5817;-15.4641;3.4716;-0.0220;-0.0341;-0.0149
0000939228;6.4141;-15.5312;3.4381;-0.0278;-0.0316;-0.0137
0000939240;6.5027;-15.4833;3.4860;-0.0309;-0.0342;-0.0119
0000939248;6.3446;-15.5671;3.4141;-0.0290;-0.0326;-0.0151
0000939259;6.4811;-15.5456;3.3471;-0.0207;-0.0332;-0.0153
0000939267;6.4835;-15.5049;3.4644;-0.0236;-0.0308;-0.0163
0000939275;6.3997;-15.5863;3.4309;-0.0217;-0.0305;-0.0172
0000939287;6.2824;-15.5910;3.4453;-0.0180;-0.0350;-0.0175
0000939295;6.3805;-15.4977;3.3998;-0.0203;-0.0334;-0.0139
0000939307;6.4859;-15.4977;3.3902;-0.0240;-0.0316;-0.0121
0000939315;6.4883;-15.4043;3.3615;-0.0172;-0.0366;-0.0133
0000939383;6.4165;-15.4522;3.4046;-0.0053;-0.0396;-0.0064
0000939391;6.4189;-15.5743;3.3495;-0.0085;-0.0374;-0.0041
0000939402;6.2537;-15.6509;3.3662;0.0008;-0.0337;-0.0061
0000939410;6.5745;-15.4139;3.3351;-0.0016;-0.0393;-0.0069
0000939422;6.4021;-15.5910;3.4381;0.0005;-0.0354;-0.0111
0000939430;6.4332;-15.4546;3.4237;-0.0017;-0.0354;-0.0021
0000939441;6.4021;-15.4641;3.3878;-0.0031;-0.0328;-0.0077
0000939449;6.4356;-15.4641;3.4046;-0.0049;-0.0330;-0.0097
0000939457;6.4452;-15.4522;3.4596;-0.0031;-0.0358;-0.0147
0000939469;6.4189;-15.5575;3.5267;0.0015;-0.0389;-0.0128
0000939477;6.5529;-15.4067;3.4381;-0.0007;-0.0409;-0.0083
0000939488;6.4069;-15.4761;3.4069;0.0085;-0.0420;-0.0147
0000939496;6.2968;-15.6341;3.4477;0.0131;-0.0420;-0.0159
0000939508;6.3710;-15.5216;3.5171;0.0136;-0.0440;-0.0152
0000939516;6.3470;-15.4426;3.4453;0.0079;-0.0398;-0.0080
0000939528;6.4260;-15.5671;3.5027;0.0060;-0.0426;-0.0105
0000939536;6.4835;-15.5120;3.4285;0.0067;-0.0414;-0.0073
0000939547;6.3853;-15.5527;3.4716;0.0037;-0.0346;-0.0064
0000939555;6.2872;-15.5647;3.4668;0.0048;-0.0413;-0.0084
0000939563;6.5817;-15.3277;3.3806;0.0013;-0.0336;-0.0079
0000939575;6.4667;-15.5025;3.4644;0.0032;-0.0392;-0.0168
0000939583;6.4811;-15.4641;3.4261;-0.0037;-0.0326;-0.0139
0000939651;6.4165;-15.5839;3.5626;-0.0017;-0.0445;-0.0176
0000939659;6.3949;-15.4570;3.4596;-0.0053;-0.0393;-0.0107
0000939671;6.5146;-15.5216;3.5650;-0.0017;-0.0380;-0.0133
0000939679;6.4332;-15.4330;3.5602;0.0043;-0.0433;-0.0180
0000939690;6.4117;-15.5408;3.4860;0.0063;-0.0473;-0.0157
0000939698;6.4476;-15.4761;3.5123;-0.0005;-0.0414;-0.0133
0000939710;6.3686;-15.5336;3.4572;0.0008;-0.0420;-0.0144
0000939718;6.5386;-15.5384;3.4357;0.0021;-0.0422;-0.0163
0000939726;6.5290;-15.4689;3.4979;0.0067;-0.0422;-0.0151
0000939737;6.4500;-15.4665;3.4285;0.0056;-0.0393;-0.0136
0000939745;6.4404;-15.3612;3.4860;0.0080;-0.0416;-0.0207
0000939757;6.6272;-15.3660;3.4596;0.0059;-0.0357;-0.0149
0000939765;6.5841;-15.3947;3.4836;0.0024;-0.0286;-0.0132
0000939776;6.3518;-15.5551;3.3495;0.0053;-0.0328;-0.0191
0000939784;6.4069;-15.6389;3.5458;0.0009;-0.0286;-0.0121
0000939796;6.3853;-15.5168;3.4764;0.0104;-0.0325;-0.0169
0000939804;6.3063;-15.5958;3.5578;0.0085;-0.0306;-0.0117
0000939815;6.4548;-15.5288;3.4692;0.0147;-0.0329;-0.0137
0000939823;6.3901;-15.5575;3.5195;0.0168;-0.0410;-0.0204
0000939831;6.4165;-15.4785;3.4979;0.0195;-0.0368;-0.0208
0000939843;6.3853;-15.5647;3.4285;0.0218;-0.0381;-0.0180
0000939851;6.5050;-15.5336;3.4405;0.0181;-0.0337;-0.0096
0000939919;6.3375;-15.5982;3.5817;0.0352;-0.0409;-0.0224
0000939927;6.6607;-15.4067;3.5314;0.0320;-0.0362;-0.0115
0000939939;6.3686;-15.5791;3.4069;0.0264;-0.0329;-0.0092
0000939947;6.4189;-15.5168;3.5410;0.0317;-0.0374;-0.0093
0000939958;6.4931;-15.5192;3.4931;0.0382;-0.0360;-0.0069
0000939966;6.4907;-15.3875;3.5410;0.0508;-0.0422;-0.0115
0000939978;6.6367;-15.2894;3.5841;0.0524;-0.0398;-0.0115
0000939986;6.5505;-15.4378;3.5506;0.0553;-0.0453;-0.0141
0000939994;6.3255;-15.7155;3.5075;0.0593;-0.0462;-0.0127
0000940005;6.5553;-15.5336;3.5338;0.0562;-0.0397;-0.0091
0000940013;6.6152;-15.5216;3.4907;0.0629;-0.0436;-0.0151
0000940025;6.4620;-15.6461;3.5674;0.0709;-0.0440;-0.0157
0000940033;6.5218;-15.4618;3.4500;0.0662;-0.0378;-0.0140
0000940044;6.4093;-15.3588;3.5554;0.0682;-0.0422;-0.0191
0000940052;6.3925;-15.5767;3.5243;0.0770;-0.0416;-0.0180
0000940064;6.3734;-15.5767;3.5793;0.0761;-0.0384;-0.0155
0000940072;6.5170;-15.4977;3.5362;0.0759;-0.0376;-0.0113
0000940084;6.2584;-15.5647;3.5506;0.0775;-0.0397;-0.0172
0000940092;6.2465;-15.5886;3.6057;0.0801;-0.0470;-0.0218
0000940100;6.2944;-15.5575;3.6033;0.0762;-0.0434;-0.0233
0000940112;6.4165;-15.6150;3.6105;0.0805;-0.0461;-0.0205
0000940120;6.3518;-15.5815;3.5817;0.0813;-0.0466;-0.0143
0000940188;6.5697;-15.7874;3.7804;0.1628;-0.0396;-0.0160
0000940196;6.4476;-15.7395;3.6966;0.1689;-0.0329;-0.0104
0000940208;6.3853;-15.6509;3.7445;0.1871;-0.0199;-0.0177
0000940216;6.7253;-15.4306;3.7733;0.2037;-0.0184;-0.0230
0000940227;6.6918;-15.5647;3.8283;0.2189;-0.0085;-0.0201
0000940235;6.6176;-15.5432;3.7757;0.2322;-0.0011;-0.0277
0000940243;6.4212;-15.4929;3.7254;0.2434;0.0004;-0.0373
0000940255;6.3782;-15.4211;3.8116;0.2495;0.0081;-0.0316
0000940263;6.4356;-15.4043;3.7421;0.2579;-0.0017;-0.0365
0000940274;6.2393;-15.5863;3.7924;0.2621;0.0047;-0.0328
0000940282;6.2441;-15.6293;3.7781;0.2719;-0.0059;-0.0366
0000940294;6.1962;-15.5934;3.8451;0.2939;-0.0218;-0.0390
0000940302;6.3015;-15.5168;3.8331;0.2975;-0.0266;-0.0284
0000940313;6.4620;-15.4857;3.9025;0.3144;-0.0366;-0.0290
0000940321;6.5697;-15.3516;3.8690;0.3180;-0.0292;-0.0253
0000940333;6.5601;-15.4450;3.9313;0.3244;-0.0278;-0.0242
0000940341;6.6846;-15.4546;3.9002;0.3284;-0.0222;-0.0254
0000940349;6.5410;-15.5599;3.9385;0.3448;-0.0241;-0.0316
0000940360;6.3590;-15.5719;4.0749;0.3653;-0.0165;-0.0337
0000940368;6.5338;-15.5982;4.1180;0.3768;-0.0135;-0.0314
0000940380;6.4356;-15.6461;4.1252;0.4134;-0.0107;-0.0297
0000940388;6.3446;-15.7155;4.2713;0.4382;-0.0159;-0.0308
0000940456;6.3327;-15.5982;4.4460;0.5930;-0.0048;-0.0396
0000940464;6.4212;-15.5360;4.4077;0.6167;-0.0041;-0.0409
0000940476;6.4500;-15.6126;4.3694;0.6572;-0.0111;-0.0388
0000940484;6.4931;-15.6317;4.3862;0.6919;-0.0153;-0.0354
0000940496;6.2872;-15.5456;4.5035;0.7410;-0.0257;-0.0337
0000940504;6.4141;-15.4211;4.4628;0.7702;-0.0268;-0.0390
0000940512;6.3398;-15.5288;4.3383;0.7883;-0.0188;-0.0344
0000940524;6.6152;-15.3899;4.5562;0.8260;-0.0056;-0.0416
0000940532;6.4452;-15.6700;4.4987;0.8475;0.0004;-0.0376
0000940543;6.6750;-15.5503;4.5969;0.9066;0.0047;-0.0461
0000940551;6.4715;-15.6892;4.6519;0.9415;0.0191;-0.0448
0000940563;6.4380;-15.7251;4.6855;0.9983;0.0333;-0.0512
0000940571;6.5745;-15.4211;4.7381;1.0343;0.0434;-0.0540
0000940582;6.4476;-15.5096;4.6902;1.0813;0.0489;-0.0645
0000940590;6.4308;-15.4594;4.8028;1.1145;0.0537;-0.0769
0000940598;6.3710;-15.5240;4.8028;1.1544;0.0540;-0.0938
0000940610;6.3614;-15.5982;4.8650;1.2169;0.0557;-0.1143
0000940618;6.3566;-15.4282;4.9057;1.2548;0.0594;-0.1243
0000940629;6.4356;-15.2080;4.9488;1.3169;0.0574;-0.1387
0000940637;6.3877;-15.0763;5.0996;1.3502;0.0570;-0.1438
0000940649;6.3877;-14.8848;5.1499;1.3815;0.0564;-0.1402
0000940657;6.5122;-14.8105;5.2337;1.4144;0.0434;-0.1444
0000940725;6.6990;-14.6214;5.5498;1.7253;0.0596;-0.1487
0000940733;6.7253;-14.4514;5.6288;1.7492;0.0881;-0.1394
0000940741;6.9887;-14.2647;5.6360;1.7524;0.1013;-0.1443
0000940753;6.9001;-14.1090;5.7772;1.8329;0.1242;-0.1612
0000940761;6.8642;-14.0420;5.8682;1.8409;0.1557;-0.1616
0000940772;6.7062;-14.0348;5.9616;1.8838;0.1849;-0.1781
0000940780;7.0773;-13.8002;5.9975;1.9043;0.2044;-0.2000
0000940792;6.9959;-13.6637;6.1411;1.9323;0.2162;-0.2595
0000940800;7.3023;-13.4626;6.1004;1.9441;0.2169;-0.3047
0000940811;7.2018;-13.5584;5.9400;1.9389;0.2345;-0.3504
0000940819;7.1635;-13.2495;5.9209;1.9650;0.2318;-0.3740
0000940827;7.3358;-13.1777;6.0430;1.9861;0.2293;-0.3908
0000940839;7.3502;-13.0891;5.8371;1.9839;0.2535;-0.3733
0000940847;7.6279;-12.8210;5.7341;1.9941;0.2703;-0.3533
0000940859;7.7788;-12.0500;5.9664;1.9630;0.3124;-0.3412
0000940867;7.9080;-11.8824;5.9472;1.9168;0.3348;-0.3304
0000940879;7.7165;-11.5544;5.8251;1.8887;0.3576;-0.3276
0000940887;7.4627;-11.0732;6.1172;1.8668;0.3659;-0.3501
0000940899;7.2209;-10.8649;6.2393;1.8103;0.3687;-0.3926
0000940907;7.1467;-10.5872;6.1148;1.7467;0.3685;-0.4177
0000940915;6.8354;-10.4076;5.9472;1.6951;0.3664;-0.4182
0000940983;5.0254;-10.0628;5.5019;1.2818;0.4122;-0.2999
0000940991;4.9823;-9.6391;5.7796;1.2249;0.3508;-0.3010
0000941003;4.9153;-9.3541;6.0166;1.1485;0.2541;-0.3014
0000941011;4.9775;-9.1913;6.3351;1.1008;0.1936;-0.2944
0000941023;4.6017;-9.3829;6.9145;0.9959;0.1098;-0.2767
0000941031;4.6448;-9.6965;7.3119;0.9370;0.0693;-0.2310
0000941043;5.5761;-10.7332;7.7668;0.8327;-0.0336;-0.2168
0000941051;6.5170;-11.8465;8.4755;0.7642;-0.0910;-0.2469
0000941059;7.2927;-13.9271;9.4379;0.7695;-0.0763;-0.1476
0000941071;8.0349;-16.3692;10.3358;1.1105;0.0193;0.0151
0000941079;7.7357;-16.0507;10.2041;1.4873;0.0758;0.1163
0000941091;7.1084;-13.2304;10.5536;1.7484;0.1006;0.1885
0000941099;6.9983;-12.2487;10.7141;1.7405;0.1148;0.2108
0000941111;6.3949;-12.7228;10.9223;1.6940;0.1167;0.2224
0000941119;5.8921;-13.2902;10.8409;1.7698;0.0678;0.2068
0000941131;5.6934;-13.5105;10.7931;1.9232;-0.0292;0.1970
0000941139;6.0166;-13.6110;10.6638;2.0107;-0.0633;0.2068
0000941147;6.9911;-13.7212;10.3717;2.0840;-0.0774;0.2086
0000941159;7.6950;-14.1737;9.5864;2.1831;-0.0533;0.2341
0000941167;8.0206;-14.4107;9.1554;2.2874;-0.0257;0.2427
0000941179;8.2744;-14.4753;8.7580;2.4487;0.0445;0.2418
0000941187;8.1379;-14.2096;8.1092;2.5546;0.0735;0.2282
0000941255;4.3311;-10.6997;9.2153;3.3506;-0.2173;0.2458
0000941263;3.0406;-10.7045;10.6183;3.5372;-0.3088;0.3685
0000941275;0.9888;-10.6710;12.9694;3.9139;-0.4582;0.5800
0000941283;-0.5842;-10.8218;13.8217;4.2018;-0.5588;0.7265
0000941295;-1.3096;-10.7069;14.1378;4.3656;-0.7626;0.8756
0000941303;-0.7781;-10.5441;12.2104;4.3656;-0.9666;0.8511
0000941311;1.2258;-10.6326;9.7420;4.3656;-1.1493;0.7027
0000941323;4.8052;-10.5177;5.8466;4.3656;-1.3779;0.3381
0000941331;6.7493;-10.3214;2.8802;4.3656;-1.4637;0.1661
0000941343;8.2504;-10.2352;-1.2139;4.3656;-1.3715;-0.0366
0000941351;8.3629;-10.0341;-2.8730;4.3656;-1.2328;-0.1107
0000941363;7.7069;-8.9208;-4.2234;4.3656;-0.9282;-0.1571
0000941371;7.4962;-8.2720;-4.7716;4.3656;-0.7765;-0.1581
0000941383;7.3358;-7.4029;-5.2409;4.3656;-0.5092;-0.0878
0000941391;7.2353;-6.7564;-5.3941;4.3656;-0.3912;-0.0212
0000941403;7.1012;-5.7317;-5.6048;4.3656;-0.3465;0.0929
0000941411;7.6040;-4.3239;-5.6192;4.3656;-0.3106;0.2425
0000941419;10.3118;9.5984;1.5227;4.3656;0.0329;-0.0564
0000941431;22.2134;74.8906;11.2695;2.8825;0.3591;-1.1024
0000941439;20.4752;55.2989;-7.5800;1.5717;-0.3429;-1.6920
0000941451;15.4306;21.4760;-25.5150;0.4173;-0.3440;-1.7993
0000941459;12.7467;18.0882;-28.8238;-0.1190;-0.2639;-2.0624
0000941525;1.9034;2.9640;0.6656;-4.3657;0.5249;-0.7308
0000941533;1.4437;2.0111;1.4916;-4.3657;0.3801;-0.4608
0000941545;1.4605;0.5986;2.5977;-4.3657;0.1511;-0.1470
0000941553;1.8411;-0.3496;3.4500;-4.3657;0.0468;-0.0176
0000941561;1.9393;-1.9704;3.6919;-4.3657;0.0458;0.0709
0000941573;2.9257;-3.9624;4.3120;-4.3657;0.2229;0.1921
0000941581;3.5721;-5.8155;6.1028;-4.3657;0.4574;0.3288
0000941593;5.4420;-8.2121;9.2680;-3.9217;0.8208;0.4880
0000941601;5.6671;-8.8585;11.1187;-2.8928;0.8180;0.4562
0000941613;5.7988;-7.9224;12.7922;-1.8150;0.7000;0.3756
0000941621;5.7509;-6.2010;12.3517;-1.5545;0.6471;0.1831
0000941633;5.2648;-3.3375;10.0413;-1.4473;0.5100;-0.1951
0000941641;4.2784;-1.2785;9.2344;-1.4193;0.4411;-0.4056
0000941649;3.2920;-0.1437;8.5736;-1.4220;0.4795;-0.5812
0000941661;2.0255;1.2833;7.9655;-1.5320;0.5155;-0.7428
0000941669;1.3503;2.0494;8.7724;-1.6005;0.4447;-0.7626
0000941681;1.4700;2.0375;10.9918;-1.6447;0.3397;-0.6745
0000941689;2.1404;1.2498;11.7388;-1.5445;0.3323;-0.5391
0000941701;3.9361;0.8308;12.2631;-1.2372;0.3215;-0.4112
0000941709;4.9105;0.2346;12.2775;-1.0300;0.2976;-0.4069
0000941721;5.2170;-0.3304;11.3988;-0.8764;0.3074;-0.4330
0000941729;5.4420;-0.1245;10.7308;-0.9044;0.3127;-0.4612
0000941737;5.2098;-0.2777;10.2639;-1.0253;0.3389;-0.4875
0000941806;-0.8068;-2.4493;10.1394;-1.3267;-0.0191;-0.4401
0000941815;-1.0654;-3.2633;9.7181;-1.1528;-0.1284;-0.3512
0000941828;-0.2131;-4.4341;9.0405;-0.9685;-0.2374;-0.2108
0000941837;0.5315;-5.3199;8.5856;-0.8888;-0.2851;-0.1238
0000941849;1.9728;-5.7964;8.3246;-0.7950;-0.3190;-0.0171
0000941858;2.9616;-6.3351;8.2552;-0.7068;-0.3489;0.0296
0000941871;3.8906;-6.6224;8.3222;-0.5985;-0.3647;0.0658
0000941880;4.2832;-6.6487;8.2073;-0.5497;-0.3820;0.0765
0000941893;4.6280;-6.7612;8.2313;-0.5056;-0.3985;0.0934
0000941902;4.6519;-6.6248;8.2408;-0.5031;-0.4073;0.1262
0000941911;4.7333;-6.3829;8.3103;-0.5139;-0.4187;0.1604
0000941924;4.5490;-6.2441;8.3629;-0.5453;-0.3985;0.2273
0000941933;4.4772;-6.1148;8.5353;-0.5696;-0.3708;0.2597
0000941946;4.1515;-6.2800;8.5162;-0.6316;-0.3079;0.3027
0000941955;4.3551;-6.2944;8.7077;-0.6730;-0.2693;0.3295
0000941968;4.1970;-6.6822;9.0261;-0.7012;-0.2370;0.3758
0000941977;4.0486;-6.7493;9.2536;-0.6883;-0.2467;0.4106
0000941990;3.9624;-7.3358;10.0149;-0.6130;-0.2972;0.4582
0000941999;4.0007;-7.6447;10.3262;-0.5219;-0.3477;0.4755
0000942008;3.7350;-8.2935;10.6734;-0.4097;-0.3941;0.4883
0000942021;4.2114;-8.9998;11.5377;-0.1711;-0.4615;0.5008
0000942030;3.9313;-9.8641;12.1506;-0.0013;-0.4826;0.5352
0000942099;6.6655;-8.5234;10.1730;0.2591;-0.3828;0.2958
0000942108;6.8642;-8.0421;9.7827;0.2161;-0.3175;0.2892
0000942121;6.9911;-7.6543;9.1770;0.1312;-0.2032;0.2781
0000942130;6.9767;-7.6495;8.8609;0.0895;-0.1214;0.2602
0000942143;6.7229;-7.9104;8.7101;0.0810;-0.0211;0.2184
0000942152;6.5290;-8.2001;8.7412;0.0914;0.0353;0.1897
0000942161;6.3518;-8.2839;8.6143;0.1263;0.0617;0.1512
0000942174;6.2297;-8.3845;8.7173;0.1675;0.0678;0.1207
0000942183;5.9831;-8.2456;9.1195;0.1494;0.0548;0.1338
0000942196;5.6790;-7.6231;9.3757;0.1156;0.0141;0.1300
0000942205;5.6336;-7.1491;9.6175;0.0729;-0.0252;0.1051
0000942218;5.4636;-6.6702;9.7827;-0.0241;-0.0822;0.0449
0000942227;5.3893;-6.2417;9.7372;-0.0950;-0.1187;-0.0095
0000942236;5.1284;-6.2273;9.8114;-0.1585;-0.1491;-0.0437
0000942249;4.8411;-6.2153;9.7851;-0.1940;-0.1847;-0.0714
0000942258;5.0805;-6.1148;9.8330;-0.1948;-0.1990;-0.0649
0000942271;5.3582;-6.1555;9.6606;-0.1532;-0.2136;-0.0585
0000942280;5.5115;-6.1411;9.5696;-0.1170;-0.2150;-0.0561
0000942296;5.8849;-6.1938;9.4858;-0.0715;-0.1905;-0.0594
0000942305;5.8562;-6.4332;9.5960;-0.0460;-0.1649;-0.0645
0000942374;5.5713;-6.3877;9.5002;-0.0312;0.0344;-0.0309
0000942383;5.4324;-6.4117;9.4188;-0.0390;0.0562;-0.0334
0000942395;5.1092;-6.6487;9.3422;-0.0366;0.0649;-0.0442
0000942404;4.8530;-6.7804;9.4068;-0.0350;0.0596;-0.0418
0000942413;5.0087;-6.8211;9.3972;-0.0432;0.0576;-0.0238
0000942426;4.7214;-7.0198;9.5026;-0.0349;0.0356;-0.0101
0000942435;4.5274;-7.1778;9.6175;-0.0292;0.0152;0.0005
0000942447;4.6352;-7.1898;9.5624;-0.0213;-0.0109;0.0105
0000942456;4.7046;-7.1778;9.4834;-0.0121;-0.0333;0.0135
0000942469;4.9033;-7.1443;9.6774;-0.0120;-0.0650;0.0199
0000942478;4.9009;-7.0413;9.6414;-0.0124;-0.0791;0.0197
0000942490;5.2074;-7.0533;9.6917;-0.0157;-0.1070;0.0155
0000942499;5.0996;-7.2425;9.5505;-0.0176;-0.1066;0.0116
0000942508;5.4277;-7.0653;9.6199;-0.0155;-0.1222;0.0044
0000942521;5.5881;-6.9983;9.6534;-0.0113;-0.1190;-0.0008
0000942530;5.4492;-7.0677;9.5888;-0.0208;-0.1130;0.0073
0000942542;5.5378;-6.9671;9.7636;-0.0272;-0.1077;0.0044
0000942551;5.6910;-6.7349;9.6630;-0.0372;-0.0927;0.0041
0000942564;5.6048;-6.7325;9.5960;-0.0461;-0.0807;-0.0061
0000942573;5.5091;-6.7947;9.4954;-0.0462;-0.0662;-0.0031
0000942585;5.6000;-6.7397;9.5337;-0.0302;-0.0678;-0.0115
0000942594;5.5258;-6.7588;9.5433;-0.0280;-0.0580;-0.0111
0000942603;5.4564;-6.7564;9.5289;-0.0277;-0.0621;-0.0137
0000942672;5.4636;-6.6774;9.5433;-0.0269;-0.0540;-0.0336
0000942681;5.5282;-6.6750;9.5505;-0.0282;-0.0493;-0.0326
0000942693;5.4109;-6.9480;9.5433;-0.0240;-0.0482;-0.0344
0000942702;5.4348;-6.8857;9.5936;-0.0147;-0.0572;-0.0449
0000942715;5.4612;-6.8259;9.6103;-0.0224;-0.0598;-0.0432
0000942724;5.4684;-6.9312;9.5840;-0.0254;-0.0546;-0.0344
0000942736;5.3247;-6.9719;9.5816;-0.0264;-0.0589;-0.0380
0000942745;5.5138;-6.9360;9.4691;-0.0095;-0.0533;-0.0356
0000942758;5.5665;-7.0246;9.6127;-0.0116;-0.0524;-0.0305
0000942767;5.4253;-7.0437;9.4834;-0.0125;-0.0517;-0.0218
0000942776;5.4612;-6.8546;9.5912;-0.0107;-0.0481;-0.0176
0000942788;5.1595;-7.0820;9.6271;-0.0001;-0.0588;-0.0237
0000942797;5.3008;-6.9552;9.6582;-0.0111;-0.0537;-0.0207
0000942810;5.2313;-6.9480;9.6702;0.0016;-0.0572;-0.0253
0000942819;5.2457;-6.9360;9.5122;-0.0203;-0.0488;-0.0144
0000942831;5.3678;-6.8809;9.5433;-0.0353;-0.0521;-0.0071
0000942840;5.2648;-6.8809;9.5361;-0.0253;-0.0673;-0.0159
0000942853;5.4277;-6.7229;9.4786;-0.0213;-0.0613;-0.0101
0000942862;5.5952;-6.6655;9.3781;-0.0136;-0.0636;-0.0108
0000942874;5.4085;-6.7708;9.4379;-0.0096;-0.0620;-0.0051
0000942883;5.5426;-6.7516;9.4763;-0.0109;-0.0624;-0.0053
0000942892;5.5043;-6.7086;9.5265;-0.0199;-0.0586;-0.0012
0000942961;5.4492;-6.9839;9.6031;-0.0065;-0.0564;-0.0089
0000942970;5.6000;-6.9025;9.5098;-0.0121;-0.0577;-0.0069
0000942982;5.4492;-6.8785;9.5313;0.0017;-0.0626;-0.0099
0000942991;5.4444;-6.9408;9.5648;0.0021;-0.0634;-0.0171
0000943004;5.5019;-6.8977;9.5217;0.0112;-0.0645;-0.0189
0000943013;5.5952;-6.8283;9.5505;0.0011;-0.0548;-0.0133
0000943025;5.4731;-6.8666;9.5289;-0.0084;-0.0561;-0.0080
0000943034;5.4731;-6.9097;9.5720;-0.0073;-0.0541;-0.0092
0000943047;5.6096;-6.7732;9.5648;-0.0095;-0.0492;-0.0099
0000943056;5.4851;-6.8498;9.5409;-0.0159;-0.0444;-0.0083
0000943065;5.5713;-6.7995;9.4260;-0.0077;-0.0500;-0.0193
0000943077;5.4205;-6.7780;9.4834;-0.0113;-0.0490;-0.0167
0000943086;5.5306;-6.8785;9.6175;-0.0076;-0.0408;-0.0124
0000943099;5.6096;-6.7588;9.5720;-0.0200;-0.0340;-0.0056
0000943108;5.5234;-6.8929;9.5002;-0.0177;-0.0430;-0.0156
0000943120;5.4444;-6.7876;9.6127;-0.0244;-0.0378;-0.0143
0000943129;5.5809;-6.7971;9.4667;-0.0226;-0.0421;-0.0121
0000943142;5.5067;-6.9312;9.5648;-0.0220;-0.0437;-0.0163
0000943151;5.6024;-6.8211;9.4284;-0.0151;-0.0436;-0.0157
0000943160;5.4923;-6.9576;9.4763;-0.0121;-0.0449;-0.0217
0000943172;5.3774;-6.8642;9.5600;-0.0128;-0.0500;-0.0222
0000943181;5.4229;-6.8785;9.6726;-0.0024;-0.0529;-0.0221
0000943250;5.4731;-6.8307;9.5433;-0.0052;-0.0521;-0.0226
0000943259;5.5952;-6.8570;9.4954;-0.0032;-0.0484;-0.0276
0000943271;5.6336;-6.8809;9.5193;-0.0017;-0.0417;-0.0256
0000943280;5.3391;-7.0940;9.5289;-0.0063;-0.0380;-0.0195
0000943293;5.4875;-6.9145;9.5816;-0.0087;-0.0414;-0.0222
0000943302;5.5354;-6.7588;9.5098;-0.0183;-0.0389;-0.0143
0000943314;5.5186;-6.7947;9.4858;-0.0171;-0.0426;-0.0148
0000943323;5.6455;-6.7109;9.4715;-0.0185;-0.0393;-0.0107
0000943332;5.5522;-6.9839;9.4140;-0.0133;-0.0453;-0.0191
0000943345;5.4229;-6.8666;9.4882;-0.0169;-0.0394;-0.0196
0000943354;5.6048;-6.8929;9.5433;-0.0212;-0.0289;-0.0088
0000943366;5.2864;-6.9935;9.4619;-0.0218;-0.0338;-0.0168
0000943375;5.4612;-6.8546;9.5122;-0.0175;-0.0401;-0.0187
0000943388;5.4827;-6.8666;9.5600;-0.0254;-0.0348;-0.0097
0000943397;5.6671;-6.8977;9.5864;-0.0199;-0.0348;-0.0160
0000943409;5.6599;-6.7732;9.5002;-0.0176;-0.0309;-0.0128
0000943418;5.5426;-6.8594;9.5696;-0.0201;-0.0364;-0.0143
0000943431;5.3917;-6.9192;9.6055;-0.0145;-0.0353;-0.0101
0000943440;5.4636;-6.8474;9.5337;-0.0151;-0.0357;-0.0133
0000943449;5.4324;-6.9073;9.5433;-0.0033;-0.0442;-0.0165
0000943461;5.5522;-6.8618;9.4978;-0.0081;-0.0470;-0.0173
0000943470;5.5833;-6.8307;9.5912;-0.0113;-0.0353;-0.0069
0000943539;5.4684;-6.8378;9.4739;-0.0261;-0.0330;-0.0105
0000943548;5.5091;-6.8690;9.5577;-0.0226;-0.0330;-0.0085
0000943560;5.5737;-6.9145;9.5553;-0.0215;-0.0308;-0.0109
0000943569;5.6671;-6.8067;9.5337;-0.0238;-0.0305;-0.0121
0000943582;5.3415;-6.9025;9.5337;-0.0280;-0.0300;-0.0063
0000943591;5.5593;-6.9073;9.5529;-0.0309;-0.0308;-0.0095
0000943603;5.5833;-6.8283;9.4667;-0.0269;-0.0249;-0.0073
0000943612;5.4995;-6.9168;9.5457;-0.0294;-0.0272;-0.0068
0000943621;5.6647;-6.8019;9.5337;-0.0264;-0.0316;-0.0083
0000943634;5.5162;-6.9480;9.5912;-0.0298;-0.0256;-0.0072
0000943643;5.4324;-6.9097;9.5505;-0.0252;-0.0332;-0.0139
0000943655;5.4971;-6.7804;9.4978;-0.0228;-0.0368;-0.0141
0000943664;5.4636;-6.8378;9.5720;-0.0280;-0.0346;-0.0127
0000943677;5.3798;-6.9073;9.5816;-0.0304;-0.0348;-0.0056
0000943686;5.5474;-6.9887;9.5074;-0.0281;-0.0334;-0.0148
0000943698;5.5354;-6.9432;9.5624;-0.0197;-0.0301;-0.0124
0000943707;5.4827;-6.9767;9.5457;-0.0136;-0.0353;-0.0071
0000943720;5.5162;-6.9288;9.6414;-0.0135;-0.0354;-0.0013
0000943729;5.5929;-6.7540;9.5984;-0.0085;-0.0337;-0.0059
0000943738;5.4851;-6.9504;9.5792;-0.0092;-0.0325;-0.0079
0000943751;5.5450;-6.7995;9.6319;-0.0151;-0.0289;-0.0052
0000943760;5.5115;-6.9216;9.4715;-0.0105;-0.0298;-0.0044
0000943830;5.5474;-6.9145;9.4739;-0.0143;-0.0313;0.0011
0000943839;5.7174;-6.7373;9.5002;-0.0091;-0.0361;0.0041
0000943852;5.3870;-7.0318;9.5840;-0.0099;-0.0261;0.0036
0000943861;5.5426;-6.9073;9.5385;-0.0155;-0.0317;-0.0011
0000943873;5.6599;-6.8402;9.6055;-0.0220;-0.0300;-0.0009
0000943882;5.5809;-6.8498;9.6007;-0.0183;-0.0353;-0.0037
0000943891;5.6982;-6.8115;9.6630;-0.0212;-0.0308;-0.0071
0000943904;5.5426;-6.9168;9.5624;-0.0160;-0.0401;-0.0137
0000943913;5.5019;-6.8211;9.4763;-0.0119;-0.0384;-0.0097
0000943925;5.5833;-6.8905;9.4834;-0.0105;-0.0433;-0.0171
0000943934;5.7006;-6.8785;9.5337;-0.0077;-0.0382;-0.0129
0000943947;5.5761;-6.8785;9.6199;-0.0076;-0.0338;-0.0141
0000943956;5.5665;-6.8570;9.5265;-0.0101;-0.0310;-0.0152
0000943968;5.4324;-6.9240;9.5385;-0.0135;-0.0269;-0.0115
0000943977;5.4612;-6.7780;9.5098;-0.0180;-0.0249;-0.0136
0000943990;5.4324;-6.9336;9.5433;-0.0252;-0.0250;-0.0123
0000943999;5.5162;-6.8642;9.4882;-0.0221;-0.0349;-0.0199
0000944008;5.4444;-6.9767;9.5433;-0.0290;-0.0250;-0.0151
0000944020;5.5115;-6.7852;9.6151;-0.0228;-0.0238;-0.0133
0000944029;5.5138;-6.8666;9.5074;-0.0184;-0.0314;-0.0203
0000944098;5.6767;-6.8498;9.4164;-0.0195;-0.0289;-0.0075
0000944107;5.5019;-6.9695;9.5265;-0.0149;-0.0352;-0.0131
0000944119;5.5378;-6.8953;9.4691;-0.0116;-0.0392;-0.0088
0000944128;5.4612;-6.8618;9.5241;-0.0169;-0.0300;-0.0041
0000944141;5.4540;-6.8594;9.6606;-0.0139;-0.0301;-0.0047
0000944150;5.5330;-6.8785;9.5840;-0.0187;-0.0300;-0.0045
0000944162;5.4660;-6.7684;9.5888;-0.0204;-0.0344;-0.0012
0000944171;5.5450;-6.9049;9.5241;-0.0143;-0.0366;-0.0076
0000944180;5.5522;-6.9336;9.4403;-0.0036;-0.0378;-0.0113
0000944193;5.4540;-6.9528;9.5361;-0.0012;-0.0286;-0.0081
0000944202;5.6575;-6.7900;9.5553;-0.0064;-0.0258;-0.0013
0000944214;5.5761;-6.9791;9.5337;-0.0005;-0.0348;-0.0092
0000944223;5.5617;-6.9743;9.5265;-0.0035;-0.0266;-0.0040
0000944236;5.4061;-6.9767;9.4954;0.0005;-0.0353;-0.0109
0000944245;5.5258;-6.9312;9.5146;-0.0083;-0.0338;-0.0144
0000944257;5.6647;-6.7876;9.5457;-0.0136;-0.0338;-0.0088
0000944266;5.5665;-6.8354;9.6247;-0.0119;-0.0430;-0.0159
0000944279;5.6479;-6.7038;9.5481;-0.0155;-0.0397;-0.0088
0000944288;5.5617;-6.7660;9.5146;-0.0228;-0.0350;-0.0089
0000944297;5.4947;-6.9192;9.5505;-0.0133;-0.0396;-0.0191
0000944309;5.5354;-6.8833;9.5385;-0.0129;-0.0400;-0.0164
0000944318;5.3989;-6.7876;9.5026;-0.0123;-0.0308;-0.0109
0000944387;5.4875;-6.9623;9.5672;-0.0124;-0.0401;-0.0140
0000944396;5.5737;-6.7588;9.6295;-0.0141;-0.0405;-0.0191
0000944408;5.5976;-6.9935;9.6391;-0.0167;-0.0374;-0.0175
0000944417;5.4995;-6.9073;9.5912;-0.0123;-0.0433;-0.0192
0000944430;5.4492;-6.9192;9.5648;-0.0127;-0.0346;-0.0172
0000944439;5.6264;-6.9432;9.5600;-0.0079;-0.0397;-0.0221
0000944451;5.5761;-6.7804;9.5696;-0.0031;-0.0374;-0.0218
0000944460;5.4779;-6.8378;9.6007;-0.0119;-0.0280;-0.0169
0000944469;5.7054;-6.8235;9.5792;-0.0037;-0.0384;-0.0224
0000944482;5.6312;-6.7947;9.5505;-0.0063;-0.0369;-0.0213
0000944491;5.5234;-6.7804;9.5696;-0.0071;-0.0372;-0.0269
0000944503;5.4875;-6.9097;9.5600;-0.0072;-0.0393;-0.0230
0000944512;5.5019;-6.8450;9.5050;-0.0107;-0.0374;-0.0233
0000944525;5.4708;-6.9073;9.5696;-0.0125;-0.0369;-0.0270
0000944534;5.5115;-6.7325;9.5433;-0.0107;-0.0368;-0.0207
0000944546;5.5952;-6.8666;9.4164;-0.0176;-0.0373;-0.0203
0000944555;5.4684;-6.9240;9.5600;-0.0192;-0.0416;-0.0232
0000944564;5.3941;-7.0294;9.5361;-0.0172;-0.0446;-0.0218
0000944577;5.5162;-6.8690;9.5648;-0.0185;-0.0393;-0.0179
0000944586;5.5929;-6.8833;9.4691;-0.0180;-0.0400;-0.0152
0000944598;5.5569;-6.8235;9.5768;-0.0115;-0.0456;-0.0193
0000944607;5.6431;-6.8307;9.5864;-0.0199;-0.0372;-0.0135
0000944676;5.4708;-6.8905;9.4906;-0.0160;-0.0449;-0.0199
0000944685;5.6048;-6.9097;9.4355;-0.0048;-0.0454;-0.0232
0000944697;5.4995;-6.9097;9.4499;-0.0033;-0.0401;-0.0213
0000944704;5.6144;-6.7852;9.5146;-0.0052;-0.0396;-0.0189
0000944716;5.4947;-6.8450;9.5960;0.0001;-0.0501;-0.0228
0000944724;5.4612;-7.0006;9.5888;-0.0029;-0.0436;-0.0177
0000944732;5.5641;-6.9695;9.6486;-0.0021;-0.0422;-0.0212
0000944743;5.4947;-6.9360;9.5026;-0.0039;-0.0404;-0.0189
0000944751;5.7030;-6.8426;9.6367;-0.0127;-0.0342;-0.0139
0000944763;5.4444;-6.9552;9.6798;-0.0099;-0.0412;-0.0149
0000944771;5.5474;-6.8354;9.6582;-0.0221;-0.0369;-0.0079
0000944782;5.6360;-6.7612;9.5337;-0.0233;-0.0430;-0.0129
0000944790;5.5426;-6.8570;9.5720;-0.0264;-0.0418;-0.0133
0000944802;5.5498;-6.8522;9.4379;-0.0180;-0.0448;-0.0152
0000944810;5.4803;-6.9504;9.4571;-0.0195;-0.0365;-0.0111
0000944821;5.5474;-6.8402;9.5002;-0.0113;-0.0382;-0.0096
0000944829;5.8107;-6.7086;9.5720;-0.0127;-0.0364;-0.0085
