time;acc_x;acc_y;acc_z;gyro_x;gyro_y;gyro_z
0000049503;6.3470;1.9920;3.8116;-0.0492;-0.0485;-0.0120
0000049511;6.5434;2.1069;3.7709;-0.0430;-0.0532;-0.0184
0000049518;6.5194;2.0183;3.7134;-0.0404;-0.0520;-0.0205
0000049526;6.5386;2.0039;3.6943;-0.0410;-0.0450;-0.0156
0000049535;6.5170;1.9776;3.6296;-0.0340;-0.0493;-0.0191
0000049543;6.4572;1.9249;3.7350;-0.0376;-0.0458;-0.0137
0000049555;6.4596;1.9920;3.7804;-0.0352;-0.0461;-0.0144
0000049563;6.6272;1.9752;3.7541;-0.0409;-0.0462;-0.0181
0000049571;6.4189;1.9944;3.7589;-0.0378;-0.0416;-0.0169
0000049582;6.6511;2.1668;3.6272;-0.0442;-0.0421;-0.0141
0000049590;6.6918;2.1428;3.6990;-0.0430;-0.0425;-0.0147
0000049602;6.5553;2.0997;3.7781;-0.0421;-0.0465;-0.0212
0000049610;6.6128;2.1141;3.7613;-0.0397;-0.0510;-0.0200
0000049621;6.5242;2.0710;3.7900;-0.0450;-0.0508;-0.0208
0000049629;6.6511;1.9848;3.7613;-0.0458;-0.0489;-0.0230
0000049641;6.6966;2.0782;3.8092;-0.0484;-0.0432;-0.0175
0000049649;6.5697;2.0662;3.8427;-0.0422;-0.0460;-0.0172
0000049657;6.6056;2.1620;3.8355;-0.0346;-0.0478;-0.0208
0000049720;6.4165;1.8866;3.8355;-0.0393;-0.0405;-0.0172
0000049728;6.4787;2.0375;3.7397;-0.0385;-0.0452;-0.0201
0000049740;6.5362;2.1524;3.7278;-0.0513;-0.0464;-0.0133
0000049748;6.3782;1.9968;3.8930;-0.0489;-0.0485;-0.0137
0000049759;6.7756;2.2290;3.8499;-0.0460;-0.0457;-0.0111
0000049767;6.4715;1.9465;3.7373;-0.0366;-0.0505;-0.0148
0000049779;6.5386;1.9369;3.9025;-0.0258;-0.0444;-0.0107
0000049787;6.7708;2.0830;3.7469;-0.0241;-0.0442;-0.0116
0000049795;6.5912;1.9800;3.6966;-0.0216;-0.0400;-0.0111
0000049806;6.5697;2.1237;3.7421;-0.0236;-0.0449;-0.0140
0000049814;6.6822;2.2170;3.7326;-0.0296;-0.0417;-0.0141
0000049826;6.4811;2.0638;3.8068;-0.0389;-0.0450;-0.0124
0000049834;6.7205;2.1404;3.7278;-0.0336;-0.0448;-0.0133
0000049845;6.7253;2.0877;3.8164;-0.0314;-0.0490;-0.0181
0000049853;6.6487;1.9585;3.8188;-0.0314;-0.0405;-0.0103
0000049865;6.6583;2.0159;3.8092;-0.0196;-0.0482;-0.0133
0000049873;6.6655;2.0973;3.7613;-0.0212;-0.0429;-0.0121
0000049881;6.4883;2.0446;3.8403;-0.0187;-0.0404;-0.0093
0000049892;6.4524;2.0830;3.8092;-0.0156;-0.0365;-0.0073
0000049900;6.5457;2.1045;3.8427;-0.0237;-0.0400;-0.0108
0000049912;6.4356;1.8962;3.7828;-0.0189;-0.0389;-0.0129
0000049920;6.5601;2.0183;3.7254;-0.0136;-0.0452;-0.0116
0000049983;6.5553;1.8699;3.7876;-0.0088;-0.0440;-0.0096
0000049991;6.6966;2.1141;3.8523;-0.0132;-0.0372;-0.0092
0000050003;6.5266;2.0686;3.8235;-0.0077;-0.0402;-0.0155
0000050011;6.4332;1.9920;3.7733;-0.0063;-0.0389;-0.0113
0000050019;6.6032;2.0135;3.8690;-0.0072;-0.0336;-0.0093
0000050030;6.6942;2.1907;3.8307;-0.0023;-0.0366;-0.0069
0000050038;6.4572;2.0518;3.7757;-0.0025;-0.0424;-0.0105
0000050050;6.4212;1.9896;3.8188;-0.0028;-0.0357;-0.0072
0000050058;6.6511;2.2505;3.8259;-0.0085;-0.0300;-0.0049
0000050069;6.6702;2.1500;3.8499;-0.0017;-0.0405;-0.0105
0000050077;6.4883;1.9728;3.8930;-0.0063;-0.0328;-0.0031
0000050089;6.5074;1.9106;3.7661;0.0073;-0.0365;-0.0099
0000050097;6.5003;1.9537;3.7781;-0.0019;-0.0325;-0.0067
0000050105;6.6367;2.1165;3.8092;-0.0009;-0.0317;-0.0041
0000050116;6.6008;1.9609;3.7804;-0.0061;-0.0361;-0.0039
0000050124;6.3662;2.0111;3.7637;-0.0055;-0.0405;-0.0071
0000050136;6.5338;1.9968;3.7996;-0.0112;-0.0456;-0.0135
0000050144;6.5721;2.0159;3.7254;-0.0115;-0.0440;-0.0107
0000050155;6.6367;1.9968;3.8355;-0.0171;-0.0382;-0.0125
0000050163;6.5697;1.9537;3.6990;-0.0165;-0.0402;-0.0104
0000050175;6.6487;1.9824;3.8283;-0.0151;-0.0386;-0.0093
0000050183;6.4452;1.9465;3.8882;-0.0132;-0.0369;-0.0141
0000050191;6.7828;2.0327;3.8331;-0.0027;-0.0413;-0.0169
0000050254;6.6679;2.1045;3.8762;-0.0015;-0.0326;-0.0133
0000050262;6.6224;2.0375;3.7709;-0.0056;-0.0320;-0.0124
0000050274;6.5697;2.1524;3.7373;-0.0184;-0.0361;-0.0109
0000050282;6.3949;1.9728;3.8188;-0.0230;-0.0296;-0.0112
0000050293;6.4979;1.9920;3.8283;-0.0145;-0.0385;-0.0109
0000050301;6.3135;1.9585;3.8092;-0.0085;-0.0334;-0.0087
0000050313;6.6104;2.0063;3.8523;0.0055;-0.0381;-0.0060
0000050321;6.5793;1.9896;3.7637;0.0148;-0.0392;-0.0155
0000050329;6.4739;1.8507;3.7589;0.0226;-0.0394;-0.0141
0000050340;6.6415;2.1332;3.7565;0.0181;-0.0294;-0.0041
0000050348;6.6056;2.2458;3.8068;0.0111;-0.0325;-0.0079
0000050360;6.6391;2.1883;3.6464;0.0028;-0.0268;-0.0061
0000050368;6.4500;2.0662;3.7397;0.0001;-0.0298;-0.0072
0000050379;6.5027;2.0901;3.8068;-0.0015;-0.0256;-0.0035
0000050387;6.6679;2.0255;3.7924;0.0089;-0.0286;-0.0039
0000050399;6.5721;1.9082;3.7182;0.0037;-0.0333;-0.0131
0000050407;6.5314;2.1093;3.8044;0.0083;-0.0370;-0.0151
0000050415;6.4883;1.9632;3.7182;0.0075;-0.0325;-0.0109
0000050426;6.7038;2.1859;3.7278;0.0095;-0.0400;-0.0181
0000050434;6.4500;2.0231;3.7517;0.0117;-0.0384;-0.0137
0000050446;6.5314;2.0566;3.7373;0.0007;-0.0381;-0.0153
0000050454;6.4787;2.1069;3.7230;0.0048;-0.0429;-0.0228
0000050517;6.5218;1.9465;3.7637;-0.0100;-0.0412;-0.0105
0000050525;6.5338;1.9225;3.7278;-0.0108;-0.0337;-0.0077
0000050533;6.5721;2.0016;3.8211;-0.0092;-0.0352;-0.0100
0000050545;6.5912;2.0087;3.8427;-0.0108;-0.0366;-0.0099
0000050553;6.6870;2.1069;3.8475;-0.0116;-0.0354;-0.0089
0000050564;6.5888;2.0303;3.7613;-0.0052;-0.0397;-0.0133
0000050572;6.5912;2.1404;3.7661;-0.0119;-0.0340;-0.0088
0000050584;6.5170;2.0375;3.7326;-0.0076;-0.0417;-0.0124
0000050592;6.6439;2.1021;3.8211;-0.0133;-0.0369;-0.0113
0000050603;6.6200;1.9489;3.6895;-0.0077;-0.0420;-0.0188
0000050611;6.6248;2.0590;3.7350;-0.0091;-0.0373;-0.0161
0000050619;6.6200;2.0686;3.8020;-0.0116;-0.0372;-0.0113
0000050631;6.5314;1.9968;3.7781;-0.0033;-0.0413;-0.0148
0000050639;6.5601;2.0255;3.7493;-0.0020;-0.0425;-0.0164
0000050650;6.6679;2.0518;3.7326;0.0036;-0.0409;-0.0185
0000050658;6.6487;2.0734;3.8044;0.0001;-0.0380;-0.0161
0000050670;6.6295;2.1572;3.7709;-0.0053;-0.0369;-0.0175
0000050678;6.6679;2.0351;3.6847;-0.0064;-0.0330;-0.0135
0000050689;6.6319;2.1596;3.7661;-0.0100;-0.0336;-0.0136
0000050697;6.7421;2.1668;3.6727;-0.0129;-0.0364;-0.0141
0000050705;6.6487;2.0901;3.6631;-0.0111;-0.0433;-0.0164
0000050717;6.5457;2.0470;3.7709;-0.0081;-0.0388;-0.0187
0000050725;6.5936;1.9824;3.7589;-0.0125;-0.0308;-0.0137
0000050788;6.5960;2.2146;3.7445;-0.0013;-0.0425;-0.0176
0000050796;6.5170;2.2553;3.6966;-0.0073;-0.0384;-0.0139
0000050808;6.5314;2.1141;3.6943;-0.0233;-0.0366;-0.0161
0000050816;6.6224;2.1500;3.7134;-0.0152;-0.0433;-0.0179
0000050827;6.4979;2.0494;3.7924;-0.0207;-0.0365;-0.0156
0000050835;6.3710;1.8483;3.7206;-0.0121;-0.0382;-0.0159
0000050843;6.4859;1.9656;3.7804;-0.0116;-0.0416;-0.0181
0000050855;6.5721;2.1404;3.7996;-0.0131;-0.0385;-0.0159
0000050863;6.7253;2.1572;3.7086;-0.0127;-0.0416;-0.0159
0000050875;6.5386;2.0375;3.7206;-0.0189;-0.0397;-0.0151
0000050883;6.7756;2.1955;3.7230;-0.0165;-0.0429;-0.0224
0000050894;6.5410;2.2003;3.6966;-0.0260;-0.0448;-0.0179
0000050902;6.6702;2.1093;3.6679;-0.0226;-0.0500;-0.0256
0000050914;6.6750;2.0997;3.7326;-0.0278;-0.0457;-0.0180
0000050922;6.6679;2.0853;3.7757;-0.0242;-0.0513;-0.0203
0000050930;6.5290;1.9345;3.6679;-0.0240;-0.0485;-0.0192
0000050941;6.7564;2.0973;3.7110;-0.0270;-0.0384;-0.0172
0000050949;6.5529;2.1021;3.6871;-0.0236;-0.0442;-0.0228
0000050961;6.6583;2.0925;3.7757;-0.0288;-0.0461;-0.0248
0000050969;6.7708;2.1979;3.7661;-0.0245;-0.0465;-0.0173
0000051032;6.5290;2.1045;3.8164;-0.0429;-0.0382;-0.0144
0000051040;6.6631;2.1261;3.7589;-0.0425;-0.0402;-0.0140
0000051052;6.4835;1.9680;3.7972;-0.0393;-0.0393;-0.0140
0000051060;6.5050;1.8938;3.7852;-0.0380;-0.0393;-0.0140
0000051068;6.4883;2.0638;3.8882;-0.0329;-0.0452;-0.0139
0000051079;6.5793;2.2146;3.8858;-0.0313;-0.0424;-0.0207
0000051087;6.5817;2.0997;3.7493;-0.0276;-0.0442;-0.0215
0000051099;6.6080;2.0039;3.7565;-0.0276;-0.0450;-0.0203
0000051107;6.5074;1.9872;3.8044;-0.0282;-0.0472;-0.0241
0000051118;6.6942;2.1524;3.8283;-0.0286;-0.0520;-0.0224
0000051126;6.5697;1.9800;3.7996;-0.0241;-0.0466;-0.0191
0000051138;6.4332;1.8675;3.7852;-0.0265;-0.0496;-0.0212
0000051146;6.5601;2.0638;3.7948;-0.0269;-0.0481;-0.0151
0000051157;6.5290;2.0303;3.8331;-0.0278;-0.0453;-0.0188
0000051165;6.7038;2.0470;3.7541;-0.0304;-0.0438;-0.0120
0000051173;6.5290;1.9321;3.7541;-0.0257;-0.0445;-0.0145
0000051185;6.6487;2.1811;3.7804;-0.0245;-0.0384;-0.0103
0000051193;6.5817;2.0303;3.7397;-0.0268;-0.0417;-0.0132
0000051204;6.8187;2.2553;3.7254;-0.0266;-0.0426;-0.0139
0000051212;6.7038;2.1189;3.7517;-0.0357;-0.0408;-0.0152
0000051224;6.6248;2.1021;3.7326;-0.0316;-0.0469;-0.0171
0000051232;6.6272;2.0279;3.7781;-0.0385;-0.0386;-0.0149
0000051295;6.5888;2.0758;3.7781;-0.0215;-0.0433;-0.0204
0000051303;6.5888;2.0351;3.7637;-0.0280;-0.0422;-0.0136
0000051311;6.7780;2.0614;3.7278;-0.0361;-0.0366;-0.0121
0000051323;6.6774;2.1524;3.7421;-0.0397;-0.0417;-0.0185
0000051331;6.6056;2.0087;3.7493;-0.0430;-0.0386;-0.0165
0000051342;6.5601;2.0686;3.8068;-0.0492;-0.0472;-0.0173
0000051350;6.4787;2.0327;3.8283;-0.0450;-0.0448;-0.0128
0000051362;6.5170;1.9034;3.9409;-0.0384;-0.0452;-0.0135
0000051370;6.3877;1.8962;3.8595;-0.0290;-0.0456;-0.0161
0000051381;6.4548;1.9249;3.8547;-0.0161;-0.0416;-0.0177
0000051389;6.6367;2.0542;3.8523;-0.0195;-0.0386;-0.0128
0000051397;6.6966;2.0782;3.7852;-0.0155;-0.0394;-0.0199
0000051409;6.5601;2.0758;3.6919;-0.0244;-0.0413;-0.0188
0000051417;6.5673;2.0614;3.7828;-0.0338;-0.0382;-0.0173
0000051428;6.4811;1.9561;3.7038;-0.0340;-0.0394;-0.0168
0000051436;6.6559;1.9704;3.8379;-0.0401;-0.0380;-0.0128
0000051448;6.5194;1.9249;3.8475;-0.0308;-0.0464;-0.0207
0000051456;6.5673;1.9417;3.8571;-0.0282;-0.0402;-0.0173
0000051467;6.6583;1.9537;3.8068;-0.0230;-0.0437;-0.0151
0000051475;6.7756;2.0853;3.8379;-0.0218;-0.0416;-0.0169
0000051483;6.7181;2.1261;3.9193;-0.0262;-0.0368;-0.0179
0000051495;6.8426;2.1308;3.9121;-0.0226;-0.0358;-0.0163
0000051503;6.6032;2.0039;3.8786;-0.0240;-0.0348;-0.0155
0000051566;6.4667;1.9225;3.8355;-0.0252;-0.0313;-0.0135
0000051574;6.4356;1.9609;3.9528;-0.0260;-0.0325;-0.0141
0000051586;6.2896;1.9609;3.8978;-0.0220;-0.0344;-0.0161
0000051594;6.5098;1.9393;3.8307;-0.0249;-0.0318;-0.0111
0000051605;6.6080;2.0638;3.8595;-0.0159;-0.0382;-0.0191
0000051613;6.3135;1.8699;3.8499;-0.0192;-0.0337;-0.0176
0000051621;6.5745;2.1261;3.8642;-0.0135;-0.0372;-0.0226
0000051633;6.4476;1.9441;3.8379;-0.0164;-0.0342;-0.0181
0000051641;6.3805;1.9632;3.8235;-0.0129;-0.0390;-0.0196
0000051652;6.6535;2.0614;3.7876;-0.0164;-0.0346;-0.0147
0000051660;6.4524;2.0279;3.7445;-0.0144;-0.0364;-0.0112
0000051672;6.6655;2.1596;3.8044;-0.0175;-0.0306;-0.0111
0000051680;6.7612;2.1883;3.7804;-0.0152;-0.0366;-0.0121
0000051691;6.7014;2.1045;3.8714;-0.0189;-0.0370;-0.0121
0000051699;6.5074;2.0087;3.7685;-0.0229;-0.0334;-0.0128
0000051707;6.6152;2.0159;3.8571;-0.0173;-0.0334;-0.0187
0000051719;6.5936;1.9106;3.8523;-0.0201;-0.0374;-0.0171
0000051727;6.5266;2.0375;3.7709;-0.0229;-0.0396;-0.0165
0000051738;6.6343;2.0734;3.7996;-0.0228;-0.0396;-0.0211
0000051746;6.6439;1.9800;3.7804;-0.0236;-0.0413;-0.0199
0000051758;6.5362;1.8747;3.7996;-0.0212;-0.0394;-0.0180
0000051766;6.5529;2.0255;3.7900;-0.0276;-0.0401;-0.0179
0000051833;6.6702;2.0470;3.7709;-0.0147;-0.0326;-0.0105
0000051841;6.6104;2.0901;3.7613;-0.0228;-0.0254;-0.0111
0000051849;6.6152;1.9752;3.7900;-0.0298;-0.0246;-0.0152
0000051861;6.7253;2.1428;3.8834;-0.0417;-0.0199;-0.0128
0000051869;6.4021;2.0399;3.8116;-0.0465;-0.0280;-0.0156
0000051880;6.4212;1.9752;3.8595;-0.0460;-0.0213;-0.0072
0000051888;6.4643;1.8651;3.9504;-0.0376;-0.0245;-0.0080
0000051900;6.5266;1.9704;3.9648;-0.0175;-0.0366;-0.0121
0000051908;6.6798;1.9824;3.9672;-0.0111;-0.0352;-0.0111
0000051919;6.6607;1.9489;3.9289;-0.0096;-0.0321;-0.0123
0000051927;6.7062;2.0375;3.8235;-0.0049;-0.0350;-0.0168
0000051935;6.5745;1.9728;3.8786;-0.0133;-0.0292;-0.0119
0000051947;6.6391;2.0973;3.8211;-0.0266;-0.0322;-0.0113
0000051955;6.4907;1.9776;3.6751;-0.0352;-0.0294;-0.0096
0000051966;6.5410;1.8914;3.8188;-0.0357;-0.0360;-0.0089
0000051974;6.4500;1.8962;3.8738;-0.0332;-0.0330;-0.0109
0000051986;6.5027;1.9704;3.9193;-0.0317;-0.0362;-0.0156
0000051994;6.7516;2.0518;3.6990;-0.0325;-0.0298;-0.0149
0000052005;6.6272;2.1237;3.7469;-0.0440;-0.0071;-0.0163
0000052013;6.5386;2.2194;3.9361;-0.0580;-0.0052;-0.0260
0000052021;6.6415;2.4229;3.9049;-0.0738;-0.0003;-0.0189
0000052033;6.6176;2.3631;3.9337;-0.0815;-0.0051;-0.0121
0000052041;6.6152;2.1739;3.9480;-0.0805;-0.0120;-0.0117
0000052109;6.5122;2.0231;3.7445;-0.0995;-0.0556;0.0092
0000052117;6.6200;2.1069;3.7900;-0.0955;-0.0501;0.0083
0000052130;6.7325;2.0949;3.7565;-0.0846;-0.0496;0.0001
0000052137;6.5745;2.0470;3.8403;-0.0802;-0.0461;-0.0016
0000052148;6.5745;1.9561;3.8259;-0.0755;-0.0354;0.0031
0000052156;6.4404;1.8842;3.7637;-0.0674;-0.0314;-0.0005
0000052164;6.7038;2.0375;3.7733;-0.0698;-0.0365;-0.0013
0000052176;6.5290;2.0901;3.5386;-0.0726;-0.0329;0.0025
0000052184;6.7301;2.3750;3.5889;-0.0994;-0.0175;0.0136
0000052195;6.5888;2.4253;3.7230;-0.1528;-0.0133;0.0157
0000052203;6.4620;2.6001;3.8858;-0.1985;-0.0093;0.0199
0000052215;6.5457;2.5379;4.0749;-0.2538;-0.0132;0.0286
0000052223;6.2824;2.0997;4.1132;-0.2691;-0.0068;0.0325
0000052235;6.3853;1.8340;4.0701;-0.2675;-0.0073;0.0290
0000052243;6.5625;1.8747;4.0294;-0.2734;-0.0001;0.0242
0000052251;6.5410;1.9561;4.0031;-0.2821;-0.0021;0.0200
0000052262;6.5194;2.1213;4.0869;-0.3305;0.0025;0.0201
0000052270;6.6774;2.3320;4.0462;-0.3640;-0.0061;0.0128
0000052282;6.3901;2.4565;4.0247;-0.4207;-0.0217;0.0144
0000052290;6.3829;2.2529;4.0558;-0.4479;-0.0305;0.0140
0000052302;6.5697;2.2266;4.1444;-0.4876;-0.0361;0.0172
0000052310;6.5505;2.1165;4.1348;-0.5144;-0.0380;0.0200
0000052318;6.3542;1.8842;4.1348;-0.5279;-0.0437;0.0217
0000052386;6.7205;1.9345;4.0223;-0.6150;-0.0185;0.0358
0000052394;6.8570;1.9513;3.9648;-0.6222;-0.0153;0.0369
0000052405;6.7181;2.0087;4.2210;-0.6277;-0.0173;0.0510
0000052413;6.5266;2.0375;4.3287;-0.6338;-0.0185;0.0552
0000052425;6.5242;1.9632;4.5107;-0.6364;-0.0289;0.0670
0000052433;6.3470;2.0782;4.3958;-0.6402;-0.0330;0.0652
0000052441;6.5338;1.8531;4.4125;-0.6510;-0.0390;0.0612
0000052452;6.4811;1.7741;4.5514;-0.6632;-0.0448;0.0545
0000052460;6.5769;1.8124;4.5274;-0.6757;-0.0477;0.0578
0000052472;6.5912;1.9154;4.4963;-0.7043;-0.0509;0.0482
0000052480;6.6679;1.8986;4.4915;-0.7333;-0.0385;0.0548
0000052491;6.5146;1.9273;4.7094;-0.7867;-0.0398;0.0433
0000052499;6.5242;1.9489;4.7501;-0.8284;-0.0404;0.0469
0000052511;6.2441;1.9896;4.8315;-0.9060;-0.0521;0.0480
0000052519;6.5721;2.1069;4.7740;-0.9593;-0.0592;0.0496
0000052527;6.3805;1.9010;4.7046;-1.0098;-0.0706;0.0461
0000052538;6.3183;1.9728;4.9297;-1.0829;-0.0771;0.0309
0000052546;6.5218;1.9393;5.0398;-1.1383;-0.0902;0.0200
0000052558;6.4500;1.7741;4.9560;-1.2357;-0.1091;0.0192
0000052566;6.5218;1.7980;4.8530;-1.2963;-0.1336;0.0145
0000052578;6.6511;1.7119;5.0973;-1.3920;-0.1752;0.0105
0000052586;6.6224;1.5778;4.9608;-1.4565;-0.1883;0.0216
0000052594;6.7205;1.5993;4.8890;-1.5151;-0.2112;0.0245
0000052662;7.0509;0.9936;5.2074;-1.9733;-0.1508;0.0851
0000052670;7.2281;1.0870;5.4181;-2.0247;-0.1275;0.1031
0000052681;7.0844;1.0056;5.4875;-2.0988;-0.0873;0.1286
0000052689;7.2640;1.1827;5.4444;-2.1508;-0.0673;0.1454
0000052701;7.0916;1.1851;5.3463;-2.2235;-0.0400;0.1792
0000052709;6.9983;1.0391;5.3582;-2.2719;-0.0240;0.1917
0000052720;6.8618;1.0080;5.4731;-2.3518;-0.0109;0.2094
0000052728;6.6535;0.9816;5.6599;-2.4276;-0.0172;0.2097
0000052736;6.5745;0.9481;5.7413;-2.5046;-0.0276;0.2046
0000052748;6.4260;0.6943;5.7748;-2.6048;-0.0648;0.1813
0000052756;6.5745;0.7039;5.8275;-2.6629;-0.0655;0.1697
0000052767;6.6248;0.3519;5.9687;-2.7159;-0.0658;0.1480
0000052775;6.6990;0.0024;6.1076;-2.7479;-0.0745;0.1419
0000052787;7.1611;-0.1269;6.4787;-2.8166;-0.0746;0.1419
0000052795;7.2616;-0.6728;6.5793;-2.8747;-0.0731;0.1440
0000052806;7.5298;-1.0271;6.9408;-2.9044;-0.0377;0.1467
0000052814;7.5992;-1.0894;6.9815;-2.8906;0.0013;0.1490
0000052822;7.5298;-1.2665;6.9623;-2.8469;0.0257;0.1532
0000052834;7.0102;-1.2354;8.0230;-2.8297;0.0131;0.1563
0000052842;6.6750;-1.0606;8.3749;-2.8368;-0.0068;0.1668
0000052854;6.5050;-1.0918;8.6072;-2.9423;-0.0356;0.1725
0000052862;6.2489;-1.5275;8.8370;-2.9929;-0.0685;0.1701
0000052930;6.8091;-7.6375;7.8626;-2.5317;0.2749;0.2193
0000052938;5.8562;-7.8434;8.2456;-2.3943;0.2342;0.1302
0000052946;4.7429;-7.4771;8.3103;-2.2362;0.1745;0.0464
0000052957;4.0366;-7.3215;8.0661;-2.0719;0.0978;-0.0405
0000052965;3.9145;-7.2664;8.0493;-1.9502;0.0334;-0.0725
0000052977;5.1284;-6.8402;7.7812;-1.7764;-0.0188;-0.0795
0000052985;5.6192;-7.0629;8.0565;-1.6675;-0.0320;-0.0853
0000052996;6.8331;-7.3430;8.1523;-1.5232;-0.0517;-0.0741
0000053004;7.6303;-7.3047;8.1068;-1.3815;-0.0613;-0.0566
0000053016;7.6543;-6.8929;8.4420;-1.2057;-0.0946;-0.0232
0000053024;7.3143;-6.3734;8.5473;-1.1142;-0.1143;-0.0109
0000053035;5.9544;-5.4636;8.8921;-1.0641;-0.1553;0.0015
0000053043;5.0901;-5.1451;8.9854;-1.0713;-0.1879;0.0147
0000053051;4.6902;-4.9632;8.9735;-1.0973;-0.2336;0.0179
0000053063;4.9823;-4.9488;9.0118;-1.1682;-0.3058;0.0189
0000053071;5.3463;-5.0374;9.1889;-1.2197;-0.3484;0.0108
0000053082;6.0262;-5.3486;9.3901;-1.2834;-0.4050;-0.0088
0000053090;6.4739;-5.8921;9.1746;-1.3093;-0.4133;-0.0109
0000053102;6.6535;-6.4212;9.2703;-1.3327;-0.4186;-0.0352
0000053110;6.6128;-6.4548;9.2608;-1.3431;-0.3945;-0.0434
0000053122;6.1986;-6.6224;9.4882;-1.3515;-0.3636;-0.0834
0000053130;5.9640;-6.6583;9.3637;-1.3539;-0.3532;-0.0903
0000053138;6.2632;-6.4596;9.0190;-1.3640;-0.3227;-0.1009
0000053206;7.5561;-6.7636;8.4635;-1.5567;0.0469;-0.0008
0000053214;7.2257;-6.8450;8.1618;-1.5695;0.0927;0.0212
0000053225;6.6774;-6.6894;8.1570;-1.6141;0.1458;0.0763
0000053233;6.1172;-6.5673;8.1163;-1.6437;0.1355;0.1184
0000053245;4.7788;-6.3470;7.8578;-1.6923;0.0541;0.2014
0000053253;4.2377;-5.9328;7.6088;-1.7303;-0.0193;0.2731
0000053264;3.2609;-5.7700;7.4508;-1.7642;-0.1537;0.3268
0000053272;3.0789;-5.6503;7.5369;-1.7900;-0.2054;0.3424
0000053280;2.7007;-5.8371;7.5968;-1.8211;-0.2862;0.3387
0000053292;3.0143;-6.1459;6.7924;-1.8459;-0.4579;0.3058
0000053300;2.9113;-6.4955;6.6750;-1.8222;-0.5556;0.2798
0000053311;2.8970;-6.8785;6.2417;-1.7976;-0.7069;0.1771
0000053319;2.7940;-7.3741;6.3566;-1.7805;-0.7565;0.1067
0000053331;2.9712;-8.2097;5.6336;-1.6900;-0.8743;-0.0349
0000053339;2.9473;-8.8897;4.8435;-1.6125;-0.9808;-0.1399
0000053350;2.9568;-9.5912;3.9025;-1.5008;-1.1610;-0.3095
0000053358;2.7414;-10.3310;3.3662;-1.4194;-1.3013;-0.4315
0000053370;1.7621;-11.5065;2.8730;-1.2589;-1.5382;-0.5973
0000053378;1.0582;-12.3134;2.4062;-1.1446;-1.7015;-0.6728
0000053386;0.3926;-13.0364;1.8244;-1.0267;-1.8670;-0.7309
0000053398;0.5411;-14.3820;1.5754;-0.8660;-2.1489;-0.7722
0000053406;1.2665;-15.0595;2.2170;-0.7380;-2.2946;-0.7874
0000053474;29.3769;-27.2939;10.1682;-0.5909;-2.0699;-0.7188
0000053482;25.8502;-28.0193;8.9088;-0.4982;-2.1160;-0.7694
0000053493;16.7331;-28.3569;7.4196;-0.0100;-2.1927;-0.6023
0000053501;10.3717;-27.7751;6.5577;0.4608;-2.4054;-0.4357
0000053513;3.0742;-23.1591;5.4396;1.3254;-2.9411;-0.6274
0000053521;0.4118;-20.2262;3.1364;1.6094;-3.2612;-1.1072
0000053532;0.3567;-17.4106;0.4764;1.6595;-3.5719;-2.0821
0000053540;0.8475;-16.2973;-1.0702;1.7812;-3.7848;-2.7388
0000053552;2.7031;-15.3420;-2.3487;2.1285;-4.0369;-3.4296
0000053560;4.0127;-14.5113;-2.8467;2.3614;-4.1078;-3.6484
0000053568;6.0597;-13.5248;-3.5961;2.5369;-4.0636;-3.7455
0000053580;9.0094;-11.2958;-3.7733;2.7775;-3.7431;-3.7537
0000053588;10.8553;-9.6295;-3.8283;2.8807;-3.4159;-3.7036
0000053600;12.2823;-7.6806;-2.4469;2.9704;-2.9400;-3.6099
0000053608;12.5720;-6.4476;-2.3296;2.9543;-2.5933;-3.4844
0000053620;12.3349;-4.5394;-2.5570;2.8297;-2.1063;-3.1532
0000053628;12.0716;-3.7613;-1.8818;2.7279;-1.8558;-2.8603
0000053640;11.9566;-3.0406;-1.1588;2.4826;-1.5152;-2.3984
0000053648;12.3708;-2.8467;-1.2785;2.2632;-1.3051;-2.1969
0000053660;12.4211;-4.0989;0.0024;1.8820;-1.0315;-2.1221
0000053668;12.8281;-5.0901;0.5052;1.6180;-0.8743;-2.1762
0000053676;13.2639;-6.3710;1.0606;1.3606;-0.7787;-2.2697
0000053744;17.9278;-8.2959;2.2098;1.1720;-2.4543;-2.1092
0000053752;21.6101;-7.3263;2.5211;1.1863;-2.5530;-1.9793
0000053764;30.9067;-5.9089;3.5075;0.9238;-2.6915;-1.4929
0000053772;39.4852;-4.0989;3.4524;0.5013;-2.5967;-0.8247
0000053783;44.7309;-2.6240;5.6671;-0.0368;-1.7790;0.2174
0000053791;42.6886;-1.7813;5.6192;-0.3114;-1.0241;0.6554
0000053803;32.0799;-2.3272;2.2817;-0.7834;-0.0971;0.9750
0000053811;26.6906;-4.2018;0.8092;-1.0376;0.1423;1.1401
0000053822;23.1328;-5.8586;0.1987;-1.1495;0.2631;1.1582
0000053830;21.5382;-6.5505;-0.6776;-1.1327;0.2855;0.9936
0000053838;20.1568;-6.7469;-1.2713;-1.1413;0.2659;0.7494
0000053850;17.5064;-7.2425;-1.4126;-1.1850;0.2118;0.3172
0000053858;15.7347;-7.6160;-1.3671;-1.2359;0.1446;0.0644
0000053869;13.8720;-7.7093;-1.5083;-1.3097;0.0456;-0.2113
0000053877;12.7826;-7.9823;-1.2570;-1.3395;-0.0505;-0.3698
0000053889;12.0237;-7.9583;-1.1612;-1.3363;-0.1960;-0.5931
0000053897;11.7076;-7.9942;-0.9912;-1.3130;-0.2898;-0.7394
0000053908;11.1642;-7.9655;-0.9026;-1.3041;-0.3997;-0.9349
0000053916;10.6039;-8.1068;-0.9074;-1.2927;-0.4874;-1.0933
0000053928;10.6470;-8.1307;-0.4573;-1.2462;-0.5895;-1.2957
0000053936;10.5752;-8.0828;-0.1413;-1.1738;-0.6443;-1.4043
0000054004;18.3013;-4.1731;3.7781;-0.4670;-0.8627;-1.2317
0000054012;20.1520;-3.5123;4.0079;-0.4968;-0.8480;-1.1028
0000054020;21.6196;-3.4213;3.9816;-0.5460;-0.7985;-0.9683
0000054032;23.0825;-4.0749;3.5530;-0.6580;-0.6580;-0.6817
0000054040;23.2214;-4.8459;2.9544;-0.6939;-0.5104;-0.4233
0000054052;22.1344;-5.9592;2.5594;-0.5813;-0.2222;0.0261
0000054060;20.9876;-6.2752;2.1835;-0.3989;0.0035;0.2920
0000054072;19.0531;-6.0861;1.4988;-0.1259;0.2919;0.5744
0000054080;18.2989;-5.3846;0.7901;-0.0160;0.4210;0.6735
0000054092;16.7115;-5.0182;0.4764;0.0264;0.5412;0.6892
0000054100;15.7969;-4.9009;0.4669;0.0429;0.5525;0.6339
0000054112;14.3101;-4.6759;0.4645;0.0529;0.4843;0.4952
0000054120;13.3740;-4.5921;0.5100;0.0642;0.3993;0.3789
0000054128;13.1370;-4.5083;0.6273;0.0837;0.3007;0.2647
0000054139;12.9838;-4.6448;0.9361;0.1104;0.1637;0.1128
0000054147;13.5129;-4.5442;1.1779;0.1280;0.0779;0.0143
0000054159;14.4634;-4.6543;1.5730;0.1593;-0.0121;-0.0991
0000054167;15.1864;-4.7525;1.9034;0.1653;-0.0242;-0.1436
0000054179;15.9909;-5.0542;2.2984;0.1769;-0.0211;-0.1807
0000054187;16.5176;-5.2122;2.6360;0.1913;0.0003;-0.1809
0000054199;16.9198;-5.0901;3.1005;0.2137;0.0634;-0.1597
0000054207;17.0132;-5.2696;3.2561;0.2458;0.1108;-0.1448
0000054215;17.1257;-4.9081;3.3519;0.2847;0.1656;-0.1251
0000054279;14.6477;-3.2848;3.1173;0.0356;0.4751;0.1909
0000054287;14.3149;-3.6847;2.8276;-0.0197;0.4655;0.2090
0000054299;14.1880;-4.3574;2.6456;-0.0715;0.4235;0.2370
0000054307;13.9486;-4.7860;2.5809;-0.0797;0.3685;0.2316
0000054319;13.5081;-5.4348;2.5067;-0.0731;0.2742;0.2142
0000054327;13.5105;-5.4037;2.4014;-0.0320;0.1883;0.1958
0000054339;13.7307;-5.5138;2.5546;0.0131;0.0822;0.1683
0000054347;13.9319;-5.3199;2.6887;0.0470;0.0072;0.1320
0000054355;14.3532;-5.1164;2.6336;0.0545;-0.0500;0.1039
0000054367;14.8273;-4.8842;2.7725;0.0172;-0.0963;0.0570
0000054375;15.2319;-4.7573;2.8419;-0.0128;-0.1106;0.0298
0000054387;15.4306;-4.8578;2.9209;-0.0648;-0.1183;-0.0067
0000054395;15.6653;-4.9608;2.9449;-0.0910;-0.1203;-0.0241
0000054407;15.8879;-5.3175;2.9928;-0.1122;-0.0981;-0.0362
0000054415;15.9957;-5.5665;2.8826;-0.1204;-0.0787;-0.0508
0000054427;16.2590;-5.5881;2.9281;-0.1210;-0.0494;-0.0693
0000054435;16.3931;-5.5905;2.7797;-0.1216;-0.0364;-0.0822
0000054443;16.1393;-5.7485;2.8347;-0.1199;-0.0180;-0.0873
0000054455;15.8448;-5.8658;2.6911;-0.1275;-0.0041;-0.0750
0000054463;15.8065;-5.7724;2.6959;-0.1174;-0.0012;-0.0655
0000054475;15.2966;-5.9999;2.5905;-0.0973;-0.0104;-0.0570
0000054483;15.3468;-5.8849;2.5618;-0.0773;-0.0222;-0.0620
0000054548;15.4354;-5.4612;2.4493;-0.0253;-0.1879;-0.0881
0000054557;15.7108;-5.4109;2.4948;-0.0262;-0.1827;-0.0830
0000054570;15.8568;-5.5019;2.6384;-0.0115;-0.1643;-0.0719
0000054579;16.0555;-5.2720;2.5857;0.0003;-0.1512;-0.0652
0000054592;16.2327;-5.2385;2.6695;0.0097;-0.1231;-0.0422
0000054601;16.0819;-5.2170;2.5977;0.0336;-0.1086;-0.0326
0000054614;16.0842;-5.1834;2.6073;0.0456;-0.0735;-0.0175
0000054623;15.9406;-5.0230;2.5714;0.0454;-0.0478;-0.0100
0000054632;15.7706;-5.0446;2.5091;0.0420;-0.0316;-0.0031
0000054645;15.8807;-4.7429;2.5211;0.0333;-0.0177;0.0083
0000054654;15.6605;-4.6878;2.4301;0.0252;-0.0153;0.0097
0000054667;15.4761;-4.8507;2.5163;0.0067;-0.0111;0.0056
0000054676;15.5432;-4.7836;2.3822;-0.0013;-0.0103;0.0027
0000054689;15.4713;-4.8722;2.5522;-0.0124;-0.0187;-0.0064
0000054698;15.5312;-4.8698;2.5474;-0.0213;-0.0116;-0.0041
0000054711;15.3373;-5.0422;2.5809;-0.0276;-0.0127;-0.0099
0000054720;15.5815;-4.9201;2.6193;-0.0297;-0.0145;-0.0139
0000054733;15.6653;-5.0278;2.5498;-0.0348;-0.0067;-0.0072
0000054742;15.5647;-5.1906;2.6049;-0.0400;0.0037;-0.0037
0000054751;15.6796;-5.0015;2.7102;-0.0378;-0.0021;-0.0028
0000054764;15.7969;-4.9129;2.6552;-0.0405;-0.0020;-0.0036
0000054773;15.5551;-5.2601;2.7126;-0.0444;0.0101;0.0041
0000054838;15.2726;-5.4444;2.7869;-0.0270;-0.0316;-0.0168
0000054847;15.3756;-5.2409;2.6959;-0.0294;-0.0292;-0.0136
0000054860;15.2630;-5.3103;2.7509;-0.0249;-0.0445;-0.0147
0000054869;15.3732;-5.3822;2.6767;-0.0213;-0.0489;-0.0172
0000054882;15.4785;-5.3774;2.7342;-0.0179;-0.0497;-0.0250
0000054891;15.5096;-5.3654;2.6911;-0.0059;-0.0574;-0.0308
0000054904;15.5910;-5.2984;2.6025;-0.0048;-0.0554;-0.0322
0000054913;15.6006;-5.2792;2.6073;-0.0049;-0.0526;-0.0281
0000054926;15.6557;-5.1427;2.5642;-0.0056;-0.0593;-0.0207
0000054935;15.4953;-5.1044;2.6791;-0.0115;-0.0508;-0.0160
0000054944;15.5096;-5.1619;2.6001;-0.0061;-0.0521;-0.0262
0000054957;15.5384;-5.1643;2.6815;-0.0056;-0.0496;-0.0282
0000054966;15.4450;-5.1882;2.6624;-0.0076;-0.0508;-0.0320
0000054982;15.6844;-4.9536;2.5307;-0.0298;-0.0398;-0.0199
0000054991;15.5001;-5.1595;2.6647;-0.0428;-0.0452;-0.0136
0000055004;15.6198;-5.1954;2.6097;-0.0284;-0.0436;-0.0160
0000055013;15.6413;-5.3247;2.6240;-0.0065;-0.0532;-0.0240
0000055081;15.5599;-5.0805;2.6432;-0.0285;-0.0413;-0.0084
0000055090;15.5623;-5.1571;2.6312;-0.0308;-0.0390;-0.0147
0000055103;15.4546;-5.3319;2.6911;-0.0338;-0.0330;-0.0088
0000055112;15.7036;-5.1834;2.7342;-0.0274;-0.0329;-0.0151
0000055121;15.6677;-5.1811;2.6887;-0.0249;-0.0348;-0.0120
0000055133;15.5527;-5.3367;2.6097;-0.0205;-0.0281;-0.0051
0000055142;15.5982;-5.2241;2.6743;-0.0120;-0.0276;-0.0041
0000055155;15.4809;-5.3343;2.6121;-0.0041;-0.0316;-0.0128
0000055164;15.5432;-5.2577;2.6408;-0.0103;-0.0244;-0.0099
0000055176;15.4211;-5.2864;2.6647;-0.0099;-0.0313;-0.0136
0000055185;15.3971;-5.2218;2.6145;-0.0177;-0.0249;-0.0083
0000055198;15.5958;-5.0925;2.6169;-0.0205;-0.0337;-0.0097
0000055207;15.3899;-5.2648;2.6887;-0.0152;-0.0412;-0.0189
0000055219;15.4881;-5.1451;2.7390;-0.0085;-0.0430;-0.0185
0000055228;15.5120;-5.1092;2.6600;-0.0139;-0.0429;-0.0209
0000055241;15.4809;-5.2888;2.6193;-0.0149;-0.0437;-0.0228
0000055250;15.4713;-5.1691;2.6767;-0.0237;-0.0358;-0.0139
0000055259;15.5120;-5.1284;2.6480;-0.0294;-0.0333;-0.0144
0000055271;15.4354;-5.2002;2.5953;-0.0265;-0.0373;-0.0121
0000055280;15.5216;-5.1858;2.6025;-0.0221;-0.0441;-0.0212
0000055293;15.6677;-5.1068;2.6456;-0.0155;-0.0438;-0.0211
0000055302;15.5886;-5.1739;2.5905;-0.0097;-0.0450;-0.0161
0000055370;15.6485;-4.9895;2.6049;-0.0127;-0.0409;-0.0209
0000055379;15.5192;-5.2601;2.6743;-0.0187;-0.0340;-0.0141
0000055392;15.5001;-5.0398;2.6097;-0.0181;-0.0396;-0.0131
0000055401;15.7155;-5.1020;2.7150;-0.0232;-0.0277;-0.0103
0000055413;15.5934;-4.9919;2.6001;-0.0216;-0.0274;-0.0079
0000055422;15.4211;-5.2912;2.6743;-0.0195;-0.0336;-0.0148
0000055435;15.5623;-5.2361;2.5953;-0.0208;-0.0336;-0.0111
0000055444;15.5049;-5.1882;2.7342;-0.0269;-0.0282;-0.0117
0000055453;15.5456;-5.1954;2.6264;-0.0176;-0.0346;-0.0124
0000055465;15.4498;-5.2457;2.6647;-0.0232;-0.0300;-0.0117
0000055474;15.5503;-5.1619;2.5043;-0.0183;-0.0356;-0.0125
0000055487;15.5168;-5.2265;2.6456;-0.0113;-0.0314;-0.0095
0000055496;15.4402;-5.2577;2.6121;-0.0067;-0.0380;-0.0164
0000055508;15.3277;-5.3008;2.7126;-0.0165;-0.0360;-0.0131
0000055517;15.4234;-5.3032;2.6719;-0.0137;-0.0338;-0.0111
0000055530;15.6006;-5.1834;2.6432;-0.0168;-0.0268;-0.0116
0000055539;15.5168;-5.2792;2.6528;-0.0111;-0.0336;-0.0222
0000055551;15.7084;-5.1571;2.7126;-0.0176;-0.0284;-0.0193
0000055560;15.5910;-5.1523;2.5355;-0.0337;-0.0304;-0.0159
0000055573;15.3301;-5.3223;2.6432;-0.0293;-0.0406;-0.0159
0000055582;15.5623;-5.2098;2.6935;-0.0246;-0.0374;-0.0083
0000055591;15.6078;-5.1906;2.7246;-0.0097;-0.0330;-0.0169
0000055659;15.4282;-5.1308;2.5450;-0.0281;-0.0520;-0.0184
0000055668;15.4282;-5.2768;2.6001;-0.0310;-0.0434;-0.0169
0000055681;15.5527;-5.3343;2.7150;-0.0326;-0.0430;-0.0161
0000055690;15.5791;-5.3103;2.6432;-0.0191;-0.0400;-0.0253
0000055702;15.6868;-5.2864;2.6384;-0.0171;-0.0374;-0.0203
0000055711;15.5001;-5.3965;2.6360;-0.0072;-0.0373;-0.0127
0000055724;15.7179;-5.1236;2.6121;-0.0077;-0.0354;-0.0116
0000055733;15.4067;-5.2672;2.7126;-0.0037;-0.0353;-0.0109
0000055745;15.5886;-5.0518;2.5953;-0.0064;-0.0388;-0.0164
0000055754;15.4977;-5.1475;2.6288;-0.0111;-0.0320;-0.0113
0000055767;15.5527;-5.1571;2.6647;-0.0107;-0.0336;-0.0175
0000055776;15.5791;-5.0925;2.5881;-0.0108;-0.0396;-0.0205
0000055785;15.4402;-5.3008;2.6193;-0.0212;-0.0360;-0.0144
0000055797;15.6150;-5.1499;2.5977;-0.0157;-0.0381;-0.0127
0000055806;15.5647;-5.0925;2.5546;-0.0183;-0.0409;-0.0144
0000055819;15.5503;-5.1787;2.5546;-0.0167;-0.0342;-0.0165
0000055828;15.4833;-5.2050;2.6600;-0.0157;-0.0333;-0.0121
0000055840;15.6222;-5.0518;2.6073;-0.0147;-0.0354;-0.0129
0000055849;15.6293;-5.1284;2.7007;-0.0212;-0.0326;-0.0152
0000055862;15.3827;-5.1978;2.6695;-0.0211;-0.0362;-0.0120
0000055871;15.6126;-5.1092;2.6959;-0.0159;-0.0396;-0.0155
0000055939;15.5120;-5.2074;2.6169;-0.0256;-0.0424;-0.0176
0000055948;15.6174;-5.0326;2.5426;-0.0254;-0.0474;-0.0183
0000055961;15.6509;-5.1236;2.6504;-0.0222;-0.0469;-0.0177
0000055970;15.4450;-5.2792;2.6576;-0.0218;-0.0454;-0.0152
0000055979;15.5839;-5.2409;2.6600;-0.0184;-0.0417;-0.0147
0000055991;15.5886;-5.1427;2.6384;-0.0159;-0.0361;-0.0159
0000056000;15.6437;-5.1427;2.6719;-0.0266;-0.0314;-0.0137
0000056013;15.6605;-5.1284;2.5786;-0.0222;-0.0317;-0.0127
0000056022;15.5551;-5.2002;2.7078;-0.0207;-0.0364;-0.0145
0000056034;15.5719;-5.2768;2.6336;-0.0148;-0.0316;-0.0117
0000056043;15.5049;-5.1978;2.6647;-0.0140;-0.0281;-0.0125
0000056056;15.3804;-5.2625;2.6600;-0.0137;-0.0302;-0.0113
0000056065;15.4761;-5.2002;2.6240;-0.0101;-0.0366;-0.0128
0000056077;15.6677;-5.0446;2.6121;-0.0180;-0.0360;-0.0105
0000056086;15.4929;-5.1858;2.6743;-0.0159;-0.0386;-0.0128
0000056099;15.4306;-5.4420;2.6767;-0.0119;-0.0418;-0.0112
0000056108;15.5336;-5.2122;2.5809;-0.0151;-0.0374;-0.0115
0000056117;15.5791;-5.1523;2.6121;-0.0077;-0.0418;-0.0143
0000056129;15.6341;-5.1715;2.6025;-0.0096;-0.0425;-0.0204
0000056138;15.6581;-5.2218;2.6863;-0.0149;-0.0349;-0.0176
0000056151;15.5767;-5.2529;2.7222;-0.0204;-0.0274;-0.0160
0000056160;15.5025;-5.1715;2.6695;-0.0179;-0.0276;-0.0222
0000056228;15.3875;-5.1619;2.5426;-0.0016;-0.0434;-0.0208
0000056237;15.4498;-5.2194;2.6600;0.0067;-0.0526;-0.0260
0000056250;15.5719;-5.0494;2.5259;0.0089;-0.0570;-0.0232
0000056259;15.3780;-5.1978;2.6217;-0.0032;-0.0584;-0.0213
0000056271;15.5647;-5.0039;2.5498;-0.0164;-0.0525;-0.0151
0000056280;15.5599;-5.0278;2.5666;-0.0164;-0.0593;-0.0183
0000056293;15.5839;-5.3630;2.5331;-0.0208;-0.0568;-0.0218
0000056302;15.5408;-5.1499;2.6264;-0.0281;-0.0525;-0.0222
0000056311;15.6820;-5.2265;2.6336;-0.0240;-0.0445;-0.0156
0000056323;15.7443;-5.1619;2.6815;-0.0230;-0.0328;-0.0161
0000056332;15.6724;-5.2648;2.5881;-0.0132;-0.0412;-0.0187
0000056343;15.6557;-5.2194;2.6288;-0.0081;-0.0388;-0.0156
0000056351;15.5886;-5.2170;2.5355;-0.0107;-0.0340;-0.0116
0000056362;15.7922;-5.0039;2.5187;-0.0120;-0.0324;-0.0159
0000056370;15.4905;-5.2577;2.5450;-0.0131;-0.0310;-0.0127
0000056382;15.5527;-5.2170;2.5690;-0.0197;-0.0305;-0.0121
0000056390;15.5551;-5.1284;2.5953;-0.0147;-0.0321;-0.0132
0000056401;15.5479;-5.2840;2.6432;-0.0115;-0.0362;-0.0148
0000056409;15.4522;-5.3032;2.5905;-0.0091;-0.0412;-0.0208
0000056417;15.6844;-5.1667;2.6791;-0.0093;-0.0414;-0.0218
0000056430;15.5551;-5.1691;2.5857;-0.0153;-0.0418;-0.0201
0000056438;15.5001;-5.2505;2.7031;-0.0103;-0.0406;-0.0185
0000056506;15.5144;-5.2170;2.7270;-0.0079;-0.0377;-0.0157
0000056514;15.2846;-5.3510;2.5905;-0.0020;-0.0432;-0.0171
0000056525;15.6246;-5.1523;2.5738;-0.0032;-0.0461;-0.0169
0000056533;15.5958;-5.0709;2.5379;-0.0091;-0.0385;-0.0153
0000056545;15.6988;-5.0063;2.6312;-0.0133;-0.0413;-0.0191
0000056553;15.5336;-5.1978;2.6145;-0.0144;-0.0418;-0.0165
