time;acc_x;acc_y;acc_z;gyro_x;gyro_y;gyro_z
0000899212;5.9975;-15.5791;2.9736;0.0845;-0.0133;-0.0810
0000899220;6.0478;-15.6317;3.0837;0.0838;-0.0140;-0.1013
0000899227;6.0310;-15.7443;3.0071;0.0889;-0.0148;-0.1017
0000899235;6.1172;-15.6724;3.0837;0.0885;-0.0144;-0.0907
0000899244;6.1387;-15.7036;3.0550;0.0891;-0.0045;-0.0678
0000899252;5.8802;-15.8113;2.9904;0.0969;-0.0109;-0.0445
0000899264;6.0549;-15.6246;2.8874;0.1039;-0.0189;-0.0103
0000899272;6.1986;-15.5432;2.9209;0.0951;-0.0139;0.0103
0000899280;6.2177;-15.4282;2.9018;0.0842;-0.0152;0.0132
0000899291;6.2106;-15.3588;2.8204;0.0679;-0.0201;0.0049
0000899299;6.1651;-15.4641;2.7366;0.0618;-0.0290;-0.0131
0000899311;6.0669;-15.4929;2.7078;0.0397;-0.0312;-0.0258
0000899319;6.0549;-15.5336;2.7605;0.0318;-0.0400;-0.0310
0000899330;6.1148;-15.5288;2.7007;0.0288;-0.0518;-0.0421
0000899338;6.0813;-15.6533;2.7054;0.0217;-0.0528;-0.0298
0000899350;6.1938;-15.6461;2.6863;0.0072;-0.0634;-0.0226
0000899358;6.1052;-15.6653;2.6935;-0.0027;-0.0669;-0.0107
0000899425;6.6272;-15.8161;2.7533;-0.0080;-0.0236;-0.0258
0000899433;6.5960;-15.8257;2.7102;-0.0040;-0.0200;-0.0346
0000899441;6.5146;-15.7299;2.7366;-0.0076;-0.0064;-0.0328
0000899453;6.5003;-15.7538;2.7940;-0.0023;-0.0019;-0.0417
0000899461;6.4931;-15.6222;2.7916;-0.0045;0.0089;-0.0381
0000899472;6.3973;-15.5958;2.8012;-0.0097;0.0199;-0.0341
0000899480;6.4787;-15.5695;2.6887;-0.0172;0.0187;-0.0316
0000899492;6.3279;-15.5767;2.7342;-0.0237;0.0280;-0.0308
0000899500;6.1723;-15.6461;2.7366;-0.0248;0.0215;-0.0388
0000899511;6.3566;-15.5408;2.6504;-0.0314;0.0241;-0.0382
0000899519;6.2704;-15.5360;2.7533;-0.0385;0.0252;-0.0320
0000899531;6.3734;-15.5743;2.7509;-0.0408;0.0252;-0.0380
0000899539;6.2944;-15.6222;2.8108;-0.0497;0.0240;-0.0270
0000899547;6.2944;-15.8137;2.7342;-0.0445;0.0215;-0.0320
0000899558;6.2225;-15.9167;2.8491;-0.0501;0.0292;-0.0238
0000899566;6.2034;-15.8065;2.7150;-0.0453;0.0262;-0.0288
0000899578;6.3183;-15.8688;2.7390;-0.0402;0.0232;-0.0268
0000899586;6.3470;-15.7634;2.7078;-0.0426;0.0301;-0.0234
0000899597;6.3231;-15.7203;2.7150;-0.0442;0.0242;-0.0222
0000899605;6.2369;-15.7108;2.7246;-0.0421;0.0216;-0.0244
0000899617;6.2632;-15.7658;2.7246;-0.0422;0.0188;-0.0277
0000899625;6.3734;-15.7778;2.7078;-0.0370;0.0149;-0.0286
0000899689;6.2632;-15.6198;2.7677;-0.0345;-0.0056;-0.0140
0000899697;6.2968;-15.7251;2.6767;-0.0348;-0.0033;-0.0092
0000899705;6.0741;-15.8496;2.6145;-0.0421;-0.0047;-0.0063
0000899717;6.0908;-15.8089;2.5977;-0.0381;-0.0136;-0.0055
0000899725;6.0956;-15.8329;2.5953;-0.0324;-0.0199;-0.0073
0000899736;6.0813;-15.9262;2.6384;-0.0270;-0.0306;-0.0077
0000899744;6.1890;-15.8999;2.6001;-0.0285;-0.0329;-0.0056
0000899756;6.3279;-15.7203;2.6336;-0.0286;-0.0372;-0.0031
0000899764;6.3255;-15.7802;2.7198;-0.0264;-0.0321;-0.0007
0000899775;6.1746;-15.8137;2.5786;-0.0333;-0.0333;-0.0024
0000899783;6.3470;-15.6246;2.5738;-0.0316;-0.0374;-0.0053
0000899795;6.2273;-15.8209;2.5355;-0.0372;-0.0344;-0.0040
0000899803;6.1387;-15.9023;2.5738;-0.0366;-0.0294;-0.0003
0000899814;6.1651;-15.8879;2.5235;-0.0301;-0.0310;0.0033
0000899822;6.1986;-15.8496;2.5977;-0.0257;-0.0352;-0.0044
0000899830;6.1363;-15.9574;2.6264;-0.0140;-0.0402;-0.0093
0000899842;6.2608;-15.8520;2.5809;-0.0139;-0.0428;-0.0011
0000899850;6.2824;-15.8137;2.5522;-0.0129;-0.0404;-0.0011
0000899861;6.2800;-15.7969;2.6456;-0.0011;-0.0466;-0.0109
0000899869;6.1148;-15.8736;2.6600;-0.0084;-0.0469;-0.0012
0000899881;6.3231;-15.6964;2.6336;-0.0044;-0.0496;-0.0064
0000899889;6.2896;-15.8209;2.6312;-0.0072;-0.0454;-0.0033
0000899957;6.2776;-15.8209;2.6552;0.0011;-0.0524;-0.0075
0000899965;6.2465;-15.9741;2.7198;0.0044;-0.0520;-0.0080
0000899977;6.3255;-15.7299;2.6480;0.0039;-0.0453;-0.0045
0000899985;6.2896;-15.7179;2.6456;0.0000;-0.0480;-0.0065
0000899993;6.3351;-15.8113;2.6145;0.0028;-0.0494;-0.0095
0000900004;6.2896;-15.7922;2.6001;-0.0084;-0.0450;-0.0007
0000900012;6.0885;-15.9023;2.7605;-0.0093;-0.0441;0.0023
0000900024;6.1459;-15.8281;2.7102;-0.0097;-0.0433;-0.0021
0000900032;6.2153;-15.7945;2.6647;-0.0124;-0.0434;-0.0015
0000900043;6.2369;-15.7179;2.6863;-0.0093;-0.0406;0.0001
0000900051;6.1723;-15.8233;2.6959;-0.0127;-0.0361;0.0005
0000900063;6.1770;-15.7179;2.6049;-0.0144;-0.0372;-0.0012
0000900071;6.2058;-15.8400;2.6408;-0.0128;-0.0408;0.0000
0000900082;6.2321;-15.9430;2.7581;-0.0087;-0.0469;-0.0069
0000900090;6.2034;-15.8209;2.7102;-0.0089;-0.0401;-0.0057
0000900102;6.3566;-15.6748;2.7414;-0.0032;-0.0444;-0.0045
0000900110;6.2920;-15.7371;2.7509;-0.0044;-0.0376;-0.0059
0000900118;6.1699;-15.7491;2.6767;-0.0015;-0.0388;-0.0044
0000900129;6.3973;-15.6102;2.7174;0.0036;-0.0364;-0.0067
0000900137;6.3303;-15.7323;2.6624;0.0044;-0.0328;-0.0060
0000900149;6.3590;-15.7227;2.6887;0.0015;-0.0317;-0.0075
0000900157;6.2321;-15.8472;2.7701;0.0031;-0.0324;-0.0071
0000900225;6.3590;-15.7323;2.6935;0.0177;-0.0337;-0.0120
0000900233;6.2704;-15.7802;2.6911;0.0240;-0.0406;-0.0151
0000900245;6.1914;-15.8568;2.6456;0.0252;-0.0338;-0.0103
0000900253;6.1770;-15.7323;2.7605;0.0211;-0.0310;-0.0087
0000900264;6.2249;-15.8496;2.6121;0.0176;-0.0257;-0.0097
0000900272;6.2800;-15.7658;2.6312;0.0246;-0.0324;-0.0161
0000900280;6.1842;-15.8448;2.5833;0.0187;-0.0305;-0.0128
0000900292;6.1411;-15.7515;2.7342;0.0245;-0.0338;-0.0132
0000900300;6.3327;-15.7467;2.7342;0.0220;-0.0308;-0.0087
0000900311;6.2130;-15.8017;2.6983;0.0256;-0.0341;-0.0123
0000900319;6.2010;-15.7347;2.6552;0.0249;-0.0290;-0.0111
0000900331;6.3446;-15.7347;2.7270;0.0215;-0.0353;-0.0141
0000900339;6.1316;-15.7227;2.7174;0.0246;-0.0441;-0.0169
0000900350;6.3207;-15.6940;2.7054;0.0260;-0.0458;-0.0165
0000900358;6.2560;-15.7467;2.6576;0.0217;-0.0390;-0.0137
0000900370;6.2201;-15.7108;2.7031;0.0217;-0.0420;-0.0149
0000900378;6.2345;-15.7634;2.7533;0.0230;-0.0420;-0.0222
0000900386;6.4452;-15.6748;2.6983;0.0293;-0.0442;-0.0237
0000900397;6.1435;-15.8760;2.6887;0.0301;-0.0400;-0.0217
0000900405;6.1914;-15.7634;2.7749;0.0264;-0.0384;-0.0218
0000900417;6.1435;-15.7562;2.7126;0.0290;-0.0416;-0.0191
0000900425;6.0286;-15.8592;2.6959;0.0218;-0.0338;-0.0136
0000900493;6.3470;-15.6365;2.7390;0.0253;-0.0337;-0.0184
0000900501;6.3398;-15.5791;2.7629;0.0201;-0.0352;-0.0207
0000900513;6.2345;-15.6413;2.8299;0.0124;-0.0301;-0.0140
0000900521;6.2321;-15.8137;2.9066;0.0127;-0.0344;-0.0160
0000900529;6.2034;-15.6126;2.8419;0.0051;-0.0348;-0.0095
0000900540;6.3758;-15.6772;2.8108;0.0063;-0.0349;-0.0101
0000900548;6.2345;-15.6557;2.8754;0.0084;-0.0336;-0.0115
0000900560;6.1794;-15.7275;2.8323;0.0069;-0.0340;-0.0117
0000900568;6.1555;-15.7371;2.8491;0.0131;-0.0329;-0.0144
0000900580;6.1794;-15.7826;2.8180;0.0099;-0.0341;-0.0099
0000900588;6.2991;-15.7395;2.8323;0.0137;-0.0325;-0.0112
0000900599;6.2944;-15.6700;2.8467;0.0136;-0.0388;-0.0140
0000900607;6.2321;-15.5934;2.8347;0.0072;-0.0378;-0.0095
0000900619;6.1531;-15.7275;2.9137;0.0077;-0.0348;-0.0092
0000900627;6.2273;-15.7179;2.8802;-0.0001;-0.0333;-0.0095
0000900635;6.3279;-15.5551;2.9090;-0.0011;-0.0348;-0.0083
0000900646;6.1244;-15.7251;2.8395;-0.0015;-0.0376;-0.0047
0000900654;6.3327;-15.5671;2.8802;0.0001;-0.0396;-0.0135
0000900666;6.1220;-15.8257;2.9353;-0.0048;-0.0376;-0.0060
0000900674;6.2728;-15.8113;2.8347;0.0033;-0.0412;-0.0105
0000900742;6.1770;-15.8520;2.8132;0.0027;-0.0452;-0.0155
0000900750;6.3351;-15.7395;2.7725;-0.0023;-0.0360;-0.0085
0000900762;6.3039;-15.6557;2.8347;-0.0096;-0.0298;-0.0133
0000900770;6.3375;-15.6677;2.8036;-0.0116;-0.0286;-0.0101
0000900781;6.0645;-15.7419;2.8706;-0.0088;-0.0330;-0.0077
0000900789;6.2130;-15.8305;2.7222;-0.0097;-0.0284;-0.0091
0000900801;6.2177;-15.6198;2.8467;-0.0044;-0.0342;-0.0185
0000900809;6.1986;-15.6629;2.8299;-0.0103;-0.0350;-0.0151
0000900817;6.2872;-15.5863;2.8874;-0.0139;-0.0352;-0.0191
0000900828;6.2680;-15.6700;2.7869;-0.0180;-0.0317;-0.0147
0000900836;6.1076;-15.7179;2.9736;-0.0149;-0.0370;-0.0165
0000900848;6.1292;-15.6868;2.8299;-0.0103;-0.0380;-0.0173
0000900856;6.1459;-15.6844;2.8539;-0.0139;-0.0306;-0.0127
0000900867;6.2608;-15.7347;2.8395;-0.0140;-0.0309;-0.0159
0000900875;6.1962;-15.5432;2.8443;-0.0185;-0.0300;-0.0151
0000900887;6.1411;-15.5839;2.8922;-0.0213;-0.0313;-0.0152
0000900895;6.4620;-15.4977;2.8467;-0.0282;-0.0300;-0.0112
0000900906;6.1651;-15.5647;2.9018;-0.0245;-0.0386;-0.0168
0000900914;6.3446;-15.6533;2.7198;-0.0336;-0.0286;-0.0097
0000900926;6.1914;-15.7706;2.8587;-0.0310;-0.0288;-0.0140
0000900934;6.1316;-15.7874;2.8036;-0.0380;-0.0236;-0.0104
0000900942;6.0047;-15.8496;2.8874;-0.0412;-0.0282;-0.0115
0000901010;6.1723;-15.7826;2.8754;-0.0316;-0.0308;-0.0172
0000901018;6.2249;-15.8472;2.8132;-0.0361;-0.0297;-0.0171
0000901030;6.1316;-15.6629;2.8395;-0.0353;-0.0301;-0.0159
0000901038;6.1220;-15.7108;2.8132;-0.0341;-0.0304;-0.0127
0000901049;6.1507;-15.6677;2.7198;-0.0318;-0.0352;-0.0147
0000901057;6.3279;-15.5479;2.7797;-0.0369;-0.0298;-0.0125
0000901069;6.0837;-15.8137;2.7749;-0.0364;-0.0304;-0.0095
0000901077;6.1435;-15.7826;2.8156;-0.0294;-0.0341;-0.0164
0000901088;6.1794;-15.7395;2.7845;-0.0304;-0.0300;-0.0125
0000901096;6.2465;-15.7730;2.7773;-0.0260;-0.0376;-0.0148
0000901108;6.2537;-15.7012;2.7605;-0.0242;-0.0333;-0.0145
0000901116;6.2130;-15.7251;2.7940;-0.0313;-0.0322;-0.0127
0000901124;6.2632;-15.6126;2.8994;-0.0281;-0.0397;-0.0136
0000901135;6.2417;-15.7012;2.7150;-0.0253;-0.0360;-0.0097
0000901143;6.2656;-15.6437;2.8156;-0.0342;-0.0420;-0.0100
0000901155;6.3279;-15.6964;2.7964;-0.0333;-0.0389;-0.0099
0000901163;6.1531;-15.8329;2.7701;-0.0333;-0.0328;-0.0123
0000901174;6.3949;-15.7634;2.7629;-0.0273;-0.0348;-0.0095
0000901182;6.2824;-15.7898;2.7533;-0.0301;-0.0357;-0.0111
0000901194;6.2177;-15.7586;2.7653;-0.0228;-0.0373;-0.0156
0000901202;6.2920;-15.7131;2.7797;-0.0207;-0.0360;-0.0099
0000901270;6.0765;-15.9574;2.8299;-0.0346;-0.0324;-0.0056
0000901278;6.1675;-15.7347;2.8252;-0.0326;-0.0321;-0.0092
0000901290;6.2752;-15.7802;2.7653;-0.0276;-0.0328;-0.0124
0000901298;6.0430;-15.8257;2.8084;-0.0238;-0.0398;-0.0145
0000901306;6.1531;-15.8161;2.6240;-0.0269;-0.0358;-0.0104
0000901317;6.3087;-15.6485;2.7174;-0.0215;-0.0368;-0.0171
0000901325;6.2058;-15.6940;2.8563;-0.0253;-0.0366;-0.0149
0000901337;6.3470;-15.6868;2.7126;-0.0242;-0.0316;-0.0123
0000901345;6.2704;-15.7251;2.8132;-0.0211;-0.0374;-0.0176
0000901356;6.2704;-15.7634;2.8611;-0.0245;-0.0329;-0.0157
0000901364;6.2393;-15.7969;2.8323;-0.0205;-0.0389;-0.0220
0000901376;6.3638;-15.6653;2.7366;-0.0201;-0.0373;-0.0164
0000901384;6.1723;-15.7922;2.6791;-0.0216;-0.0369;-0.0168
0000901395;6.1914;-15.7562;2.7366;-0.0228;-0.0386;-0.0171
0000901403;6.1339;-15.7610;2.8060;-0.0241;-0.0361;-0.0141
0000901415;6.2752;-15.7395;2.7126;-0.0256;-0.0306;-0.0155
0000901423;6.3901;-15.5695;2.7198;-0.0252;-0.0316;-0.0216
0000901431;6.3398;-15.5408;2.7701;-0.0240;-0.0344;-0.0204
0000901442;6.0118;-15.8568;2.7581;-0.0258;-0.0297;-0.0128
0000901450;6.3614;-15.6317;2.7414;-0.0320;-0.0264;-0.0131
0000901462;6.4572;-15.7251;2.7629;-0.0302;-0.0304;-0.0113
0000901470;6.2106;-15.8113;2.7438;-0.0274;-0.0348;-0.0153
0000901537;6.2321;-15.6868;2.6791;-0.0249;-0.0289;-0.0096
0000901545;6.1651;-15.7682;2.7485;-0.0290;-0.0312;-0.0123
0000901557;6.0813;-15.7730;2.7485;-0.0232;-0.0320;-0.0159
0000901565;6.0885;-15.8544;2.6719;-0.0228;-0.0368;-0.0201
0000901576;6.0310;-15.9190;2.6360;-0.0260;-0.0310;-0.0149
0000901584;6.2608;-15.7634;2.7821;-0.0195;-0.0357;-0.0175
0000901592;6.3805;-15.6293;2.7222;-0.0207;-0.0308;-0.0107
0000901604;6.3183;-15.6916;2.7150;-0.0164;-0.0361;-0.0156
0000901612;6.3207;-15.7682;2.7677;-0.0188;-0.0309;-0.0128
0000901623;6.3015;-15.6270;2.6624;-0.0132;-0.0366;-0.0161
0000901631;6.2058;-15.7730;2.7629;-0.0156;-0.0324;-0.0105
0000901643;6.2824;-15.7419;2.7294;-0.0113;-0.0357;-0.0218
0000901651;6.3470;-15.4809;2.6743;-0.0183;-0.0372;-0.0172
0000901662;6.1435;-15.7730;2.7246;-0.0199;-0.0338;-0.0148
0000901670;6.2489;-15.8209;2.6624;-0.0109;-0.0414;-0.0232
0000901682;6.3015;-15.6868;2.6791;-0.0147;-0.0313;-0.0145
0000901690;6.3375;-15.7706;2.7366;-0.0197;-0.0309;-0.0115
0000901701;6.2321;-15.7419;2.8371;-0.0181;-0.0341;-0.0168
0000901709;6.1723;-15.7275;2.5977;-0.0161;-0.0314;-0.0205
0000901717;6.1363;-15.7299;2.7342;-0.0195;-0.0294;-0.0125
0000901729;6.2608;-15.6820;2.7270;-0.0159;-0.0280;-0.0108
0000901737;6.1483;-15.7586;2.7438;-0.0033;-0.0394;-0.0181
0000901805;6.1483;-15.8113;2.7581;0.0008;-0.0382;-0.0238
0000901813;6.1339;-15.8257;2.8228;0.0047;-0.0370;-0.0188
0000901825;6.3614;-15.6629;2.7270;0.0089;-0.0382;-0.0233
0000901833;6.2584;-15.6365;2.8084;0.0075;-0.0333;-0.0163
0000901844;6.2920;-15.6892;2.8060;0.0100;-0.0377;-0.0192
0000901852;6.2082;-15.6006;2.6815;0.0083;-0.0406;-0.0191
0000901864;6.2441;-15.7203;2.7102;0.0039;-0.0390;-0.0185
0000901872;6.1339;-15.7467;2.7749;-0.0031;-0.0366;-0.0163
0000901883;6.1746;-15.7634;2.7222;-0.0051;-0.0305;-0.0132
0000901891;6.2776;-15.7419;2.8299;0.0001;-0.0305;-0.0156
0000901899;6.2632;-15.6509;2.7126;0.0040;-0.0364;-0.0196
0000901911;6.1555;-15.8927;2.7773;0.0051;-0.0340;-0.0181
0000901919;6.2201;-15.7251;2.8395;0.0031;-0.0301;-0.0164
0000901931;6.2728;-15.7730;2.7605;0.0072;-0.0370;-0.0204
0000901939;6.1627;-15.8281;2.7078;0.0075;-0.0356;-0.0195
0000901950;6.4356;-15.6317;2.8204;0.0095;-0.0392;-0.0207
0000901958;6.3422;-15.6820;2.7007;0.0092;-0.0384;-0.0161
0000901970;6.1723;-15.8233;2.7653;0.0029;-0.0308;-0.0135
0000901978;6.2608;-15.8185;2.7677;0.0039;-0.0309;-0.0148
0000901986;6.2441;-15.7299;2.7414;-0.0025;-0.0304;-0.0115
0000902054;6.1794;-15.7945;2.8611;0.0080;-0.0360;-0.0208
0000902062;6.0621;-15.8400;2.8371;0.0116;-0.0361;-0.0197
0000902074;6.2680;-15.6844;2.7845;0.0147;-0.0353;-0.0225
0000902082;6.3542;-15.5575;2.8036;0.0087;-0.0328;-0.0137
0000902094;6.1028;-15.6365;2.8012;0.0065;-0.0397;-0.0225
0000902102;6.1914;-15.7826;2.8156;0.0104;-0.0369;-0.0167
0000902114;6.0693;-15.8640;2.8563;0.0115;-0.0424;-0.0192
0000902122;6.1411;-15.8855;2.8491;0.0105;-0.0345;-0.0165
0000902133;6.2896;-15.6150;2.7869;0.0163;-0.0357;-0.0209
0000902141;6.2800;-15.7060;2.8156;0.0160;-0.0374;-0.0236
0000902149;6.1914;-15.8927;2.8467;0.0151;-0.0389;-0.0156
0000902161;6.3087;-15.8137;2.7940;0.0175;-0.0389;-0.0185
0000902169;6.2608;-15.7036;2.8012;0.0124;-0.0374;-0.0104
0000902180;6.2560;-15.7730;2.7581;0.0192;-0.0329;-0.0156
0000902188;6.1914;-15.6916;2.7126;0.0153;-0.0277;-0.0143
0000902200;6.2537;-15.7538;2.7485;0.0113;-0.0242;-0.0160
0000902208;6.2465;-15.6293;2.8012;0.0179;-0.0326;-0.0203
0000902219;6.2441;-15.8472;2.8012;0.0209;-0.0278;-0.0176
0000902227;6.2177;-15.8664;2.8922;0.0356;-0.0344;-0.0196
0000902239;6.4332;-15.6557;2.9185;0.0400;-0.0270;-0.0203
0000902247;6.1770;-15.7850;2.8108;0.0350;-0.0151;-0.0193
0000902255;6.1603;-15.9167;2.8443;0.0381;-0.0169;-0.0226
0000902323;6.1651;-15.7491;2.8132;0.0274;-0.0268;-0.0212
0000902331;6.3734;-15.6222;2.7988;0.0316;-0.0386;-0.0236
0000902343;6.1507;-15.8568;2.8467;0.0294;-0.0369;-0.0269
0000902351;6.0908;-15.8855;2.7869;0.0284;-0.0338;-0.0224
0000902362;6.1866;-15.8999;2.8683;0.0344;-0.0328;-0.0240
0000902370;6.3159;-15.6796;2.7988;0.0330;-0.0324;-0.0269
0000902382;6.3853;-15.6772;2.8874;0.0320;-0.0276;-0.0272
0000902390;6.2082;-15.7874;2.8659;0.0341;-0.0257;-0.0212
0000902401;6.3327;-15.7706;2.8323;0.0333;-0.0181;-0.0205
0000902409;6.2537;-15.7538;2.9664;0.0393;-0.0181;-0.0285
0000902417;6.4883;-15.6629;2.9161;0.0410;-0.0133;-0.0280
0000902429;6.2968;-15.6748;2.9257;0.0441;-0.0089;-0.0318
0000902437;6.2321;-15.6964;3.0430;0.0473;-0.0148;-0.0322
0000902448;6.3039;-15.6246;2.9449;0.0437;-0.0092;-0.0281
0000902456;6.2177;-15.7012;2.9425;0.0344;-0.0031;-0.0272
0000902468;6.2225;-15.6605;3.0071;0.0314;0.0033;-0.0274
0000902476;6.4021;-15.5719;2.9281;0.0357;-0.0032;-0.0266
0000902487;6.1076;-15.8089;2.9401;0.0396;-0.0047;-0.0304
0000902495;6.2058;-15.6796;2.9473;0.0384;-0.0075;-0.0309
0000902507;6.1890;-15.5863;3.0358;0.0406;-0.0092;-0.0278
0000902515;6.1196;-15.6916;2.9305;0.0457;-0.0159;-0.0280
0000902523;6.0358;-15.9334;2.9113;0.0417;-0.0120;-0.0256
0000902591;6.1244;-15.7754;3.0430;0.0717;-0.0261;-0.0265
0000902599;6.3351;-15.7299;2.9257;0.0811;-0.0274;-0.0364
0000902611;6.2513;-15.9957;2.9904;0.0955;-0.0274;-0.0313
0000902619;6.3351;-15.8712;3.0861;0.1009;-0.0276;-0.0329
0000902630;6.4332;-15.8879;3.0191;0.1168;-0.0237;-0.0250
0000902638;6.2297;-16.0531;3.0478;0.1315;-0.0230;-0.0304
0000902650;6.4236;-15.9933;2.9784;0.1482;-0.0124;-0.0353
0000902658;6.4859;-15.6796;3.0358;0.1663;-0.0051;-0.0334
0000902669;6.3518;-15.7538;3.1125;0.1821;-0.0044;-0.0468
0000902677;6.5649;-15.8616;3.2298;0.1973;0.0068;-0.0442
0000902685;6.5050;-15.7969;3.2010;0.2112;0.0248;-0.0460
0000902697;6.5745;-15.8209;3.2777;0.2466;0.0301;-0.0554
0000902705;6.6080;-15.8736;3.2394;0.2649;0.0465;-0.0561
0000902716;6.3997;-15.8065;3.2106;0.2895;0.0629;-0.0628
0000902724;6.3853;-15.7610;3.1532;0.2976;0.0673;-0.0691
0000902736;6.1890;-15.8305;3.2513;0.3175;0.0669;-0.0693
0000902744;6.1555;-15.7945;3.2441;0.3311;0.0557;-0.0783
0000902756;6.2153;-15.7993;3.1651;0.3519;0.0450;-0.0815
0000902764;5.9544;-15.8736;3.1675;0.3603;0.0424;-0.0726
0000902772;6.1531;-15.8783;3.1101;0.3800;0.0292;-0.0769
0000902784;5.9999;-15.8951;3.1843;0.3880;0.0213;-0.0718
0000902792;6.1339;-15.7922;3.0718;0.3946;0.0136;-0.0683
0000902860;6.5027;-15.9909;3.3782;0.4776;-0.0357;-0.0480
0000902868;6.2776;-16.2279;3.4836;0.5228;-0.0324;-0.0556
0000902880;6.2920;-16.3261;3.6033;0.5785;-0.0131;-0.0568
0000902888;6.6008;-16.0771;3.7661;0.6273;-0.0091;-0.0573
0000902900;6.3782;-15.9310;3.6966;0.6833;-0.0013;-0.0665
0000902908;6.4931;-15.8496;3.8595;0.7085;0.0119;-0.0662
0000902916;6.1507;-15.8472;3.9121;0.7345;0.0244;-0.0726
0000902928;6.3782;-15.4833;3.8834;0.7666;0.0284;-0.0827
0000902936;6.4715;-15.3397;4.0558;0.7857;0.0284;-0.0878
0000902947;6.4524;-15.3708;4.1037;0.7939;0.0466;-0.0942
0000902955;6.3159;-15.4881;4.1348;0.8232;0.0498;-0.0959
0000902967;6.4045;-15.6246;4.2473;0.8652;0.0496;-0.0933
0000902975;6.3853;-15.4570;4.1899;0.8873;0.0642;-0.0879
0000902986;6.2920;-15.6748;4.3622;0.9393;0.0562;-0.0950
0000902994;6.1675;-15.6677;4.3096;0.9774;0.0604;-0.0878
0000903002;6.1507;-15.8472;4.2713;1.0130;0.0534;-0.0853
0000903014;6.3566;-15.7682;4.2258;1.0885;0.0372;-0.0931
0000903022;5.8275;-15.9550;4.2713;1.1209;0.0381;-0.0983
0000903033;6.0094;-15.8113;4.4341;1.1800;0.0278;-0.1083
0000903041;6.0310;-15.8233;4.5035;1.2181;0.0132;-0.1242
0000903053;5.9807;-15.9957;4.5370;1.2946;0.0023;-0.1315
0000903061;6.1675;-16.0962;4.6376;1.3530;-0.0087;-0.1323
0000903129;6.2584;-15.6964;4.7094;1.8022;0.0342;-0.1096
0000903137;6.4141;-15.5527;4.7262;1.8321;0.0232;-0.1299
0000903145;6.1531;-15.5240;4.6615;1.8798;0.0212;-0.1533
0000903157;6.4165;-15.4929;4.5298;1.9486;0.0224;-0.1815
0000903165;6.4763;-15.3420;4.7381;2.0073;0.0258;-0.1884
0000903176;6.3015;-15.5360;4.7621;2.0767;0.0366;-0.1915
0000903184;6.6224;-15.4474;4.8339;2.1254;0.0366;-0.1968
0000903196;6.7133;-15.6150;5.0446;2.1766;0.0489;-0.1848
0000903204;6.6343;-15.7778;5.0996;2.2199;0.0608;-0.1823
0000903216;6.4715;-15.5695;4.9225;2.3090;0.0775;-0.1772
0000903224;6.4308;-15.5072;4.9656;2.3559;0.0799;-0.1869
0000903232;6.6224;-15.3325;5.2960;2.4046;0.0911;-0.1940
0000903244;6.8067;-15.3205;5.5115;2.4592;0.1170;-0.1988
0000903252;6.8307;-15.2080;5.5833;2.5079;0.1492;-0.1888
0000903264;7.3694;-14.8393;5.7030;2.5658;0.2076;-0.1573
0000903272;7.5800;-14.4969;5.6958;2.6012;0.2146;-0.1490
0000903284;7.1228;-13.7786;5.5330;2.6023;0.2244;-0.1186
0000903292;6.7756;-13.3692;5.4372;2.6160;0.1981;-0.1037
0000903304;5.7221;-12.4690;5.3271;2.5796;0.1403;-0.0881
0000903312;5.4660;-11.6646;5.5162;2.5652;0.1025;-0.0895
0000903324;5.2672;-10.8505;5.7676;2.4684;0.0486;-0.0967
0000903332;5.6743;-10.1921;5.6671;2.3509;0.0260;-0.0894
0000903340;5.9951;-9.7444;5.6814;2.2246;0.0109;-0.0858
0000903408;6.5027;-8.7628;4.8339;1.3712;-0.0358;0.0396
0000903416;6.2082;-8.7867;4.9847;1.2608;-0.0608;0.0641
0000903428;5.8371;-9.4691;5.2289;1.1491;-0.1154;0.0771
0000903436;5.6288;-9.8474;5.5258;1.1331;-0.1551;0.0709
0000903448;5.7557;-10.1730;5.8778;1.1017;-0.2089;0.0842
0000903456;6.3734;-10.4315;6.4643;1.0838;-0.2431;0.1022
0000903464;6.6822;-10.9367;6.6679;1.0834;-0.2603;0.1279
0000903476;7.2185;-11.4682;7.1323;1.1461;-0.2495;0.1552
0000903484;7.6806;-11.5089;7.4292;1.2213;-0.2338;0.1476
0000903496;7.4508;-11.5903;7.7237;1.3324;-0.2074;0.1175
0000903504;7.4292;-11.2288;8.3079;1.4115;-0.2030;0.0839
0000903516;7.4364;-11.1929;8.7819;1.4586;-0.2004;0.0408
0000903524;7.3023;-11.1713;8.5593;1.5035;-0.1941;0.0033
0000903536;7.5058;-11.4108;8.8585;1.5803;-0.1949;-0.0230
0000903544;7.6184;-11.6693;8.9232;1.6531;-0.1915;-0.0310
0000903552;7.6519;-12.0476;8.5688;1.7372;-0.1676;-0.0388
0000903564;7.9847;-12.3948;9.0788;1.8991;-0.1223;-0.0490
0000903572;8.0804;-12.6246;8.9878;2.0053;-0.0971;-0.0521
0000903584;7.8243;-12.8664;8.6431;2.1522;-0.0565;-0.0693
0000903592;7.4843;-12.9909;8.4683;2.2493;-0.0416;-0.0733
0000903604;7.1682;-13.2519;7.9871;2.4063;-0.0530;-0.1298
0000903612;6.9983;-13.5296;7.6926;2.4910;-0.0578;-0.1699
0000903680;5.3271;-13.2806;6.6511;3.8448;-0.2662;-1.0020
0000903688;4.7070;-12.8138;8.1618;4.1639;-0.2998;-0.9324
0000903700;3.5578;-11.8034;10.6183;4.3656;-0.3471;-0.8683
0000903708;1.9082;-11.3030;12.4091;4.3656;-0.4202;-0.8070
0000903716;0.1293;-10.7739;13.2328;4.3656;-0.5524;-0.7027
0000903728;-1.9201;-9.6606;12.9000;4.3656;-0.9453;-0.5947
0000903736;-1.6496;-8.4324;12.0428;4.3656;-1.2530;-0.5813
0000903748;1.1827;-5.1715;9.1099;4.3656;-1.7628;-0.6045
0000903756;3.6488;-3.0119;7.5537;4.3656;-1.9874;-0.6201
0000903768;7.2305;-0.6009;3.4788;4.3656;-1.9461;-0.6015
0000903776;8.2504;1.3982;2.6983;4.1717;-1.6635;-0.6382
0000903788;9.7492;6.2848;1.6281;2.6845;-1.1209;-0.5399
0000903796;10.6303;9.5050;1.6209;2.0989;-0.6967;-0.2703
0000903808;12.1793;15.5599;1.1277;2.0853;-0.0746;0.4013
0000903816;11.0349;14.5472;2.2505;2.8499;0.3457;0.7726
0000903824;13.7164;21.9285;-1.6999;3.6972;0.9306;0.9710
0000903836;13.7738;28.5437;-8.3653;4.3588;1.4870;0.4238
0000903844;12.6893;23.6571;-16.2159;4.0838;1.8299;-0.2321
0000903856;10.9032;21.0881;-21.1264;2.6345;1.3751;-1.4570
0000903864;10.5728;21.6939;-18.3492;0.8331;0.8495;-2.0985
0000903876;10.1514;19.1871;-10.6111;-1.8206;0.5516;-2.1942
0000903884;9.2847;15.8281;-5.8634;-2.8999;0.5019;-1.9369
0000903952;3.7972;0.3065;8.5880;-4.3657;1.0392;-0.4114
0000903960;3.7733;-0.5842;8.6095;-4.3657;0.9074;-0.4036
0000903968;4.6136;-1.4341;7.7141;-4.0445;0.7789;-0.4342
0000903980;5.7317;-2.9808;5.4803;-3.4643;0.6538;-0.5279
0000903988;6.7924;-3.1005;4.0606;-3.1726;0.5714;-0.5397
0000904000;8.0373;-4.7333;1.9273;-2.7783;0.4872;-0.4171
0000904008;8.4539;-5.1092;1.1971;-2.5031;0.4687;-0.2839
0000904020;8.4539;-5.6479;0.2442;-2.0989;0.4343;-0.0950
0000904028;8.4060;-5.8059;-0.5171;-1.7705;0.4147;-0.0246
0000904040;7.5226;-5.8012;-0.4046;-1.3566;0.4783;-0.0081
0000904048;6.5362;-4.7525;-0.2801;-1.2155;0.5448;-0.1367
0000904060;4.3766;-2.2505;0.7757;-1.0840;0.4972;-0.4826
0000904068;3.3878;0.0503;2.2194;-1.1958;0.4598;-0.7404
0000904076;2.2841;1.7334;3.5745;-1.5414;0.4431;-0.9423
0000904088;2.3511;2.1237;4.0749;-2.2316;0.4303;-0.9854
0000904096;3.3447;0.8763;3.9576;-2.5319;0.4899;-0.8948
0000904108;4.4388;-1.0582;3.7014;-2.5819;0.6303;-0.6185
0000904116;4.1994;-1.6520;4.3862;-2.5885;0.6576;-0.5045
0000904128;3.6559;-1.3599;5.9783;-2.8069;0.6355;-0.5905
0000904136;3.3567;-0.7853;6.7876;-3.0222;0.6821;-0.8099
0000904148;2.7940;0.7973;9.2416;-3.3123;0.7683;-1.0431
0000904156;2.6624;1.6376;10.9894;-3.5005;0.7866;-1.0433
0000904164;2.1835;1.8555;12.9742;-3.7254;0.7727;-0.9647
0000904233;-7.4172;-10.6207;19.7091;-1.0134;1.0858;-1.4791
0000904242;-9.0166;-11.7603;18.1816;-0.6792;1.2284;-1.4152
0000904255;-7.7117;-13.0532;15.7515;-0.1583;1.5914;-1.2077
0000904264;-3.9528;-11.7723;12.9574;0.1937;1.7080;-1.0619
0000904277;0.7278;-11.4060;8.4539;0.5593;1.4109;-0.8391
0000904286;0.8140;-11.1115;6.1842;0.7218;1.2514;-0.5970
0000904299;2.5809;-10.4052;4.9273;0.7296;1.0544;-0.1621
0000904308;3.0885;-10.1538;4.4460;0.6855;0.9062;0.1440
0000904317;3.5482;-9.4619;3.8690;0.7080;0.7426;0.3512
0000904330;2.3511;-8.5952;3.7565;0.7549;0.5103;0.4505
0000904339;1.7142;-7.8314;3.7852;0.7345;0.3841;0.4434
0000904352;0.9673;-6.8809;3.8355;0.5861;0.2466;0.3289
0000904361;0.7733;-6.5266;3.8259;0.4088;0.1303;0.1955
0000904374;1.4605;-5.8826;3.9600;0.1258;-0.0775;-0.0336
0000904383;1.7430;-5.6647;4.3000;-0.1094;-0.2292;-0.1927
0000904396;1.6975;-5.6383;5.2385;-0.4225;-0.4984;-0.3749
0000904405;1.2163;-5.9568;5.5138;-0.5875;-0.6471;-0.4171
0000904414;1.0104;-5.9664;5.9687;-0.6768;-0.7689;-0.4294
0000904427;0.5938;-6.3303;6.2465;-0.7881;-0.9250;-0.3865
0000904436;0.5339;-6.6463;6.2345;-0.8480;-1.0111;-0.3483
0000904449;0.7661;-7.0006;6.7038;-0.9206;-1.1335;-0.3235
0000904458;1.2546;-6.9767;7.2137;-0.9511;-1.2069;-0.3135
0000904527;1.3503;-10.4794;10.8290;-1.1722;-1.1631;0.0594
0000904536;1.4126;-11.3653;11.4946;-0.9446;-1.0808;0.1135
0000904549;2.4349;-11.8489;11.6119;-0.4250;-0.9750;0.1865
0000904558;3.3016;-11.9542;11.4179;-0.0461;-0.9922;0.2080
0000904571;5.5689;-11.0947;10.3549;0.4698;-1.1363;0.2330
0000904580;6.4452;-10.3022;9.3326;0.7572;-1.2376;0.2842
0000904589;7.1443;-9.4930;8.6479;0.9258;-1.2911;0.3620
0000904602;7.3694;-8.5090;8.9495;0.9558;-1.2804;0.4429
0000904611;7.1180;-7.9487;9.3206;0.8517;-1.1975;0.4746
0000904624;6.8139;-7.2305;9.9695;0.5938;-0.9769;0.4671
0000904633;6.6248;-6.8139;9.7133;0.3865;-0.8196;0.4153
0000904646;6.5410;-6.5745;9.1818;0.1142;-0.5893;0.3052
0000904655;6.4284;-6.7540;9.0094;-0.0701;-0.4391;0.2483
0000904668;6.2991;-7.3334;8.8490;-0.2907;-0.2834;0.2265
0000904677;6.1220;-7.6710;9.0549;-0.3900;-0.2082;0.2481
0000904686;6.0214;-8.0517;9.3374;-0.4394;-0.1619;0.2762
0000904702;5.9927;-8.6287;9.6798;-0.4025;-0.1392;0.3019
0000904711;6.0478;-8.7700;9.7612;-0.3485;-0.1588;0.2978
0000904780;6.4476;-7.5992;9.8952;0.0432;-0.1655;0.0897
0000904789;6.4667;-7.6231;9.7875;0.0191;-0.1168;0.0490
0000904801;6.4979;-7.5106;9.5720;-0.0309;-0.0369;0.0116
0000904810;6.1675;-7.6734;9.6438;-0.0650;0.0320;-0.0181
0000904819;5.7437;-7.9368;9.6007;-0.0990;0.0845;-0.0401
0000904832;5.3463;-8.2169;9.4619;-0.1215;0.1354;-0.0803
0000904841;5.1954;-8.3534;9.5361;-0.1154;0.1486;-0.1039
0000904853;4.8746;-8.3653;9.5170;-0.1019;0.1488;-0.1098
0000904862;4.4676;-8.4228;9.4834;-0.0777;0.1419;-0.1030
0000904875;4.0797;-8.4851;9.4403;-0.0236;0.1172;-0.0914
0000904884;4.0941;-8.2001;9.4164;0.0201;0.0843;-0.0930
0000904896;3.9169;-8.1451;9.4020;0.0594;0.0501;-0.0831
0000904905;3.9792;-8.0613;9.3877;0.0874;0.0296;-0.0794
0000904914;4.0055;-7.9128;9.2512;0.1110;0.0071;-0.0833
0000904927;3.8882;-7.8051;9.2201;0.1018;-0.0024;-0.0969
0000904936;4.0270;-7.6112;9.0405;0.0891;-0.0036;-0.1002
0000904948;3.9696;-7.7117;8.9926;0.0665;-0.0135;-0.1103
0000904957;3.9241;-7.7045;9.1387;0.0381;-0.0184;-0.1103
0000904970;4.0342;-7.7692;8.9830;-0.0113;-0.0258;-0.1033
0000904979;4.0989;-7.8673;8.8346;-0.0377;-0.0357;-0.0982
0000904991;3.9696;-8.2025;8.7077;-0.0673;-0.0434;-0.0737
0000905000;3.9600;-8.3318;8.8298;-0.0713;-0.0617;-0.0669
0000905069;4.6687;-8.4922;9.4355;0.0218;-0.1131;0.0528
0000905078;4.8267;-8.3677;9.5577;0.0296;-0.1010;0.0689
0000905087;5.0542;-8.1211;9.4116;0.0360;-0.1037;0.0695
0000905099;5.0733;-8.1499;9.4834;0.0384;-0.0911;0.0658
0000905108;5.1140;-8.1355;9.5457;0.0277;-0.0787;0.0703
0000905121;5.2529;-8.0996;9.4571;0.0220;-0.0758;0.0572
0000905130;5.2361;-8.0445;9.4571;0.0063;-0.0641;0.0618
0000905142;5.5162;-7.9847;9.4451;-0.0023;-0.0640;0.0481
0000905151;5.3702;-7.9416;9.3063;-0.0100;-0.0552;0.0466
0000905160;5.3415;-7.9918;9.3948;-0.0147;-0.0542;0.0322
0000905173;5.2074;-8.0062;9.3398;-0.0196;-0.0601;0.0163
0000905182;5.1020;-7.9775;9.4355;-0.0224;-0.0665;0.0061
0000905194;4.9775;-8.0278;9.4188;-0.0226;-0.0762;-0.0099
0000905203;5.0302;-8.0302;9.3805;-0.0266;-0.0723;-0.0133
0000905216;4.8937;-8.2025;9.4164;-0.0269;-0.0698;-0.0258
0000905225;5.0613;-8.1116;9.3374;-0.0268;-0.0717;-0.0376
0000905237;4.8985;-8.0780;9.4212;-0.0244;-0.0718;-0.0436
0000905246;4.9656;-7.9128;9.3278;-0.0277;-0.0606;-0.0380
0000905259;4.7405;-8.2073;9.2775;-0.0225;-0.0616;-0.0485
0000905268;4.7429;-8.0541;9.2895;-0.0254;-0.0508;-0.0390
0000905277;4.8243;-8.0900;9.3158;-0.0226;-0.0520;-0.0414
0000905289;4.5657;-8.2121;9.3134;-0.0165;-0.0492;-0.0313
0000905298;4.7046;-8.1283;9.2225;-0.0111;-0.0530;-0.0345
0000905367;4.9057;-8.0924;9.4284;-0.0113;-0.0145;-0.0027
0000905376;4.8937;-8.1068;9.2967;0.0003;-0.0201;-0.0055
0000905388;4.8483;-8.1930;9.2823;0.0032;-0.0193;-0.0048
0000905397;4.8914;-8.1738;9.2871;-0.0051;-0.0103;0.0040
0000905410;4.9512;-8.0780;9.2273;-0.0065;-0.0088;0.0037
0000905419;4.9129;-8.1738;9.3589;-0.0017;-0.0225;-0.0099
0000905428;4.9823;-8.0110;9.3374;-0.0056;-0.0203;-0.0004
0000905440;4.8914;-8.2121;9.2895;-0.0039;-0.0273;-0.0087
0000905449;4.9608;-8.0924;9.2536;-0.0060;-0.0302;-0.0140
0000905462;4.7884;-8.1906;9.3398;-0.0028;-0.0341;-0.0131
0000905471;4.9704;-8.0804;9.3925;-0.0132;-0.0338;-0.0075
0000905483;4.8914;-8.2241;9.3901;-0.0229;-0.0309;-0.0085
0000905492;4.9249;-8.1355;9.4643;-0.0276;-0.0394;-0.0215
0000905505;4.9033;-8.1570;9.4786;-0.0330;-0.0394;-0.0201
0000905514;4.8411;-8.2384;9.3230;-0.0338;-0.0254;-0.0149
0000905526;4.9177;-8.1451;9.3398;-0.0257;-0.0232;-0.0157
0000905535;4.8195;-8.0445;9.3134;-0.0285;-0.0268;-0.0149
0000905544;4.7908;-8.1068;9.4284;-0.0217;-0.0248;-0.0195
0000905557;4.9105;-8.0278;9.3206;-0.0232;-0.0266;-0.0226
0000905566;4.8626;-8.0565;9.3063;-0.0220;-0.0252;-0.0204
0000905578;4.9560;-8.0445;9.2201;-0.0232;-0.0230;-0.0233
0000905587;4.9416;-8.0014;9.3637;-0.0179;-0.0222;-0.0245
0000905656;4.8650;-8.0876;9.2895;-0.0032;-0.0159;-0.0129
0000905665;4.8363;-8.2456;9.4116;0.0001;-0.0205;-0.0192
0000905677;4.7764;-8.1858;9.3709;-0.0011;-0.0234;-0.0100
0000905686;4.8746;-8.1116;9.3398;-0.0013;-0.0220;-0.0132
0000905699;4.5801;-8.2911;9.3518;-0.0100;-0.0205;-0.0152
0000905708;4.8866;-8.0996;9.3518;-0.0120;-0.0180;-0.0132
0000905717;4.9392;-8.1379;9.3518;-0.0188;-0.0131;-0.0124
0000905729;4.8315;-8.1211;9.3398;-0.0242;-0.0077;-0.0120
0000905738;4.9057;-8.1977;9.2943;-0.0164;-0.0108;-0.0155
0000905751;4.9201;-8.0589;9.3637;-0.0140;-0.0120;-0.0253
0000905760;4.9464;-8.0924;9.2967;-0.0181;-0.0128;-0.0218
0000905772;4.8052;-8.1187;9.3781;-0.0224;-0.0125;-0.0205
0000905781;4.7501;-8.1379;9.3350;-0.0171;-0.0176;-0.0222
0000905794;4.9105;-8.1475;9.2536;-0.0212;-0.0127;-0.0173
0000905803;4.7381;-8.1930;9.2440;-0.0171;-0.0215;-0.0250
0000905815;4.8435;-8.0014;9.3446;-0.0185;-0.0212;-0.0222
0000905824;4.6615;-8.3199;9.3039;-0.0226;-0.0168;-0.0179
0000905833;4.6687;-8.2696;9.2608;-0.0213;-0.0148;-0.0169
0000905846;4.8818;-8.0996;9.3805;-0.0234;-0.0211;-0.0177
0000905855;4.6831;-8.1594;9.3829;-0.0211;-0.0201;-0.0125
0000905867;4.7405;-8.1642;9.3206;-0.0115;-0.0207;-0.0135
0000905876;4.8890;-8.0397;9.3494;-0.0120;-0.0148;-0.0167
0000905945;4.8937;-8.1307;9.2847;0.0041;-0.0119;-0.0161
0000905954;4.8411;-8.1570;9.3206;-0.0016;-0.0167;-0.0089
0000905966;4.7429;-8.1499;9.3901;-0.0135;-0.0184;-0.0064
0000905975;4.8123;-8.0996;9.2967;-0.0195;-0.0229;-0.0123
0000905984;4.7405;-8.1714;9.4212;-0.0229;-0.0125;-0.0095
0000905997;4.9584;-8.0828;9.3661;-0.0250;-0.0104;-0.0060
0000906006;4.6112;-8.3007;9.3039;-0.0103;-0.0164;-0.0136
0000906018;4.7166;-8.1139;9.2560;-0.0113;-0.0148;-0.0088
0000906027;4.6256;-8.1858;9.2775;-0.0144;-0.0160;-0.0111
0000906040;4.6974;-8.1690;9.2512;-0.0064;-0.0292;-0.0184
0000906049;4.6040;-8.1882;9.3063;-0.0125;-0.0213;-0.0164
0000906061;4.6926;-8.1499;9.3039;-0.0181;-0.0199;-0.0163
0000906070;4.6400;-8.1810;9.3206;-0.0125;-0.0228;-0.0195
0000906083;4.7285;-8.1642;9.2847;-0.0112;-0.0195;-0.0165
0000906092;4.6471;-8.2097;9.3518;-0.0212;-0.0195;-0.0188
0000906101;4.7070;-8.1977;9.2153;-0.0160;-0.0242;-0.0165
0000906113;4.7980;-8.0900;9.2225;-0.0195;-0.0238;-0.0139
0000906122;4.7214;-8.1594;9.2680;-0.0065;-0.0330;-0.0240
0000906135;4.6926;-8.1020;9.2943;-0.0075;-0.0394;-0.0217
0000906144;4.6040;-8.2456;9.3565;-0.0048;-0.0365;-0.0176
0000906156;4.7238;-8.0445;9.3709;-0.0093;-0.0345;-0.0133
0000906165;4.6950;-8.2025;9.2464;-0.0087;-0.0372;-0.0197
0000906233;4.7621;-8.2121;9.3350;-0.0220;-0.0418;-0.0117
0000906242;4.7453;-8.2768;9.3589;-0.0197;-0.0456;-0.0183
0000906255;4.7884;-8.0565;9.2057;-0.0173;-0.0506;-0.0120
0000906264;4.6998;-8.2504;9.2895;-0.0224;-0.0445;-0.0131
0000906273;4.7836;-8.1834;9.2105;-0.0196;-0.0458;-0.0096
0000906285;4.5562;-8.2935;9.2919;-0.0213;-0.0396;-0.0063
0000906294;4.8147;-8.0613;9.2967;-0.0165;-0.0450;-0.0149
0000906307;4.7405;-8.0924;9.2296;-0.0213;-0.0486;-0.0153
0000906316;4.6639;-8.1834;9.3230;-0.0264;-0.0421;-0.0117
0000906328;4.7453;-8.1403;9.3326;-0.0265;-0.0416;-0.0119
0000906337;4.8937;-8.0876;9.3015;-0.0201;-0.0508;-0.0139
0000906350;4.8937;-8.1690;9.2799;-0.0200;-0.0462;-0.0101
0000906359;4.7118;-8.2337;9.3541;-0.0230;-0.0456;-0.0100
0000906371;4.8722;-8.0254;9.2081;-0.0208;-0.0405;-0.0147
0000906380;4.5681;-8.2744;9.1722;-0.0137;-0.0449;-0.0140
0000906389;4.6543;-8.2504;9.3398;-0.0137;-0.0404;-0.0087
0000906402;4.7645;-8.3079;9.3302;-0.0160;-0.0490;-0.0140
0000906411;4.8890;-8.1570;9.3709;-0.0125;-0.0456;-0.0180
0000906423;4.7884;-8.2384;9.3254;-0.0071;-0.0428;-0.0136
0000906432;4.6855;-8.3246;9.2991;-0.0041;-0.0412;-0.0116
0000906445;4.5921;-8.2863;9.2464;-0.0171;-0.0438;-0.0079
0000906454;4.7022;-8.3055;9.3039;-0.0258;-0.0448;-0.0095
0000906524;4.5801;-8.2025;9.3230;-0.0196;-0.0526;-0.0081
0000906533;4.6328;-8.3821;9.3422;-0.0111;-0.0601;-0.0135
0000906546;4.8818;-8.0469;9.2368;-0.0133;-0.0609;-0.0080
0000906555;4.8411;-8.1092;9.2201;-0.0177;-0.0597;-0.0125
0000906564;4.9009;-8.0804;9.2368;-0.0192;-0.0526;-0.0068
0000906576;4.7884;-8.1116;9.2536;-0.0176;-0.0525;-0.0112
0000906585;4.8554;-8.0637;9.3685;-0.0192;-0.0490;-0.0144
0000906598;4.7357;-8.2408;9.2943;-0.0208;-0.0502;-0.0097
0000906607;4.8554;-8.1523;9.2392;-0.0260;-0.0481;-0.0055
0000906619;4.9464;-8.1331;9.3470;-0.0169;-0.0480;-0.0105
0000906628;4.9464;-8.0445;9.3087;-0.0132;-0.0580;-0.0175
0000906641;4.6424;-8.2313;9.3446;-0.0072;-0.0648;-0.0184
0000906650;4.9680;-8.0517;9.2680;-0.0087;-0.0568;-0.0108
0000906662;4.7501;-8.2025;9.3637;-0.0139;-0.0486;-0.0053
0000906671;4.7860;-8.2241;9.3111;-0.0132;-0.0526;-0.0079
0000906680;4.7381;-8.2361;9.3470;-0.0179;-0.0482;-0.0037
0000906693;4.9799;-8.1163;9.4212;-0.0167;-0.0489;-0.0133
0000906702;4.7549;-8.1523;9.3446;-0.0185;-0.0480;-0.0115
0000906714;4.9823;-8.0900;9.3063;-0.0232;-0.0452;-0.0179
0000906723;4.8147;-8.2768;9.3254;-0.0164;-0.0450;-0.0103
0000906736;4.9177;-8.0876;9.3230;-0.0175;-0.0461;-0.0065
0000906745;4.8818;-8.0373;9.3901;-0.0199;-0.0458;-0.0092
0000906815;4.8411;-8.0589;9.3948;-0.0208;-0.0430;-0.0109
0000906824;4.8602;-8.1618;9.3087;-0.0145;-0.0461;-0.0135
0000906833;4.8626;-8.1594;9.3063;-0.0136;-0.0406;-0.0115
0000906846;4.8507;-8.0804;9.2584;-0.0097;-0.0473;-0.0124
0000906855;4.8052;-8.1187;9.3206;-0.0072;-0.0465;-0.0071
0000906867;4.9464;-8.1762;9.3948;-0.0085;-0.0485;-0.0163
0000906876;4.7501;-8.1810;9.2632;-0.0133;-0.0390;-0.0111
0000906889;4.8459;-8.1523;9.1674;-0.0145;-0.0400;-0.0115
0000906898;4.8004;-8.2025;9.3541;-0.0109;-0.0404;-0.0097
0000906910;4.7764;-8.2696;9.5002;-0.0093;-0.0397;-0.0121
0000906919;4.9632;-8.1594;9.4260;-0.0088;-0.0441;-0.0205
0000906932;4.7764;-8.2720;9.2536;-0.0045;-0.0392;-0.0112
0000906941;4.8052;-8.1235;9.2727;0.0016;-0.0482;-0.0145
0000906950;4.9321;-8.2432;9.2991;-0.0115;-0.0377;-0.0071
0000906962;4.7549;-8.2432;9.2943;-0.0207;-0.0412;-0.0109
0000906971;4.9512;-8.1618;9.4068;-0.0215;-0.0422;-0.0152
0000906984;4.7477;-8.2863;9.3685;-0.0221;-0.0428;-0.0069
0000906993;4.7142;-8.2744;9.3541;-0.0185;-0.0377;-0.0091
0000907005;4.7549;-8.2193;9.3781;-0.0117;-0.0350;-0.0153
0000907014;4.7166;-8.2289;9.2440;-0.0064;-0.0348;-0.0123
0000907027;4.9392;-8.0732;9.3781;-0.0081;-0.0388;-0.0096
0000907036;4.7453;-8.1977;9.3733;-0.0028;-0.0436;-0.0112
0000907106;5.0182;-8.0565;9.2153;-0.0037;-0.0421;-0.0193
0000907115;4.9512;-8.1331;9.2871;-0.0092;-0.0373;-0.0139
0000907124;5.0015;-8.0445;9.2847;-0.0063;-0.0405;-0.0181
0000907137;4.8937;-8.0685;9.3015;-0.0019;-0.0497;-0.0169
0000907146;4.9009;-8.0685;9.3087;0.0005;-0.0445;-0.0124
0000907158;4.7381;-8.2576;9.3518;0.0004;-0.0522;-0.0139
0000907167;4.8123;-8.1810;9.3637;-0.0089;-0.0488;-0.0131
0000907180;4.8507;-8.1259;9.3063;-0.0107;-0.0540;-0.0123
0000907189;4.8937;-8.0804;9.4355;-0.0157;-0.0473;-0.0061
0000907201;4.8794;-8.2289;9.3948;-0.0157;-0.0432;-0.0064
0000907210;4.8698;-8.1858;9.3781;-0.0172;-0.0450;-0.0111
0000907223;4.9105;-8.1523;9.3972;-0.0203;-0.0422;-0.0120
0000907232;4.9895;-7.9655;9.4188;-0.0185;-0.0378;-0.0072
0000907241;4.8028;-8.2504;9.4164;-0.0163;-0.0368;-0.0081
0000907253;5.0422;-7.9416;9.4379;-0.0135;-0.0324;-0.0139
0000907262;4.9584;-8.1499;9.4355;-0.0121;-0.0268;-0.0136
0000907275;4.9297;-8.1092;9.3709;-0.0115;-0.0246;-0.0143
0000907284;4.8459;-8.1666;9.3637;-0.0167;-0.0177;-0.0084
0000907296;4.8626;-8.0517;9.3374;-0.0120;-0.0195;-0.0092
0000907305;5.0159;-8.0302;9.2632;-0.0195;-0.0159;-0.0124
0000907318;4.9584;-8.1163;9.3158;-0.0129;-0.0261;-0.0209
0000907327;4.7142;-8.1738;9.2536;-0.0185;-0.0185;-0.0171
0000907336;4.7405;-8.1882;9.2967;-0.0179;-0.0229;-0.0220
0000907406;4.7142;-8.2863;9.3302;-0.0139;-0.0144;-0.0183
0000907415;4.8004;-8.2049;9.3206;-0.0096;-0.0216;-0.0254
0000907428;4.8674;-8.1547;9.3996;-0.0108;-0.0149;-0.0229
0000907437;4.9249;-8.1762;9.2368;-0.0001;-0.0250;-0.0292
0000907449;4.8243;-8.0685;9.3685;0.0053;-0.0272;-0.0241
0000907458;4.8411;-8.1547;9.2847;0.0009;-0.0220;-0.0176
0000907471;4.9584;-8.1116;9.3087;-0.0121;-0.0157;-0.0148
0000907480;4.9752;-8.0206;9.3541;-0.0167;-0.0258;-0.0221
0000907492;4.8291;-8.2025;9.4403;-0.0213;-0.0157;-0.0204
0000907501;4.7621;-8.2552;9.3613;-0.0252;-0.0111;-0.0093
0000907510;4.8195;-8.1977;9.2344;-0.0203;-0.0121;-0.0129
0000907523;4.6878;-8.1259;9.2847;-0.0084;-0.0167;-0.0148
0000907532;4.5370;-8.1954;9.2536;-0.0144;-0.0180;-0.0151
0000907544;4.6974;-8.2121;9.2919;-0.0081;-0.0264;-0.0167
0000907553;4.7621;-8.2001;9.3565;-0.0113;-0.0208;-0.0173
0000907566;4.6088;-8.2025;9.3685;-0.0159;-0.0176;-0.0171
0000907575;4.8411;-8.1714;9.3877;-0.0140;-0.0147;-0.0216
0000907587;4.7669;-8.1379;9.2703;-0.0131;-0.0171;-0.0179
0000907596;4.7692;-8.0828;9.3182;-0.0199;-0.0156;-0.0180
0000907610;4.8507;-8.1116;9.3589;-0.0177;-0.0161;-0.0135
0000907619;4.7573;-8.3414;9.2392;-0.0128;-0.0215;-0.0230
0000907628;4.7812;-8.2576;9.4236;-0.0135;-0.0180;-0.0143
0000907697;4.7094;-8.1139;9.3302;-0.0116;-0.0250;-0.0191
0000907706;4.7908;-8.2768;9.3709;-0.0125;-0.0183;-0.0176
0000907718;4.8985;-8.1331;9.3637;-0.0119;-0.0165;-0.0153
0000907727;4.6232;-8.2552;9.3206;-0.0077;-0.0175;-0.0179
0000907740;4.8650;-8.0732;9.1985;-0.0143;-0.0093;-0.0184
0000907749;4.6902;-8.1259;9.4044;-0.0131;-0.0096;-0.0189
0000907761;4.6567;-8.2217;9.3470;-0.0144;-0.0123;-0.0167
0000907770;4.6400;-8.2672;9.3398;-0.0100;-0.0177;-0.0204
0000907783;4.6591;-8.1020;9.2632;-0.0100;-0.0152;-0.0209
0000907792;4.7692;-8.0996;9.3637;-0.0159;-0.0189;-0.0208
0000907799;4.8818;-8.1044;9.3494;-0.0140;-0.0201;-0.0232
0000907810;4.7788;-8.1403;9.2320;-0.0115;-0.0172;-0.0222
0000907818;4.8818;-8.0996;9.2991;-0.0144;-0.0141;-0.0168
0000907830;4.7142;-8.2935;9.3829;-0.0137;-0.0181;-0.0189
0000907838;4.8770;-8.0972;9.3158;-0.0160;-0.0119;-0.0137
0000907849;4.7621;-8.2337;9.2296;-0.0165;-0.0131;-0.0144
0000907857;4.8674;-8.2313;9.2368;-0.0121;-0.0226;-0.0200
0000907869;4.8195;-8.1642;9.3087;-0.0104;-0.0232;-0.0180
0000907877;4.7692;-8.1187;9.3350;-0.0072;-0.0280;-0.0224
