time;acc_x;acc_y;acc_z;gyro_x;gyro_y;gyro_z
0000200678;6.2848;-16.1345;0.6632;-0.0212;-0.0340;-0.0199
0000200686;6.1459;-16.2806;0.6800;-0.0153;-0.0342;-0.0184
0000200693;6.3039;-16.2111;0.8021;-0.0183;-0.0320;-0.0153
0000200701;6.2632;-16.2447;0.6249;-0.0213;-0.0292;-0.0188
0000200709;6.1675;-16.3117;0.7063;-0.0254;-0.0372;-0.0226
0000200717;6.1746;-16.2901;0.5602;-0.0220;-0.0365;-0.0241
0000200725;6.2848;-16.1920;0.6153;-0.0228;-0.0409;-0.0222
0000200733;6.1794;-16.2447;0.6129;-0.0171;-0.0501;-0.0240
0000200741;6.3877;-16.1968;0.5914;-0.0196;-0.0485;-0.0228
0000200749;6.2776;-16.1944;0.7039;-0.0173;-0.0490;-0.0248
0000200757;6.4572;-16.2111;0.6584;-0.0191;-0.0452;-0.0189
0000200765;6.4835;-16.1728;0.6345;-0.0220;-0.0405;-0.0129
0000200773;6.1699;-16.3237;0.6249;-0.0157;-0.0430;-0.0176
0000200781;6.4141;-16.0962;0.5962;-0.0228;-0.0424;-0.0147
0000200789;6.2441;-16.2303;0.6297;-0.0212;-0.0413;-0.0188
0000200797;6.4643;-16.1680;0.5291;-0.0224;-0.0372;-0.0155
0000200805;6.4404;-16.1106;0.5459;-0.0233;-0.0406;-0.0207
0000200813;6.3590;-16.1656;0.6584;-0.0256;-0.0338;-0.0177
0000200821;6.3662;-16.1728;0.6440;-0.0292;-0.0302;-0.0167
0000200829;6.2944;-16.1034;0.6321;-0.0207;-0.0354;-0.0177
0000200837;6.3135;-16.3165;0.6608;-0.0192;-0.0345;-0.0144
0000200845;6.2728;-16.2231;0.6225;-0.0238;-0.0294;-0.0096
0000200853;6.3829;-16.1656;0.7350;-0.0241;-0.0302;-0.0159
0000200861;6.5050;-16.0579;0.6656;-0.0176;-0.0352;-0.0147
0000200869;6.3446;-16.2566;0.7207;-0.0249;-0.0324;-0.0109
0000200877;6.2153;-16.2973;0.6608;-0.0284;-0.0268;-0.0100
0000200885;6.4045;-16.0627;0.7302;-0.0268;-0.0325;-0.0125
0000200893;6.3207;-16.1154;0.7326;-0.0284;-0.0312;-0.0136
0000200901;6.3542;-16.0986;0.7829;-0.0390;-0.0265;-0.0109
0000200909;6.2489;-16.1106;0.6297;-0.0373;-0.0353;-0.0160
0000200917;6.1627;-16.2351;0.7015;-0.0361;-0.0405;-0.0199
0000200925;6.3159;-16.2303;0.6704;-0.0368;-0.0378;-0.0129
0000200933;6.3063;-16.1585;0.7183;-0.0386;-0.0350;-0.0051
0000200941;6.1675;-16.3332;0.6800;-0.0378;-0.0298;-0.0071
0000200949;6.4236;-16.3045;0.7087;-0.0252;-0.0350;-0.0121
0000200957;6.3087;-16.2423;0.6800;-0.0245;-0.0301;-0.0087
0000200965;6.2489;-16.2854;0.6464;-0.0222;-0.0268;-0.0079
0000200973;6.2513;-16.3931;0.6153;-0.0099;-0.0341;-0.0109
0000200981;6.2776;-16.4075;0.6536;-0.0056;-0.0364;-0.0063
0000200989;6.2680;-16.2686;0.6249;-0.0136;-0.0302;-0.0061
0000200997;6.2130;-16.3955;0.6823;-0.0105;-0.0272;-0.0029
0000201005;6.1986;-16.3189;0.6369;-0.0139;-0.0293;-0.0080
0000201013;6.2058;-16.2662;0.6081;-0.0167;-0.0298;-0.0111
0000201021;6.4596;-15.9957;0.6321;-0.0280;-0.0313;-0.0084
0000201029;6.1794;-16.1321;0.7015;-0.0354;-0.0322;-0.0096
0000201037;6.0549;-16.2830;0.6297;-0.0342;-0.0353;-0.0133
0000201045;6.4452;-16.1633;0.6273;-0.0374;-0.0325;-0.0096
0000201053;6.2728;-16.2111;0.6704;-0.0362;-0.0441;-0.0167
0000201061;6.2584;-16.2901;0.4908;-0.0368;-0.0404;-0.0133
0000201069;6.3207;-16.2016;0.5435;-0.0388;-0.0381;-0.0129
0000201077;6.3255;-16.2542;0.5578;-0.0316;-0.0372;-0.0167
0000201085;6.3039;-16.3069;0.5842;-0.0318;-0.0330;-0.0069
0000201093;6.3614;-16.1728;0.6871;-0.0314;-0.0345;-0.0053
0000201101;6.3805;-16.2901;0.5674;-0.0193;-0.0402;-0.0085
0000201109;6.1411;-16.3189;0.6800;-0.0161;-0.0333;-0.0076
0000201117;6.3446;-16.0986;0.5243;-0.0173;-0.0302;-0.0029
0000201125;6.2872;-16.2662;0.5602;-0.0164;-0.0378;-0.0073
0000201133;6.1004;-16.3883;0.5722;-0.0129;-0.0404;-0.0136
0000201141;6.2273;-16.2351;0.6895;-0.0131;-0.0430;-0.0081
0000201149;6.4045;-16.1417;0.6823;-0.0179;-0.0358;-0.0119
0000201157;6.1986;-16.2782;0.6919;-0.0187;-0.0381;-0.0121
0000201165;6.2441;-16.3117;0.6273;-0.0116;-0.0416;-0.0121
0000201173;6.4141;-16.2040;0.6345;-0.0163;-0.0409;-0.0119
0000201181;6.2441;-16.2518;0.6105;-0.0100;-0.0417;-0.0164
0000201189;6.3207;-16.1609;0.6440;-0.0040;-0.0450;-0.0144
0000201197;6.2513;-16.3069;0.6393;-0.0083;-0.0402;-0.0109
0000201205;6.3422;-16.3332;0.6393;0.0000;-0.0442;-0.0132
0000201213;6.2058;-16.3596;0.6225;-0.0057;-0.0337;-0.0117
0000201221;6.2273;-16.3045;0.6847;-0.0067;-0.0373;-0.0088
0000201248;6.3159;-16.0962;0.6081;-0.0128;-0.0389;-0.0153
0000201256;6.3590;-16.1010;0.7063;-0.0139;-0.0396;-0.0136
0000201264;6.5266;-16.1345;0.6321;-0.0140;-0.0377;-0.0137
0000201272;6.4380;-16.1680;0.6440;-0.0107;-0.0442;-0.0213
0000201280;6.2896;-16.3380;0.6728;-0.0067;-0.0445;-0.0167
0000201288;6.4620;-16.1944;0.6249;-0.0092;-0.0392;-0.0120
0000201296;6.2848;-16.3644;0.6895;-0.0119;-0.0412;-0.0137
0000201304;6.4859;-16.1297;0.6800;-0.0112;-0.0358;-0.0112
0000201312;6.3542;-16.2159;0.6129;-0.0124;-0.0372;-0.0111
0000201320;6.3398;-16.2949;0.5986;-0.0051;-0.0408;-0.0160
0000201328;6.3351;-16.2279;0.5698;-0.0039;-0.0334;-0.0105
0000201336;6.3015;-16.2351;0.6249;-0.0101;-0.0324;-0.0104
0000201344;6.3375;-16.2590;0.6057;-0.0087;-0.0305;-0.0100
0000201352;6.3877;-16.2183;0.6369;-0.0129;-0.0288;-0.0107
0000201360;6.3231;-16.2207;0.6967;-0.0093;-0.0310;-0.0143
0000201368;6.4332;-16.0842;0.6560;-0.0067;-0.0316;-0.0156
0000201376;6.3566;-16.1297;0.6752;-0.0113;-0.0236;-0.0107
0000201384;6.1076;-16.3165;0.6393;-0.0089;-0.0250;-0.0116
0000201392;6.3255;-16.2662;0.6081;-0.0068;-0.0260;-0.0099
0000201400;6.5625;-16.0819;0.6488;-0.0044;-0.0310;-0.0080
0000201408;6.2560;-16.2782;0.5986;0.0008;-0.0274;-0.0096
0000201416;6.4691;-16.1561;0.5650;-0.0028;-0.0300;-0.0067
0000201424;6.3734;-16.2638;0.5674;0.0072;-0.0317;-0.0141
0000201432;6.2632;-16.2662;0.6057;0.0116;-0.0372;-0.0096
0000201440;6.2465;-16.3428;0.6201;0.0079;-0.0309;-0.0080
0000201448;6.1842;-16.3309;0.6249;0.0032;-0.0268;-0.0051
0000201456;6.4212;-16.0819;0.5938;0.0129;-0.0286;-0.0056
0000201464;6.2273;-16.2471;0.6847;0.0088;-0.0246;-0.0073
0000201472;6.3398;-16.1417;0.5986;0.0140;-0.0282;-0.0111
0000201480;6.2991;-16.0316;0.6967;0.0115;-0.0237;-0.0097
0000201488;6.2944;-16.2590;0.7350;0.0167;-0.0284;-0.0143
0000201496;6.3375;-16.1968;0.7685;0.0080;-0.0264;-0.0093
0000201504;6.2991;-16.1058;0.7207;0.0113;-0.0321;-0.0151
0000201512;6.2896;-16.2638;0.5986;0.0089;-0.0298;-0.0132
0000201520;6.2225;-16.2614;0.6560;0.0001;-0.0264;-0.0107
0000201528;6.4045;-16.2135;0.6871;0.0117;-0.0306;-0.0159
0000201536;6.1435;-16.3620;0.6369;0.0111;-0.0366;-0.0088
0000201544;6.5553;-16.2686;0.6656;0.0120;-0.0385;-0.0068
0000201552;6.3159;-16.2614;0.6967;0.0205;-0.0390;-0.0120
0000201560;6.1076;-16.5320;0.6967;0.0177;-0.0285;-0.0028
0000201568;6.3422;-16.2471;0.6967;0.0124;-0.0282;0.0008
0000201576;6.2058;-16.1944;0.7566;0.0099;-0.0281;-0.0035
0000201584;6.0549;-16.1728;0.7638;0.0083;-0.0278;-0.0065
0000201592;6.1938;-16.2566;0.6153;0.0009;-0.0302;-0.0104
0000201600;6.3829;-16.1249;0.6823;0.0019;-0.0378;-0.0149
0000201608;6.2010;-16.2327;0.6057;-0.0031;-0.0320;-0.0128
0000201616;6.2848;-16.2590;0.7183;-0.0117;-0.0273;-0.0087
0000201624;6.1938;-16.2566;0.6776;-0.0051;-0.0325;-0.0179
0000201632;6.4045;-16.1896;0.7518;-0.0049;-0.0264;-0.0111
0000201640;6.3734;-16.2135;0.6871;-0.0053;-0.0257;-0.0116
0000201648;6.2872;-16.2878;0.8212;0.0095;-0.0318;-0.0103
0000201656;6.2728;-16.2638;0.6656;0.0165;-0.0308;-0.0128
0000201664;6.3470;-16.2638;0.7015;0.0131;-0.0205;-0.0069
0000201672;6.1723;-16.3165;0.7111;0.0120;-0.0274;-0.0047
0000201680;6.2896;-16.0938;0.7254;0.0152;-0.0302;-0.0119
0000201688;6.3087;-16.1489;0.6895;0.0140;-0.0344;-0.0079
0000201696;6.2369;-16.1609;0.7374;0.0105;-0.0348;-0.0121
0000201704;6.2991;-16.2518;0.7254;0.0033;-0.0324;-0.0112
0000201712;6.3375;-16.0699;0.6823;0.0071;-0.0362;-0.0081
0000201720;6.3135;-16.0603;0.7446;0.0013;-0.0333;-0.0091
0000201728;6.3758;-16.0986;0.6991;0.0083;-0.0372;-0.0119
0000201736;6.2106;-16.1800;0.7398;0.0067;-0.0350;-0.0068
0000201744;6.3087;-16.2471;0.6943;0.0068;-0.0297;-0.0069
0000201752;6.3518;-16.0842;0.7111;0.0116;-0.0328;-0.0049
0000201760;6.4907;-16.1585;0.7422;0.0131;-0.0338;-0.0091
0000201768;6.3614;-16.2351;0.6943;0.0111;-0.0284;-0.0073
0000201776;6.2393;-16.1752;0.6919;0.0107;-0.0265;-0.0063
0000201784;6.3327;-16.1489;0.7901;0.0099;-0.0250;-0.0056
0000201792;6.3805;-16.0124;0.7518;0.0084;-0.0237;-0.0083
0000201800;6.2800;-16.1082;0.7901;0.0059;-0.0262;-0.0080
0000201885;6.2704;-16.2782;0.7973;0.0005;-0.0233;-0.0041
0000201892;6.4548;-16.1178;0.8092;0.0152;-0.0274;-0.0077
0000201900;6.2800;-16.0914;0.7949;0.0051;-0.0253;-0.0035
0000201908;6.2489;-16.3093;0.6656;0.0017;-0.0229;-0.0017
0000201916;6.3135;-16.1226;0.7278;0.0024;-0.0292;-0.0076
0000201924;6.2920;-16.2135;0.7614;0.0023;-0.0254;-0.0048
0000201932;6.2968;-16.1058;0.7183;0.0012;-0.0305;-0.0104
0000201940;6.2082;-16.2542;0.7733;-0.0027;-0.0262;-0.0060
0000201948;6.2273;-16.2758;0.7398;-0.0001;-0.0297;-0.0115
0000201956;6.4069;-16.0842;0.7781;0.0021;-0.0317;-0.0120
0000201964;6.2800;-16.1609;0.7685;-0.0019;-0.0253;-0.0068
0000201972;6.2465;-16.1513;0.7614;0.0001;-0.0381;-0.0141
0000201980;6.3303;-16.2279;0.8236;0.0049;-0.0334;-0.0132
0000201988;6.1675;-16.2279;0.7446;0.0013;-0.0293;-0.0061
0000201996;6.0908;-16.3404;0.7614;0.0097;-0.0378;-0.0128
0000202004;6.1507;-16.2135;0.7685;0.0027;-0.0322;-0.0052
0000202012;6.4572;-16.0028;0.7709;-0.0005;-0.0338;-0.0037
0000202020;6.4332;-16.2016;0.6991;0.0045;-0.0381;-0.0132
0000202028;6.2489;-16.0986;0.8499;-0.0029;-0.0345;-0.0052
0000202036;6.2369;-16.2255;0.6680;-0.0071;-0.0344;-0.0079
0000202044;6.3925;-16.0627;0.8236;0.0007;-0.0421;-0.0149
0000202052;6.0765;-16.2997;0.7853;-0.0052;-0.0378;-0.0059
0000202060;6.4428;-16.2447;0.7350;-0.0059;-0.0377;-0.0104
0000202068;6.3327;-16.2542;0.7781;-0.0039;-0.0362;-0.0087
0000202076;6.4763;-16.1441;0.7422;0.0012;-0.0380;-0.0132
0000202084;6.3686;-16.1680;0.7877;-0.0029;-0.0333;-0.0087
0000202092;6.3758;-16.0986;0.8092;-0.0052;-0.0325;-0.0029
0000202100;6.3183;-16.2135;0.7566;-0.0048;-0.0312;-0.0109
0000202108;6.5050;-16.1920;0.7207;0.0013;-0.0334;-0.0104
0000202116;6.2441;-16.2279;0.7470;-0.0044;-0.0292;-0.0053
0000202124;6.3734;-16.1728;0.8404;-0.0039;-0.0340;-0.0120
0000202132;6.4596;-16.1273;0.7925;-0.0176;-0.0256;-0.0100
0000202140;6.2273;-16.0914;0.7614;-0.0244;-0.0329;-0.0107
0000202148;6.2489;-16.1058;0.8116;-0.0273;-0.0402;-0.0205
0000202156;6.2489;-16.2279;0.8356;-0.0381;-0.0360;-0.0184
0000202164;6.1938;-16.1226;0.7901;-0.0382;-0.0405;-0.0241
0000202172;6.2513;-16.1537;0.7374;-0.0412;-0.0356;-0.0176
0000202180;6.3542;-16.1441;0.7638;-0.0413;-0.0356;-0.0201
0000202188;6.2968;-16.2901;0.7590;-0.0345;-0.0434;-0.0245
0000202196;6.3303;-16.1848;0.7494;-0.0348;-0.0336;-0.0218
0000202204;6.0645;-16.4003;0.8188;-0.0320;-0.0374;-0.0176
0000202212;6.3327;-16.1441;0.7877;-0.0317;-0.0356;-0.0171
0000202220;6.0717;-16.3572;0.6943;-0.0333;-0.0437;-0.0195
0000202228;6.2201;-16.2590;0.8164;-0.0364;-0.0442;-0.0179
0000202236;6.4452;-16.0316;0.8571;-0.0309;-0.0489;-0.0218
0000202244;6.2321;-16.1609;0.8428;-0.0321;-0.0452;-0.0241
0000202252;6.0956;-16.3045;0.7638;-0.0374;-0.0474;-0.0192
0000202260;6.2441;-16.2758;0.8092;-0.0372;-0.0398;-0.0226
0000202268;6.1699;-16.3285;0.7901;-0.0321;-0.0469;-0.0253
0000202276;6.2225;-16.3165;0.6871;-0.0253;-0.0453;-0.0260
0000202284;6.2776;-16.2590;0.7709;-0.0253;-0.0385;-0.0165
0000202292;6.4212;-16.1704;0.6560;-0.0140;-0.0429;-0.0156
0000202300;6.1723;-16.3931;0.7638;-0.0069;-0.0408;-0.0135
0000202308;6.3327;-16.2231;0.7039;-0.0005;-0.0374;-0.0097
0000202316;6.4835;-16.2351;0.6967;-0.0012;-0.0346;-0.0072
0000202324;6.3949;-16.2447;0.6440;0.0023;-0.0376;-0.0112
0000202332;6.2201;-16.2064;0.6847;-0.0020;-0.0336;-0.0091
0000202340;6.3087;-16.2207;0.7326;-0.0001;-0.0349;-0.0141
0000202348;6.4739;-16.0268;0.6943;-0.0085;-0.0342;-0.0123
0000202356;6.2752;-16.0699;0.6656;-0.0167;-0.0332;-0.0173
0000202364;6.1770;-16.2255;0.7685;-0.0143;-0.0378;-0.0248
0000202372;6.2968;-16.0459;0.7997;-0.0189;-0.0333;-0.0220
0000202380;6.3135;-16.1728;0.6776;-0.0249;-0.0321;-0.0216
0000202388;6.3351;-16.1297;0.7901;-0.0268;-0.0352;-0.0257
0000202396;6.3542;-16.1800;0.7901;-0.0204;-0.0392;-0.0266
0000202404;6.2991;-16.2734;0.7685;-0.0252;-0.0364;-0.0233
0000202412;6.4141;-16.1417;0.7446;-0.0294;-0.0312;-0.0175
0000202420;6.2201;-16.1848;0.6560;-0.0240;-0.0376;-0.0199
0000202428;6.2489;-16.2423;0.7733;-0.0184;-0.0346;-0.0168
0000202436;6.3327;-16.1872;0.8212;-0.0183;-0.0354;-0.0187
0000202521;6.2824;-16.1106;0.8092;-0.0269;-0.0384;-0.0216
0000202528;6.3734;-16.2135;0.7733;-0.0308;-0.0390;-0.0191
0000202536;6.3638;-16.2279;0.6776;-0.0294;-0.0352;-0.0181
0000202544;6.2058;-16.2782;0.7278;-0.0324;-0.0397;-0.0238
0000202552;6.0741;-16.3093;0.6728;-0.0344;-0.0353;-0.0203
0000202560;6.1986;-16.2135;0.6536;-0.0276;-0.0397;-0.0268
0000202568;6.4356;-16.0675;0.6177;-0.0254;-0.0458;-0.0260
0000202576;6.2560;-16.2494;0.7230;-0.0309;-0.0382;-0.0269
0000202584;6.3279;-16.1656;0.7446;-0.0290;-0.0454;-0.0297
0000202592;6.3829;-16.2064;0.6632;-0.0353;-0.0446;-0.0253
0000202600;6.1531;-16.3237;0.7087;-0.0296;-0.0472;-0.0324
0000202608;6.2848;-16.2614;0.6943;-0.0276;-0.0441;-0.0246
0000202616;6.2848;-16.1776;0.7087;-0.0297;-0.0434;-0.0213
0000202624;6.5410;-16.1585;0.7302;-0.0312;-0.0397;-0.0241
0000202632;6.3207;-16.2016;0.7661;-0.0274;-0.0421;-0.0244
0000202640;6.3686;-16.1441;0.6752;-0.0264;-0.0424;-0.0252
0000202648;6.3279;-16.2183;0.7685;-0.0266;-0.0342;-0.0169
0000202656;6.3542;-16.2183;0.6656;-0.0233;-0.0408;-0.0184
0000202664;6.3853;-16.1465;0.6440;-0.0237;-0.0342;-0.0148
0000202672;6.1794;-16.2878;0.7709;-0.0183;-0.0334;-0.0169
0000202680;6.2417;-16.3189;0.7542;-0.0228;-0.0302;-0.0205
0000202688;6.4093;-16.1633;0.7446;-0.0208;-0.0353;-0.0230
0000202696;6.2896;-16.1226;0.7638;-0.0305;-0.0301;-0.0193
0000202704;6.3015;-16.1848;0.7518;-0.0366;-0.0412;-0.0226
0000202712;6.3231;-15.9741;0.7111;-0.0436;-0.0352;-0.0261
0000202720;6.2632;-16.0651;0.7302;-0.0436;-0.0410;-0.0312
0000202728;6.1770;-16.1824;0.6991;-0.0457;-0.0424;-0.0317
0000202736;6.2944;-16.2566;0.6225;-0.0518;-0.0374;-0.0261
0000202744;6.3231;-16.2375;0.6752;-0.0482;-0.0365;-0.0286
0000202752;6.1818;-16.2973;0.6225;-0.0470;-0.0342;-0.0276
0000202760;6.2680;-16.4123;0.7446;-0.0414;-0.0341;-0.0284
0000202768;6.2752;-16.3452;0.7278;-0.0304;-0.0406;-0.0322
0000202776;6.2345;-16.3452;0.7135;-0.0248;-0.0396;-0.0293
0000202784;6.3566;-16.3117;0.6943;-0.0240;-0.0296;-0.0187
0000202792;6.2968;-16.3285;0.7159;-0.0193;-0.0340;-0.0196
0000202800;6.2968;-16.2399;0.6464;-0.0165;-0.0382;-0.0200
0000202808;6.1459;-16.3261;0.8021;-0.0152;-0.0389;-0.0208
0000202816;6.2082;-16.2686;0.6991;-0.0234;-0.0341;-0.0169
0000202824;6.3231;-16.1656;0.7661;-0.0260;-0.0370;-0.0141
0000202832;6.3303;-16.2231;0.6800;-0.0245;-0.0404;-0.0180
0000202840;6.2465;-16.2997;0.5794;-0.0288;-0.0357;-0.0149
0000202848;6.2106;-16.3332;0.7183;-0.0256;-0.0390;-0.0207
0000202856;6.4141;-16.1680;0.5866;-0.0229;-0.0373;-0.0173
0000202864;6.3566;-16.2327;0.6512;-0.0163;-0.0410;-0.0200
0000202872;6.3470;-16.2901;0.8021;-0.0141;-0.0393;-0.0262
0000202880;6.3398;-16.1776;0.7159;-0.0140;-0.0396;-0.0238
0000202888;6.4236;-16.1273;0.6249;-0.0171;-0.0344;-0.0185
0000202896;6.3686;-16.1393;0.7326;-0.0171;-0.0321;-0.0216
0000202904;6.4620;-16.2399;0.7039;-0.0105;-0.0416;-0.0228
0000202912;6.1651;-16.2854;0.6297;-0.0140;-0.0378;-0.0169
0000202920;6.2345;-16.2518;0.6895;-0.0148;-0.0278;-0.0148
0000202928;6.3351;-16.2518;0.6871;-0.0165;-0.0385;-0.0149
0000202936;6.3877;-16.1824;0.6728;-0.0183;-0.0338;-0.0169
0000202944;6.3638;-16.2159;0.7733;-0.0188;-0.0378;-0.0204
0000202952;6.1316;-16.3979;0.6321;-0.0188;-0.0452;-0.0238
0000202960;6.2920;-16.1968;0.6608;-0.0203;-0.0421;-0.0164
0000202968;6.2800;-16.1417;0.6297;-0.0224;-0.0402;-0.0195
0000202976;6.3398;-16.2471;0.6393;-0.0175;-0.0450;-0.0208
0000202984;6.4380;-16.2016;0.5507;-0.0189;-0.0348;-0.0120
0000202992;6.2848;-16.3404;0.6608;-0.0181;-0.0382;-0.0179
0000203000;6.3829;-16.3045;0.6632;-0.0112;-0.0440;-0.0197
0000203008;6.4524;-16.2973;0.6249;-0.0092;-0.0364;-0.0193
0000203016;6.2824;-16.2231;0.6057;-0.0128;-0.0324;-0.0144
0000203024;6.2968;-16.2566;0.6225;-0.0052;-0.0385;-0.0226
0000203032;6.2489;-16.3117;0.6057;-0.0111;-0.0337;-0.0161
0000203040;6.3734;-16.1752;0.7302;-0.0111;-0.0317;-0.0193
0000203048;6.2944;-16.2351;0.6943;-0.0092;-0.0370;-0.0199
0000203056;6.4236;-16.1321;0.6536;-0.0087;-0.0366;-0.0200
0000203064;6.2465;-16.3165;0.7207;-0.0116;-0.0313;-0.0128
0000203072;6.3734;-16.1513;0.7326;-0.0120;-0.0353;-0.0193
0000203158;6.5050;-16.1992;0.7853;0.0021;-0.0366;-0.0151
0000203165;6.2656;-16.2518;0.7207;-0.0039;-0.0292;-0.0092
0000203173;6.4811;-16.1321;0.7278;-0.0039;-0.0310;-0.0099
0000203181;6.4859;-16.1034;0.7015;0.0039;-0.0269;-0.0145
0000203189;6.1579;-16.4266;0.6800;0.0100;-0.0240;-0.0044
0000203197;6.2225;-16.4194;0.7278;0.0167;-0.0230;-0.0104
0000203205;6.3973;-16.2518;0.6823;0.0212;-0.0208;-0.0016
0000203213;6.3901;-16.3572;0.6225;0.0366;-0.0193;-0.0116
0000203221;6.4452;-16.4003;0.6536;0.0441;-0.0121;-0.0052
0000203229;6.1794;-16.6325;0.5507;0.0494;0.0012;0.0007
0000203237;6.3614;-16.5535;0.7063;0.0586;0.0037;-0.0024
0000203245;6.2608;-16.7283;0.6752;0.0781;0.0004;-0.0016
0000203253;6.3566;-16.6900;0.5818;0.0999;0.0008;0.0012
0000203261;6.2058;-16.6445;0.5626;0.1219;-0.0045;0.0083
0000203269;6.1818;-16.7259;0.6249;0.1483;-0.0109;0.0069
0000203277;6.2249;-16.6565;0.6752;0.1685;-0.0149;0.0144
0000203285;6.2058;-16.6900;0.5842;0.1796;-0.0161;0.0180
0000203293;6.2441;-16.6732;0.5387;0.2038;-0.0274;0.0169
0000203301;6.3542;-16.5798;0.5052;0.2137;-0.0313;0.0249
0000203309;6.2728;-16.7834;0.6201;0.2200;-0.0330;0.0386
0000203317;6.2896;-16.6397;0.5124;0.2368;-0.0404;0.0436
0000203325;6.2584;-16.8959;0.4836;0.2622;-0.0525;0.0476
0000203333;6.2058;-16.9342;0.5052;0.2890;-0.0526;0.0530
0000203341;6.3375;-16.7977;0.4046;0.3243;-0.0602;0.0526
0000203349;6.2848;-16.9940;0.3184;0.3543;-0.0644;0.0569
0000203357;6.3686;-16.8648;0.3136;0.3840;-0.0626;0.0612
0000203365;6.4811;-16.9007;0.2274;0.4120;-0.0653;0.0625
0000203373;6.3973;-17.0778;0.2658;0.4519;-0.0663;0.0754
0000203381;6.4596;-17.2095;0.1772;0.4818;-0.0646;0.0857
0000203389;6.4763;-17.1928;0.2945;0.5249;-0.0624;0.1010
0000203397;6.5625;-17.2670;0.4429;0.5716;-0.0508;0.1187
0000203405;6.5817;-17.3077;0.4070;0.6237;-0.0448;0.1302
0000203413;6.5027;-17.3173;0.6225;0.6860;-0.0488;0.1415
0000203421;6.3782;-17.3173;0.5890;0.7504;-0.0514;0.1537
0000203429;6.2513;-17.3628;0.5171;0.8172;-0.0548;0.1617
0000203437;6.1866;-17.1185;0.6105;0.8701;-0.0683;0.1671
0000203445;6.1962;-16.9509;0.6943;0.9270;-0.0899;0.1661
0000203453;6.0071;-16.7187;0.8140;0.9734;-0.0938;0.1725
0000203461;5.8826;-16.6972;0.8691;1.0035;-0.1090;0.1756
0000203469;5.7820;-16.6517;0.9840;1.0411;-0.1288;0.1729
0000203477;5.8012;-16.5918;1.0726;1.0653;-0.1406;0.1788
0000203485;5.7485;-16.6277;1.1947;1.1065;-0.1592;0.1785
0000203493;5.6814;-16.5224;1.1037;1.1410;-0.1811;0.1847
0000203501;5.8203;-16.3380;1.0367;1.1775;-0.2028;0.1931
0000203509;5.7437;-16.3979;1.0702;1.1940;-0.2298;0.1993
0000203517;5.9687;-16.2949;1.0511;1.2183;-0.2613;0.2029
0000203525;6.0310;-16.5008;1.0774;1.2351;-0.2835;0.2148
0000203533;6.2153;-16.6636;1.3072;1.2561;-0.2978;0.2256
0000203541;6.2345;-17.1976;1.5419;1.3101;-0.3176;0.2314
0000203549;6.8354;-17.3268;1.5993;1.3748;-0.3203;0.2486
0000203557;7.0988;-17.4992;1.6424;1.4529;-0.3218;0.2723
0000203565;7.0222;-17.7674;1.7597;1.5625;-0.3212;0.2903
0000203573;7.0964;-17.7985;1.6424;1.6697;-0.3072;0.3119
0000203581;7.1682;-17.6596;1.6209;1.7938;-0.3083;0.3311
0000203589;6.9408;-17.3580;1.6041;1.9409;-0.2914;0.3523
0000203597;6.6798;-17.0922;1.5131;2.0492;-0.2902;0.3599
0000203605;6.6583;-16.6684;1.5251;2.1114;-0.2859;0.3616
0000203613;6.4787;-16.5152;1.7957;2.1599;-0.2830;0.3517
0000203621;6.2513;-16.3883;2.0423;2.1705;-0.2832;0.3469
0000203629;6.4524;-16.0914;2.1141;2.1789;-0.2789;0.3259
0000203637;6.2632;-16.2901;2.2625;2.1863;-0.2810;0.3150
0000203645;6.2297;-16.4769;2.2601;2.1623;-0.2850;0.3162
0000203653;6.2489;-16.4458;2.2745;2.1645;-0.2942;0.3118
0000203661;6.2345;-16.7331;2.3080;2.1741;-0.3142;0.3064
0000203669;6.0023;-17.1688;2.4708;2.1726;-0.3178;0.2968
0000203677;5.7844;-17.3460;2.9951;2.2167;-0.3408;0.2719
0000203685;5.6599;-17.6524;2.9616;2.2747;-0.3540;0.2502
0000203693;5.7820;-17.5232;2.8539;2.3445;-0.3798;0.2230
0000203701;5.5474;-17.5974;2.9497;2.4111;-0.4117;0.2005
0000203709;5.5522;-17.4035;3.1364;2.4858;-0.4465;0.1949
0000203717;5.6623;-17.1688;3.3878;2.5634;-0.4896;0.1892
0000203803;7.9176;-15.6557;4.6064;2.8041;0.3240;-0.1011
0000203811;7.8554;-15.5839;4.6112;2.8302;0.4419;-0.1332
0000203819;8.2073;-15.4522;4.1875;2.8651;0.5313;-0.1591
0000203827;8.0756;-15.3947;4.2018;2.8980;0.6447;-0.1575
0000203835;8.2193;-15.0930;4.0797;2.9234;0.7610;-0.1398
0000203843;8.5760;-14.6693;4.0606;2.9375;0.8791;-0.1128
0000203851;8.8083;-14.3820;4.0127;2.9111;1.0123;-0.0617
0000203859;8.9280;-14.0204;4.2401;2.8774;1.1696;-0.0028
0000203867;9.4523;-13.6853;4.1539;2.8422;1.3323;0.0633
0000203875;9.5648;-13.2687;4.0677;2.7840;1.4942;0.1295
0000203883;9.8689;-12.6222;4.5226;2.7643;1.6345;0.1745
0000203891;9.8474;-11.8369;5.1212;2.6867;1.7712;0.1868
0000203899;9.9264;-11.0253;4.8818;2.6149;1.8931;0.1812
0000203907;9.6726;-9.9982;4.9728;2.5443;1.9921;0.1454
0000203915;9.1889;-8.8992;4.9991;2.4877;2.0797;0.0629
0000203923;8.1307;-8.2073;4.8315;2.3791;2.1537;-0.0396
0000203931;7.1132;-7.7620;4.4939;2.2214;2.2391;-0.1276
0000203939;6.0286;-7.0126;4.0270;2.0819;2.3213;-0.2334
0000203947;4.8866;-6.6990;3.5051;1.9305;2.3772;-0.3395
0000203955;4.2042;-6.2704;3.0263;1.7596;2.4237;-0.4449
0000203963;3.7230;-6.2369;2.8299;1.5206;2.4567;-0.5530
0000203971;3.8978;-6.3877;2.8132;1.2485;2.4733;-0.6534
0000203979;4.1587;-7.3167;2.7773;1.0032;2.4411;-0.7462
0000203987;4.7597;-7.9703;3.0143;0.8119;2.3874;-0.8186
0000203995;5.3295;-8.7867;3.3710;0.6843;2.3370;-0.8831
0000204003;5.8610;-9.1339;3.4405;0.6006;2.3036;-0.9357
0000204011;6.3039;-9.3230;3.3160;0.5407;2.2873;-0.9864
0000204019;6.0166;-9.6822;3.1244;0.4600;2.2799;-1.0115
0000204027;5.7413;-9.6151;2.8084;0.3497;2.2809;-1.0617
0000204035;5.4636;-9.6343;2.4349;0.2505;2.2961;-1.1342
0000204043;4.6855;-9.6462;2.3679;0.1535;2.2952;-1.1952
0000204051;3.9289;-9.6630;2.7102;0.0709;2.2853;-1.2725
0000204059;3.5410;-9.5624;2.9281;-0.0061;2.2553;-1.3546
0000204067;2.8276;-9.7492;3.2896;-0.0699;2.1867;-1.4274
0000204075;2.6049;-9.5289;4.0677;-0.1440;2.0824;-1.4665
0000204083;2.4445;-9.7205;4.6807;-0.2137;1.9815;-1.4897
0000204091;2.3176;-9.7947;4.8339;-0.2649;1.8770;-1.4889
0000204099;2.3128;-9.9647;4.7429;-0.3260;1.7773;-1.4598
0000204107;2.3056;-9.9958;4.7836;-0.3942;1.6870;-1.4417
0000204115;2.5666;-9.8114;4.7381;-0.4642;1.5974;-1.4469
0000204123;2.7078;-9.7444;4.7908;-0.5331;1.5375;-1.4397
0000204131;3.1747;-9.4260;4.6735;-0.5879;1.4989;-1.4498
0000204139;3.3136;-9.4954;4.4197;-0.6444;1.4690;-1.4537
0000204147;3.6512;-9.3733;4.3191;-0.6987;1.4633;-1.4691
0000204155;3.9792;-9.7588;4.1851;-0.7546;1.4679;-1.4954
0000204163;4.0893;-10.1969;4.3718;-0.8046;1.4710;-1.5387
0000204171;4.6615;-10.6997;4.5586;-0.8443;1.4805;-1.5760
0000204179;4.8914;-11.5041;4.5203;-0.8847;1.5108;-1.6046
0000204187;5.2265;-12.3158;4.2904;-0.9037;1.5516;-1.6840
0000204195;5.1260;-13.2615;4.2066;-0.9188;1.5901;-1.7465
0000204203;5.6838;-13.9103;3.9265;-0.8772;1.6398;-1.8354
0000204211;5.8107;-14.6621;3.7230;-0.8055;1.6892;-1.9151
0000204219;5.9687;-15.1697;3.4069;-0.7025;1.7608;-1.9898
0000204227;5.8538;-15.3133;3.2322;-0.5662;1.8479;-2.0781
0000204235;5.5162;-15.2319;3.1915;-0.4210;1.9171;-2.1671
0000204243;5.4085;-14.8776;2.7629;-0.2904;1.9809;-2.2700
0000204251;5.4372;-14.5998;1.9106;-0.1684;2.0153;-2.3904
0000204259;5.7964;-14.1258;1.4437;-0.0417;2.0407;-2.5127
0000204267;5.4564;-13.7475;2.0949;0.0460;2.0236;-2.6489
0000204275;5.5067;-13.3118;4.4652;0.1908;1.8948;-2.7857
0000204283;5.1236;-12.8928;11.7747;0.4394;1.6638;-2.8478
0000204291;4.2952;-12.8569;20.0945;0.6167;1.2353;-2.9142
0000204299;2.8204;-13.4099;23.2764;0.5363;0.7938;-2.9581
0000204307;1.2210;-16.0316;15.6030;0.1403;0.5882;-2.8218
0000204315;-1.7023;-18.7753;-0.5315;-0.1256;0.9638;-2.3697
0000204323;-3.1915;-17.5471;-2.7797;0.1603;1.4818;-1.5549
0000204331;-4.4580;-15.6988;4.2066;0.3082;1.8627;-0.6324
0000204339;-0.7733;-13.9247;6.7756;0.3100;2.2431;0.1741
0000204347;3.9768;-13.2160;6.2297;0.3104;2.6512;0.8344
0000204355;7.7117;-13.2782;4.8004;0.3561;2.9188;1.3828
0000204363;11.0540;-13.5081;2.8778;0.4239;3.0899;1.6928
0000204371;15.5527;-13.2136;0.2921;0.4182;3.3414;1.5264
0000204456;-21.9285;-3.0263;-5.3917;1.0439;4.3656;4.3656
0000204464;-22.2062;2.5905;-0.4262;1.3411;4.3656;4.3656
0000204472;-22.1128;6.2513;-0.6081;1.3394;4.3656;4.3656
0000204480;-20.5949;6.4165;-6.0214;1.2863;3.0666;4.0758
0000204488;-21.0139;7.3550;-7.6064;1.0345;1.5771;3.4659
0000204496;-19.4242;7.5106;-7.6423;0.4660;0.3048;2.7188
0000204504;-17.8655;6.3949;-8.9974;-0.2883;-0.5830;2.1408
0000204512;-13.1154;2.8371;-8.0732;-1.3761;-1.1453;1.9152
0000204520;-8.7676;-1.4150;-9.4451;-2.3405;-1.4681;1.9722
0000204528;-7.2377;-4.1084;-7.4484;-2.9259;-1.3809;2.1302
0000204536;-5.5905;-5.9161;-5.2337;-3.1401;-0.9966;2.3511
0000204544;-4.8243;-7.7165;-4.5179;-2.6778;-0.3507;2.7524
0000204552;-2.9832;-8.4036;-3.6224;-1.9120;0.1380;3.0422
0000204560;-1.2929;-8.2528;-1.3408;-1.1289;0.4679;3.1300
0000204568;-0.0383;-8.0182;-0.6991;-0.4427;0.7945;3.0860
0000204576;0.7542;-6.7540;0.9122;0.0588;1.0010;2.9846
0000204584;1.2426;-5.3486;1.8052;0.3776;1.3536;2.8529
0000204592;-0.3256;-3.8068;0.7638;0.5601;1.7686;2.9467
0000204600;-5.0949;-1.8555;-0.6177;0.7524;2.1108;3.5298
0000204608;-12.8090;0.3352;-1.7334;0.9386;2.4301;4.3656
0000204616;-20.2693;2.0638;-4.0845;0.7837;2.6777;4.3656
0000204624;-20.2980;1.8747;-6.1938;-0.1350;2.3253;4.3656
0000204632;-13.7331;1.3120;-8.0445;-1.1718;1.1580;4.3656
0000204640;-6.9528;1.3312;-10.9798;-0.7823;0.1506;3.7458
0000204648;-4.0941;3.1580;-11.5209;-0.0797;-0.5403;2.6325
0000204656;-5.6383;4.7309;-10.2520;0.0433;-1.1971;1.4361
0000204664;-8.5760;5.6958;-7.5250;-0.0994;-1.6009;0.5384
0000204672;-8.7269;4.9201;-5.4085;-0.2467;-1.8674;-0.2024
0000204680;-7.1036;3.0382;-4.0414;-0.3910;-1.9063;-0.8390
0000204688;-4.9560;1.0175;-3.0574;-0.5123;-1.8912;-1.1985
0000204696;-3.4596;-1.0104;-2.5163;-0.5590;-1.7420;-1.3607
0000204704;-2.0470;-2.3607;-2.3104;-0.4553;-1.5306;-1.4189
0000204712;-0.7207;-2.9329;-1.6951;-0.1763;-1.3079;-1.4103
0000204720;0.0862;-3.0478;-0.7757;0.1545;-1.1482;-1.3953
0000204728;0.9625;-2.2984;-0.6464;0.4738;-0.9940;-1.4149
0000204736;1.7669;-1.1085;-0.6081;0.7621;-0.7790;-1.3840
0000204744;2.0327;0.0718;-0.6369;0.9130;-0.5561;-1.3566
0000204752;2.2984;1.0487;-1.0008;0.9004;-0.3870;-1.3556
0000204760;2.6049;2.1308;-1.3886;0.7520;-0.2639;-1.3856
0000204768;2.6288;2.5235;-1.1923;0.5720;-0.1326;-1.3891
0000204776;2.4541;2.5235;-1.8316;0.3793;0.0248;-1.3280
0000204784;1.9848;1.7454;-1.6185;0.2096;0.1388;-1.2522
0000204792;1.2761;1.0726;-1.2019;0.0934;0.2053;-1.1702
0000204800;-0.5914;-0.0503;-0.8667;-0.1011;0.2265;-1.1792
0000204808;-1.1444;-1.0870;-0.2490;-0.2498;0.1091;-1.2279
0000204816;-1.3096;-1.5921;-0.0982;-0.2317;0.0000;-1.3215
0000204824;-2.3703;-1.8364;0.5746;-0.1689;-0.0942;-1.4198
0000204832;-3.2513;-2.7605;0.8643;-0.2164;-0.1835;-1.5152
0000204840;-3.6679;-3.3639;1.3288;-0.3343;-0.2256;-1.6200
0000204848;-3.9002;-3.7613;1.0271;-0.4655;-0.2200;-1.6463
0000204856;-3.9337;-4.3431;1.1349;-0.5429;-0.2258;-1.5910
0000204864;-4.1827;-4.7621;1.4413;-0.6524;-0.2662;-1.5100
0000204872;-4.6878;-5.4923;1.7765;-0.7951;-0.3048;-1.4020
0000204880;-4.7740;-5.8778;2.6959;-0.9189;-0.3186;-1.2638
0000204888;-4.5825;-6.9719;2.0159;-1.0604;-0.3260;-1.0820
0000204896;-4.6807;-8.2337;0.6225;-1.1141;-0.3341;-0.8376
0000204904;-4.5633;-9.0597;0.2251;-1.1255;-0.3533;-0.5782
0000204912;-4.2952;-9.3565;0.5076;-1.1178;-0.3611;-0.3190
0000204920;-3.9816;-9.4882;1.2737;-1.0044;-0.3547;-0.1190
0000204928;-3.4740;-9.5577;1.4437;-0.7755;-0.3929;-0.0187
0000204936;-3.1580;-9.4691;1.3503;-0.5019;-0.4258;0.0429
0000204944;-2.6839;-9.1913;1.1372;-0.2406;-0.4610;0.0456
0000204952;-2.5642;-8.5186;1.2282;-0.0133;-0.4724;-0.0056
0000204960;-2.7150;-7.5346;1.3431;0.1707;-0.4634;-0.0778
0000204968;-3.1292;-6.5936;1.3240;0.3047;-0.4497;-0.1632
0000204976;-3.7134;-5.7820;1.1875;0.3679;-0.4157;-0.2126
0000204984;-4.1276;-4.9297;0.6776;0.3677;-0.3846;-0.2587
0000204992;-4.6304;-4.4484;0.5267;0.3010;-0.3589;-0.3076
0000205000;-4.8435;-3.9935;0.0263;0.1741;-0.3309;-0.3520
0000205008;-5.2505;-4.0366;-0.3687;0.0236;-0.3484;-0.4162
0000205016;-5.6216;-4.5753;-0.5531;-0.1340;-0.3639;-0.4806
0000205108;-1.8699;-8.7604;1.0965;0.3655;-0.2959;0.1254
0000205115;-1.7119;-8.2289;1.0463;0.4132;-0.2938;0.1631
0000205123;-1.8435;-7.5465;1.0295;0.4182;-0.2769;0.1871
0000205131;-2.1620;-7.1778;0.9673;0.4102;-0.2737;0.1875
0000205139;-2.4565;-6.7828;1.0606;0.3897;-0.2683;0.1924
0000205147;-2.5714;-6.3542;0.9744;0.3428;-0.2742;0.1853
0000205155;-2.8228;-6.1292;0.9625;0.2922;-0.2757;0.1745
0000205163;-3.3160;-6.0837;1.0822;0.2198;-0.2719;0.1697
0000205171;-3.4333;-5.7269;1.2809;0.1398;-0.2694;0.1533
0000205179;-3.6679;-5.9903;1.2282;0.0771;-0.2763;0.1455
0000205187;-4.0989;-6.2776;1.3264;0.0314;-0.2814;0.1419
0000205195;-4.0869;-6.4859;1.2713;0.0088;-0.2951;0.1507
0000205203;-4.0366;-6.6870;1.5371;-0.0003;-0.2936;0.1716
0000205211;-4.1084;-6.8091;1.4581;0.0120;-0.2966;0.1893
0000205219;-4.2449;-6.9647;1.4557;0.0205;-0.2939;0.2192
0000205227;-4.0318;-6.7900;1.3791;0.0298;-0.2927;0.2461
0000205235;-4.0917;-6.7516;1.4389;0.0413;-0.2986;0.2450
0000205243;-3.9672;-6.4620;1.5275;0.0344;-0.2895;0.2477
0000205251;-3.8714;-6.3494;1.4676;0.0328;-0.2919;0.2413
0000205259;-3.5578;-6.1483;1.5347;0.0201;-0.2814;0.2297
0000205267;-3.6990;-6.0454;1.4533;0.0029;-0.2666;0.2169
0000205275;-3.3112;-5.9113;1.3551;-0.0065;-0.2589;0.1985
0000205283;-3.4429;-5.8897;1.4676;-0.0177;-0.2545;0.1763
0000205291;-3.5123;-5.9304;1.3671;-0.0329;-0.2450;0.1612
0000205299;-3.6105;-5.9280;1.3599;-0.0473;-0.2410;0.1332
0000205307;-3.3543;-5.8347;1.1540;-0.0598;-0.2469;0.1098
0000205315;-3.4620;-5.8203;1.3216;-0.0678;-0.2579;0.0814
0000205323;-3.3998;-5.7389;1.2665;-0.0722;-0.2711;0.0458
0000205331;-3.5003;-5.9640;1.5514;-0.0750;-0.2738;0.0208
0000205339;-3.5267;-5.9520;1.5562;-0.0787;-0.2621;-0.0021
0000205347;-3.5913;-6.1507;1.7119;-0.0762;-0.2570;-0.0220
0000205355;-3.4213;-6.0454;1.8196;-0.0797;-0.2427;-0.0414
0000205363;-3.5554;-6.1627;1.8699;-0.0665;-0.2357;-0.0620
0000205371;-3.5362;-6.3135;1.8364;-0.0488;-0.2256;-0.0717
0000205379;-3.4884;-6.2441;1.9465;-0.0441;-0.2028;-0.0742
0000205387;-3.4620;-6.3183;1.8986;-0.0328;-0.1879;-0.0787
0000205395;-3.3974;-6.3614;2.0279;-0.0252;-0.1719;-0.0850
0000205403;-3.2657;-6.3518;1.9010;-0.0115;-0.1608;-0.0922
0000205411;-3.4189;-6.3829;2.0614;-0.0171;-0.1331;-0.0874
0000205419;-3.0550;-6.3877;2.0159;-0.0197;-0.1127;-0.0907
0000205427;-3.1723;-6.4931;2.0949;-0.0181;-0.0921;-0.0937
0000205435;-3.1220;-6.5457;2.0087;-0.0252;-0.0727;-0.0858
0000205443;-3.0981;-6.6176;2.1380;-0.0253;-0.0574;-0.0818
0000205451;-3.1029;-6.7397;2.0638;-0.0268;-0.0386;-0.0718
0000205459;-3.2920;-6.8091;2.0327;-0.0270;-0.0113;-0.0528
0000205467;-3.1388;-6.7205;1.8771;-0.0238;0.0080;-0.0428
0000205475;-3.2441;-6.6702;1.9872;-0.0123;0.0124;-0.0370
0000205483;-3.1532;-6.6343;1.8866;-0.0028;0.0296;-0.0222
0000205491;-3.1675;-6.4691;1.8172;0.0024;0.0386;-0.0139
0000205499;-3.3662;-6.5457;1.7286;0.0072;0.0496;-0.0051
0000205507;-3.3160;-6.4428;1.6688;0.0147;0.0454;-0.0053
0000205515;-3.5362;-6.3829;1.6376;0.0085;0.0450;-0.0067
0000205523;-3.4477;-6.4260;1.5897;0.0107;0.0330;-0.0116
0000205531;-3.6703;-6.3422;1.4916;0.0109;0.0244;-0.0101
0000205539;-3.7757;-6.3925;1.4557;0.0099;0.0161;-0.0100
0000205547;-3.6296;-6.3351;1.4293;0.0081;0.0049;-0.0112
0000205555;-3.6152;-6.4069;1.5179;0.0137;-0.0109;-0.0191
0000205563;-3.5434;-6.4452;1.5060;0.0119;-0.0207;-0.0136
0000205571;-3.6895;-6.4763;1.4820;0.0129;-0.0265;-0.0125
0000205579;-3.7302;-6.5745;1.5538;0.0141;-0.0389;-0.0129
0000205587;-3.4836;-6.3255;1.6712;0.0164;-0.0454;-0.0180
0000205595;-3.5219;-6.3949;1.6688;0.0095;-0.0461;-0.0075
0000205603;-3.5219;-6.4212;1.6664;0.0047;-0.0476;-0.0085
0000205611;-3.4524;-6.5098;1.5658;0.0081;-0.0513;-0.0076
0000205619;-3.5051;-6.5529;1.6328;0.0009;-0.0524;-0.0009
0000205627;-3.4979;-6.3901;1.6879;0.0019;-0.0516;-0.0013
0000205635;-3.5482;-6.4045;1.6448;0.0033;-0.0570;-0.0023
0000205643;-3.5865;-6.4620;1.6424;0.0015;-0.0612;-0.0015
0000205651;-3.6081;-6.4811;1.6185;-0.0099;-0.0550;0.0044
0000205659;-3.4381;-6.4380;1.6951;-0.0039;-0.0646;-0.0001
0000205747;-3.5291;-6.4045;1.6903;-0.0252;-0.0727;-0.0196
0000205756;-3.4500;-6.3853;1.7741;-0.0293;-0.0707;-0.0155
0000205765;-3.3854;-6.4548;1.6951;-0.0260;-0.0719;-0.0173
0000205774;-3.3806;-6.3590;1.7645;-0.0258;-0.0624;-0.0136
0000205783;-3.4189;-6.3398;1.8100;-0.0207;-0.0675;-0.0157
0000205792;-3.4907;-6.4308;1.7454;-0.0241;-0.0614;-0.0127
0000205801;-3.4596;-6.3997;1.8244;-0.0205;-0.0637;-0.0152
0000205810;-3.3710;-6.4284;1.6616;-0.0228;-0.0578;-0.0089
0000205819;-3.3998;-6.4212;1.6975;-0.0180;-0.0649;-0.0161
0000205828;-3.5267;-6.5170;1.7406;-0.0203;-0.0605;-0.0089
0000205837;-3.3662;-6.4835;1.7023;-0.0177;-0.0646;-0.0076
0000205846;-3.4979;-6.5027;1.6735;-0.0125;-0.0694;-0.0027
0000205855;-3.4381;-6.4739;1.6448;-0.0229;-0.0624;0.0017
0000205864;-3.5051;-6.4356;1.8387;-0.0151;-0.0629;0.0067
0000205873;-3.4189;-6.4236;1.8699;-0.0113;-0.0628;0.0016
0000205882;-3.3567;-6.4380;1.8004;-0.0071;-0.0582;0.0071
0000205891;-3.6009;-6.4045;1.8675;0.0021;-0.0640;0.0023
0000205900;-3.4812;-6.3686;1.6903;-0.0017;-0.0553;0.0076
0000205909;-3.5817;-6.4356;1.8507;-0.0012;-0.0570;0.0023
0000205918;-3.5386;-6.3494;1.8364;-0.0021;-0.0518;0.0027
0000205927;-3.4620;-6.2249;1.7693;-0.0008;-0.0516;-0.0043
0000205936;-3.4309;-6.1866;1.7909;-0.0032;-0.0544;-0.0057
0000205945;-3.5626;-6.3877;1.8507;-0.0101;-0.0422;-0.0071
0000205954;-3.6057;-6.3925;1.8100;-0.0035;-0.0524;-0.0173
0000205963;-3.5267;-6.3853;1.7980;-0.0081;-0.0438;-0.0155
0000205972;-3.4524;-6.3446;1.7717;-0.0144;-0.0382;-0.0165
0000205981;-3.5123;-6.2848;1.7669;-0.0051;-0.0421;-0.0220
0000205990;-3.5626;-6.4212;1.8316;-0.0161;-0.0414;-0.0258
0000205999;-3.5099;-6.3566;1.8220;-0.0184;-0.0338;-0.0215
0000206008;-3.4716;-6.4931;1.7909;-0.0153;-0.0369;-0.0292
0000206017;-3.5482;-6.3973;1.8052;-0.0160;-0.0336;-0.0197
0000206026;-3.4405;-6.4524;1.7334;-0.0091;-0.0334;-0.0218
0000206035;-3.4644;-6.4859;1.7957;-0.0143;-0.0349;-0.0193
0000206044;-3.4333;-6.2896;1.7262;-0.0124;-0.0304;-0.0183
0000206053;-3.5482;-6.5673;1.8004;-0.0047;-0.0448;-0.0226
0000206062;-3.6751;-6.4500;1.7478;-0.0136;-0.0389;-0.0167
0000206071;-3.6057;-6.4332;1.7382;-0.0108;-0.0477;-0.0147
0000206080;-3.3950;-6.3303;1.6376;-0.0131;-0.0440;-0.0207
0000206089;-3.4285;-6.3566;1.7909;-0.0216;-0.0378;-0.0123
0000206098;-3.4141;-6.4452;1.7957;-0.0125;-0.0477;-0.0167
0000206107;-3.3998;-6.4021;1.7406;-0.0104;-0.0453;-0.0085
0000206116;-3.5458;-6.4380;1.7526;-0.0115;-0.0482;-0.0117
0000206125;-3.5554;-6.4500;1.8028;-0.0104;-0.0476;-0.0093
0000206134;-3.4548;-6.4548;1.7645;-0.0100;-0.0501;-0.0064
0000206143;-3.4668;-6.4332;1.8028;-0.0087;-0.0521;-0.0147
0000206152;-3.4620;-6.4165;1.7957;-0.0175;-0.0465;-0.0073
0000206161;-3.4668;-6.4907;1.7214;-0.0163;-0.0509;-0.0077
0000206170;-3.4931;-6.4332;1.8076;-0.0095;-0.0554;-0.0127
0000206179;-3.5051;-6.4236;1.7430;-0.0177;-0.0537;-0.0085
0000206188;-3.4477;-6.5338;1.7573;-0.0088;-0.0570;-0.0085
0000206197;-3.4429;-6.3973;1.7166;-0.0164;-0.0478;-0.0069
0000206206;-3.5578;-6.5074;1.8268;-0.0105;-0.0545;-0.0099
0000206215;-3.4046;-6.2728;1.7549;-0.0115;-0.0509;-0.0045
0000206224;-3.2825;-6.2896;1.7573;-0.0141;-0.0522;-0.0121
0000206233;-3.3351;-6.3542;1.7549;-0.0151;-0.0489;-0.0059
0000206242;-3.4740;-6.3518;1.7597;-0.0100;-0.0548;-0.0143
0000206251;-3.3878;-6.3063;1.7980;-0.0151;-0.0538;-0.0095
0000206260;-3.3926;-6.2896;1.8387;-0.0112;-0.0494;-0.0087
0000206269;-3.4285;-6.3949;1.7813;-0.0121;-0.0526;-0.0093
0000206278;-3.4955;-6.4165;1.7789;-0.0117;-0.0480;-0.0111
0000206287;-3.6152;-6.4476;1.7861;-0.0060;-0.0480;-0.0095
0000206296;-3.3016;-6.3255;1.8699;-0.0075;-0.0524;-0.0197
0000206305;-3.6990;-6.5338;1.6783;-0.0107;-0.0430;-0.0093
0000206314;-3.4740;-6.3877;1.8244;-0.0156;-0.0486;-0.0155
0000206323;-3.3926;-6.3949;1.7142;-0.0112;-0.0496;-0.0132
0000206332;-3.5434;-6.4284;1.7621;-0.0081;-0.0506;-0.0133
0000206341;-3.5338;-6.4691;1.7861;-0.0139;-0.0534;-0.0108
0000206350;-3.4405;-6.4715;1.8316;-0.0103;-0.0520;-0.0100
0000206359;-3.4884;-6.4141;1.8292;-0.0160;-0.0448;-0.0075
0000206368;-3.3998;-6.3853;1.7837;-0.0073;-0.0546;-0.0063
0000206455;-3.5937;-6.2345;1.7789;-0.0143;-0.0492;-0.0123
0000206464;-3.4524;-6.3973;1.7717;-0.0153;-0.0474;-0.0128
0000206473;-3.5362;-6.5074;1.8794;-0.0127;-0.0493;-0.0096
0000206482;-3.4596;-6.2537;1.7693;-0.0031;-0.0496;-0.0136
0000206491;-3.4860;-6.4787;1.8148;-0.0076;-0.0502;-0.0119
0000206500;-3.4261;-6.4548;1.8220;-0.0067;-0.0502;-0.0119
0000206509;-3.4524;-6.4356;1.8148;-0.0067;-0.0513;-0.0109
0000206518;-3.4548;-6.4284;1.8076;-0.0025;-0.0545;-0.0108
0000206527;-3.3639;-6.4260;1.7813;0.0064;-0.0586;-0.0160
0000206536;-3.3279;-6.3111;1.8411;0.0011;-0.0560;-0.0100
0000206545;-3.4860;-6.4739;1.8052;-0.0001;-0.0622;-0.0068
0000206554;-3.4357;-6.2920;1.8483;0.0061;-0.0601;-0.0077
0000206563;-3.5410;-6.3638;1.8028;-0.0045;-0.0565;-0.0107
0000206572;-3.3782;-6.3351;1.7454;-0.0024;-0.0645;-0.0055
0000206581;-3.5913;-6.4739;1.8340;-0.0029;-0.0624;-0.0049
0000206590;-3.4548;-6.4236;1.8651;-0.0039;-0.0681;-0.0033
0000206599;-3.6224;-6.4356;1.8172;0.0008;-0.0662;-0.0003
0000206608;-3.5626;-6.3973;1.8507;0.0057;-0.0669;-0.0001
0000206617;-3.4213;-6.3782;1.7693;0.0087;-0.0638;0.0004
0000206626;-3.4836;-6.2656;1.8220;0.0169;-0.0741;-0.0088
0000206635;-3.4213;-6.2991;1.8818;0.0132;-0.0725;-0.0028
0000206644;-3.4788;-6.2896;1.8268;0.0101;-0.0743;-0.0087
0000206653;-3.4596;-6.3207;1.9225;0.0017;-0.0654;-0.0040
0000206662;-3.3974;-6.2489;1.8842;0.0031;-0.0725;-0.0135
0000206671;-3.3064;-6.2417;1.9656;0.0003;-0.0670;-0.0091
0000206680;-3.4046;-6.3207;1.8914;0.0000;-0.0637;-0.0104
0000206689;-3.4812;-6.4979;1.9896;-0.0013;-0.0585;-0.0044
0000206698;-3.4668;-6.3518;1.8268;0.0064;-0.0667;-0.0115
0000206707;-3.3734;-6.2728;1.8986;0.0007;-0.0584;-0.0063
0000206716;-3.4405;-6.3111;1.9321;0.0079;-0.0628;-0.0132
0000206725;-3.5147;-6.4739;1.9417;0.0032;-0.0585;-0.0051
0000206734;-3.2801;-6.3063;1.8914;-0.0032;-0.0604;-0.0055
0000206743;-3.2825;-6.2537;1.9178;0.0052;-0.0663;-0.0123
0000206752;-3.5362;-6.3829;1.8268;0.0017;-0.0638;-0.0093
0000206761;-3.3998;-6.1292;1.8387;0.0027;-0.0649;-0.0083
0000206770;-3.3567;-6.3015;1.8866;0.0015;-0.0588;-0.0069
0000206779;-3.4596;-6.3327;1.9920;0.0032;-0.0606;-0.0131
0000206788;-3.3303;-6.2800;1.8340;0.0048;-0.0561;-0.0123
0000206797;-3.4836;-6.3159;1.8747;0.0008;-0.0542;-0.0127
0000206806;-3.4093;-6.3734;1.8172;-0.0017;-0.0568;-0.0149
0000206815;-3.4165;-6.3686;1.8747;0.0016;-0.0658;-0.0127
0000206824;-3.3902;-6.3997;1.8699;-0.0044;-0.0622;-0.0093
0000206833;-3.4716;-6.3422;1.8459;-0.0007;-0.0719;-0.0143
0000206842;-3.3806;-6.4356;1.9297;-0.0069;-0.0620;-0.0067
0000206851;-3.3543;-6.3111;1.8747;-0.0003;-0.0713;-0.0100
0000206860;-3.4668;-6.4284;1.9441;-0.0015;-0.0701;-0.0076
0000206869;-3.4596;-6.3111;1.9201;-0.0091;-0.0610;-0.0011
0000206878;-3.4213;-6.3039;1.9130;-0.0089;-0.0574;0.0027
0000206887;-3.2633;-6.1866;1.9513;-0.0019;-0.0682;-0.0059
0000206896;-3.4979;-6.2321;1.9010;-0.0069;-0.0618;0.0001
0000206905;-3.4117;-6.2297;1.8675;-0.0044;-0.0640;-0.0076
0000206914;-3.5171;-6.3183;1.9201;-0.0072;-0.0601;-0.0052
0000206923;-3.3974;-6.2608;1.9321;-0.0168;-0.0576;-0.0072
0000206932;-3.4141;-6.3063;1.9632;-0.0173;-0.0553;-0.0088
0000206941;-3.3016;-6.2656;1.9034;-0.0143;-0.0620;-0.0157
0000206950;-3.3806;-6.3063;1.9585;-0.0187;-0.0549;-0.0123
0000206959;-3.3662;-6.2991;1.9393;-0.0139;-0.0597;-0.0187
0000206968;-3.3423;-6.4165;1.9465;-0.0097;-0.0581;-0.0172
0000206977;-3.5626;-6.4620;2.0135;-0.0123;-0.0514;-0.0105
0000206986;-3.4453;-6.4045;1.9249;-0.0081;-0.0604;-0.0143
0000206995;-3.2753;-6.2656;1.9848;-0.0127;-0.0516;-0.0132
0000207004;-3.3878;-6.2584;1.8938;-0.0085;-0.0524;-0.0145
0000207013;-3.3639;-6.2441;1.9752;-0.0045;-0.0569;-0.0177
0000207022;-3.5434;-6.3231;1.9872;-0.0107;-0.0464;-0.0147
0000207031;-3.4907;-6.3398;1.9896;-0.0116;-0.0452;-0.0128
0000207040;-3.3327;-6.2704;2.0446;-0.0087;-0.0472;-0.0137
0000207049;-3.2705;-6.2656;2.0423;-0.0088;-0.0522;-0.0193
0000207058;-3.3208;-6.3159;1.9489;-0.0071;-0.0538;-0.0218
0000207067;-3.4093;-6.3590;1.8747;-0.0093;-0.0506;-0.0201
0000207076;-3.3615;-6.2369;1.9441;-0.0128;-0.0477;-0.0157
0000207220;-3.2848;-6.3734;2.0423;-0.0116;-0.0386;-0.0218
0000207229;-3.4716;-6.5027;2.0518;-0.0135;-0.0350;-0.0209
0000207238;-3.2681;-6.2824;1.9656;-0.0184;-0.0330;-0.0151
0000207247;-3.1939;-6.2297;1.9944;-0.0152;-0.0398;-0.0221
0000207256;-3.5147;-6.3398;2.0207;-0.0115;-0.0302;-0.0168
0000207265;-3.5314;-6.3949;2.1117;-0.0152;-0.0292;-0.0159
0000207274;-3.2513;-6.1914;2.0446;-0.0116;-0.0281;-0.0233
0000207283;-3.5937;-6.4189;2.0016;-0.0192;-0.0222;-0.0240
0000207292;-3.3184;-6.3087;1.9632;-0.0240;-0.0161;-0.0222
0000207301;-3.4069;-6.3734;1.9345;-0.0148;-0.0248;-0.0203
0000207310;-3.2896;-6.5697;2.0135;-0.0199;-0.0187;-0.0119
0000207319;-3.4117;-6.4979;1.8723;-0.0088;-0.0276;-0.0080
0000207328;-3.2992;-6.3901;1.8986;-0.0064;-0.0258;-0.0044
0000207337;-3.2322;-6.3351;1.9656;0.0009;-0.0332;-0.0064
0000207346;-3.5913;-6.3853;1.8603;0.0020;-0.0360;-0.0060
0000207355;-3.4955;-6.4021;1.9920;-0.0051;-0.0357;-0.0040
0000207364;-3.3806;-6.3614;1.9369;-0.0073;-0.0314;0.0055
0000207373;-3.3112;-6.2896;1.9345;-0.0067;-0.0370;-0.0015
0000207382;-3.3160;-6.2465;1.9393;-0.0033;-0.0409;-0.0040
0000207391;-3.5602;-6.3925;1.9154;-0.0113;-0.0325;0.0005
0000207400;-3.3567;-6.1842;1.8962;-0.0121;-0.0341;-0.0045
0000207409;-3.3878;-6.1770;2.0135;-0.0084;-0.0389;-0.0112
0000207418;-3.3686;-6.2082;1.8675;-0.0136;-0.0365;-0.0128
0000207427;-3.3926;-6.1483;1.9609;-0.0145;-0.0392;-0.0108
0000207436;-3.4069;-6.1459;1.9680;-0.0195;-0.0376;-0.0173
0000207445;-3.4429;-6.2680;2.0039;-0.0192;-0.0360;-0.0168
0000207454;-3.5650;-6.4212;1.9297;-0.0149;-0.0392;-0.0220
0000207463;-3.4333;-6.2944;1.9824;-0.0212;-0.0332;-0.0148
0000207472;-3.4381;-6.3662;2.0159;-0.0204;-0.0365;-0.0173
0000207481;-3.2417;-6.2872;2.0375;-0.0157;-0.0336;-0.0180
0000207490;-3.6871;-6.5146;1.9800;-0.0213;-0.0257;-0.0151
0000207499;-3.4117;-6.2393;1.9992;-0.0117;-0.0342;-0.0205
0000207508;-3.3112;-6.2489;1.9872;-0.0129;-0.0301;-0.0204
0000207517;-3.5937;-6.4691;1.9944;-0.0159;-0.0285;-0.0159
0000207526;-3.5027;-6.3015;1.9872;-0.0112;-0.0358;-0.0212
0000207535;-3.4429;-6.4404;2.0446;-0.0157;-0.0314;-0.0155
0000207544;-3.5314;-6.4428;1.9704;-0.0133;-0.0280;-0.0145
0000207553;-3.5434;-6.4500;2.0063;-0.0157;-0.0276;-0.0133
0000207562;-3.5243;-6.4093;1.9441;-0.0075;-0.0318;-0.0135
0000207571;-3.3902;-6.2680;1.9417;-0.0043;-0.0338;-0.0180
0000207580;-3.5219;-6.3949;1.8938;-0.0164;-0.0293;-0.0093
0000207589;-3.4955;-6.3398;2.0255;-0.0115;-0.0342;-0.0116
0000207598;-3.2585;-6.1675;2.0494;-0.0139;-0.0318;-0.0100
0000207607;-3.3591;-6.3398;2.0039;-0.0047;-0.0378;-0.0119
0000207616;-3.5674;-6.4524;1.9632;-0.0108;-0.0342;-0.0076
0000207625;-3.2896;-6.2369;1.9393;-0.0028;-0.0360;-0.0105
0000207634;-3.4764;-6.3853;2.0734;-0.0071;-0.0350;-0.0057
0000207643;-3.3160;-6.3494;2.0183;-0.0028;-0.0360;-0.0073
0000207652;-3.4477;-6.3087;2.0255;-0.0132;-0.0306;-0.0065
0000207661;-3.4572;-6.2537;2.0303;-0.0104;-0.0390;-0.0129
0000207670;-3.3327;-6.2153;1.9752;-0.0160;-0.0301;-0.0125
0000207679;-3.3734;-6.3279;2.0135;-0.0196;-0.0312;-0.0137
0000207688;-3.2633;-6.3015;2.0470;-0.0241;-0.0261;-0.0139
0000207697;-3.6129;-6.3853;1.9752;-0.0205;-0.0280;-0.0176
0000207706;-3.5003;-6.3446;1.9417;-0.0153;-0.0321;-0.0208
0000207715;-3.4022;-6.4236;2.0542;-0.0164;-0.0296;-0.0165
0000207724;-3.3902;-6.2297;2.0016;-0.0151;-0.0313;-0.0201
0000207733;-3.4261;-6.4643;1.9417;-0.0192;-0.0322;-0.0165
0000207742;-3.4477;-6.4500;1.9992;-0.0083;-0.0370;-0.0175
0000207751;-3.3878;-6.3470;1.9082;-0.0139;-0.0366;-0.0124
0000207760;-3.5626;-6.4763;1.9609;-0.0069;-0.0341;-0.0128
0000207769;-3.5745;-6.2848;1.9130;0.0005;-0.0425;-0.0103
0000207778;-3.5362;-6.4524;1.9896;-0.0059;-0.0332;-0.0083
0000207787;-3.6799;-6.4093;1.9273;-0.0025;-0.0397;-0.0128
0000207796;-3.6392;-6.3111;1.8818;-0.0071;-0.0337;-0.0161
0000207805;-3.2274;-6.3039;1.8771;-0.0115;-0.0404;-0.0124
0000207814;-3.4740;-6.3566;1.9273;-0.0076;-0.0489;-0.0160
0000207823;-3.5027;-6.3997;1.9632;-0.0147;-0.0470;-0.0084
0000207832;-3.4836;-6.4069;1.9417;-0.0059;-0.0564;-0.0080
0000207920;-3.3160;-6.2345;1.9561;-0.0116;-0.0384;-0.0067
0000207929;-3.4093;-6.2201;1.9201;-0.0105;-0.0388;-0.0136
0000207938;-3.2274;-6.1124;2.0279;-0.0151;-0.0438;-0.0183
0000207947;-3.4740;-6.3183;2.0470;-0.0212;-0.0306;-0.0125
0000207956;-3.2753;-6.2345;1.9896;-0.0232;-0.0332;-0.0209
0000207965;-3.3112;-6.3255;2.0207;-0.0165;-0.0352;-0.0197
0000207974;-3.5291;-6.3446;2.0494;-0.0211;-0.0316;-0.0197
0000207983;-3.5434;-6.4356;2.0207;-0.0133;-0.0330;-0.0152
0000207992;-3.3734;-6.2489;2.0016;-0.0171;-0.0313;-0.0137
0000208001;-3.4022;-6.2991;1.9393;-0.0120;-0.0300;-0.0111
0000208010;-3.4788;-6.3087;2.0710;-0.0107;-0.0340;-0.0140
0000208019;-3.4716;-6.3710;2.0686;-0.0116;-0.0342;-0.0145
0000208028;-3.5362;-6.3638;2.0327;-0.0140;-0.0314;-0.0155
0000208037;-3.2825;-6.2632;2.0039;-0.0064;-0.0345;-0.0212
0000208046;-3.5410;-6.3758;2.0423;-0.0148;-0.0281;-0.0113
0000208055;-3.4046;-6.3470;1.9944;-0.0079;-0.0346;-0.0180
0000208064;-3.5434;-6.5074;1.9201;-0.0139;-0.0229;-0.0128
0000208073;-3.4931;-6.4069;1.9321;-0.0136;-0.0292;-0.0204
0000208082;-3.3447;-6.3734;1.9537;-0.0119;-0.0282;-0.0180
0000208091;-3.2944;-6.2537;1.9848;-0.0197;-0.0254;-0.0145
0000208100;-3.4333;-6.3901;2.0734;-0.0139;-0.0302;-0.0117
0000208109;-3.3902;-6.3207;1.9441;-0.0112;-0.0296;-0.0127
0000208118;-3.4141;-6.3351;1.9489;-0.0096;-0.0242;-0.0064
0000208127;-3.4907;-6.4380;1.9561;-0.0088;-0.0252;-0.0087
0000208136;-3.4333;-6.3446;1.8771;-0.0100;-0.0265;-0.0053
0000208145;-3.5650;-6.3063;1.9513;-0.0069;-0.0322;-0.0121
0000208154;-3.4261;-6.2393;2.0016;-0.0112;-0.0234;-0.0084
0000208163;-3.6296;-6.2944;1.9872;-0.0144;-0.0306;-0.0153
0000208172;-3.4285;-6.2537;2.0279;-0.0213;-0.0253;-0.0117
0000208181;-3.4189;-6.3063;2.0782;-0.0136;-0.0342;-0.0184
0000208190;-3.4860;-6.4548;1.9728;-0.0160;-0.0342;-0.0128
0000208199;-3.3974;-6.3422;1.9273;-0.0200;-0.0262;-0.0137
0000208208;-3.4069;-6.4428;1.9944;-0.0128;-0.0333;-0.0203
0000208217;-3.3950;-6.2896;1.9465;-0.0167;-0.0285;-0.0145
0000208226;-3.4572;-6.2752;1.8962;-0.0125;-0.0313;-0.0185
0000208235;-3.3902;-6.3494;1.9297;-0.0147;-0.0329;-0.0135
0000208244;-3.3902;-6.3758;1.9345;-0.0091;-0.0396;-0.0185
0000208253;-3.4357;-6.3662;2.0446;-0.0165;-0.0377;-0.0096
0000208262;-3.4716;-6.2106;1.9848;-0.0125;-0.0489;-0.0116
0000208271;-3.4165;-6.3183;2.0087;-0.0097;-0.0450;-0.0112
0000208280;-3.4836;-6.3997;1.9752;-0.0052;-0.0473;-0.0141
0000208289;-3.4572;-6.3351;2.0135;-0.0144;-0.0392;-0.0084
0000208298;-3.2753;-6.2537;1.8938;-0.0184;-0.0356;-0.0131
0000208307;-3.3998;-6.2201;1.9345;-0.0083;-0.0421;-0.0168
0000208316;-3.4955;-6.3279;2.0159;-0.0157;-0.0400;-0.0128
0000208325;-3.5458;-6.3901;1.9824;-0.0128;-0.0385;-0.0109
0000208334;-3.4309;-6.3375;2.0734;-0.0140;-0.0469;-0.0133
0000208343;-3.2465;-6.4572;2.0399;-0.0071;-0.0445;-0.0063
0000208352;-3.4572;-6.4284;2.0710;-0.0149;-0.0420;-0.0076
0000208361;-3.3495;-6.4212;1.9130;-0.0032;-0.0482;-0.0084
0000208370;-3.4381;-6.4045;1.9872;-0.0076;-0.0385;0.0009
0000208379;-3.3710;-6.2824;1.9920;-0.0048;-0.0424;-0.0007
0000208388;-3.4931;-6.4117;2.0925;-0.0071;-0.0330;0.0036
0000208397;-3.4644;-6.2034;2.0446;0.0009;-0.0416;-0.0043
0000208406;-3.4429;-6.1746;1.9968;-0.0048;-0.0328;0.0013
0000208415;-3.4117;-6.1986;2.0111;-0.0037;-0.0346;-0.0080
0000208424;-3.5721;-6.2489;1.9944;-0.0149;-0.0368;-0.0115
0000208433;-3.5147;-6.2800;1.9106;-0.0145;-0.0386;-0.0103
0000208442;-3.3208;-6.1842;1.9321;-0.0164;-0.0485;-0.0248
0000208451;-3.5195;-6.3782;1.9513;-0.0135;-0.0504;-0.0201
0000208460;-3.2441;-6.1818;1.9585;-0.0113;-0.0528;-0.0211
0000208469;-3.5027;-6.4787;1.9752;-0.0167;-0.0473;-0.0137
0000208478;-3.3782;-6.2345;1.9393;-0.0100;-0.0530;-0.0197
0000208487;-3.3902;-6.2537;1.9992;-0.0143;-0.0560;-0.0200
0000208496;-3.2298;-6.2680;2.0183;-0.0160;-0.0518;-0.0116
0000208505;-3.3591;-6.2991;2.0207;-0.0129;-0.0529;-0.0072
0000208514;-3.2825;-6.0980;1.9776;-0.0168;-0.0525;-0.0095
0000208523;-3.3710;-6.2800;2.0494;-0.0113;-0.0588;-0.0109
0000208532;-3.3232;-6.3566;1.9872;-0.0123;-0.0470;-0.0032
0000208541;-3.2417;-6.2608;2.0853;-0.0064;-0.0481;-0.0016
0000208629;-3.4812;-6.2800;2.0159;-0.0136;-0.0207;-0.0121
0000208638;-3.3471;-6.2273;2.0279;-0.0116;-0.0205;-0.0121
0000208647;-3.3998;-6.3135;2.0255;-0.0107;-0.0252;-0.0188
0000208656;-3.5554;-6.3207;2.0710;-0.0136;-0.0169;-0.0125
0000208665;-3.5506;-6.3758;1.9704;-0.0141;-0.0187;-0.0143
0000208674;-3.3926;-6.2201;1.9752;-0.0072;-0.0191;-0.0177
0000208683;-3.4237;-6.1866;2.0016;-0.0196;-0.0079;-0.0136
0000208692;-3.4117;-6.3805;2.0853;-0.0120;-0.0160;-0.0159
0000208701;-3.4572;-6.2920;1.9393;-0.0124;-0.0192;-0.0191
0000208710;-3.2944;-6.2106;1.9848;-0.0179;-0.0151;-0.0180
0000208719;-3.2417;-6.2058;2.0662;-0.0153;-0.0108;-0.0177
0000208728;-3.4884;-6.3949;2.0303;-0.0113;-0.0147;-0.0212
0000208737;-3.4309;-6.3662;1.9680;-0.0180;-0.0096;-0.0172
0000208746;-3.4644;-6.4548;1.9609;-0.0113;-0.0167;-0.0215
0000208755;-3.5219;-6.3734;1.9680;-0.0083;-0.0184;-0.0172
0000208764;-3.3782;-6.1627;1.9752;-0.0077;-0.0238;-0.0139
0000208773;-3.4285;-6.1579;2.0758;-0.0103;-0.0136;-0.0057
0000208782;-3.5338;-6.4931;1.9632;-0.0073;-0.0213;-0.0069
0000208791;-3.5626;-6.3829;1.9465;-0.0055;-0.0269;-0.0081
0000208800;-3.5985;-6.3398;2.0016;-0.0073;-0.0281;-0.0015
0000208809;-3.3806;-6.2153;1.9513;0.0005;-0.0313;-0.0072
0000208818;-3.3878;-6.2177;1.9513;-0.0051;-0.0269;-0.0076
0000208827;-3.4141;-6.3087;2.0255;-0.0083;-0.0308;-0.0031
0000208836;-3.3686;-6.2968;1.9034;-0.0035;-0.0312;-0.0104
0000208845;-3.4237;-6.3877;1.9513;-0.0105;-0.0304;-0.0051
0000208854;-3.4668;-6.2656;1.9680;-0.0111;-0.0353;-0.0071
0000208863;-3.3806;-6.2920;2.0111;-0.0129;-0.0342;-0.0107
0000208872;-3.2394;-6.3183;1.9824;-0.0127;-0.0381;-0.0065
0000208881;-3.5386;-6.3805;1.9920;-0.0057;-0.0457;-0.0096
0000208890;-3.2872;-6.2369;2.0159;-0.0131;-0.0377;-0.0013
0000208899;-3.5410;-6.4356;1.9704;-0.0115;-0.0422;-0.0036
0000208908;-3.3423;-6.1699;2.0231;-0.0060;-0.0454;-0.0093
0000208917;-3.4213;-6.1699;1.9776;-0.0123;-0.0374;0.0025
0000208926;-3.5171;-6.3087;2.0423;-0.0059;-0.0457;-0.0052
0000208935;-3.4884;-6.2824;2.0566;-0.0137;-0.0405;0.0013
0000208944;-3.5554;-6.3590;2.0830;-0.0140;-0.0388;-0.0059
0000208953;-3.4860;-6.2441;2.0758;-0.0107;-0.0404;-0.0064
0000208962;-3.4069;-6.1914;1.8986;-0.0053;-0.0458;-0.0092
0000208971;-3.4979;-6.3470;1.9824;-0.0101;-0.0397;-0.0035
0000208980;-3.5602;-6.3494;1.9345;-0.0068;-0.0460;-0.0060
0000208989;-3.4668;-6.2273;1.9441;-0.0075;-0.0466;-0.0105
0000208998;-3.5482;-6.3949;1.9920;-0.0079;-0.0500;-0.0100
0000209007;-3.3926;-6.2106;2.0039;-0.0124;-0.0501;-0.0129
0000209016;-3.4620;-6.1938;2.0111;-0.0133;-0.0513;-0.0153
0000209025;-3.5051;-6.2991;2.0159;-0.0119;-0.0534;-0.0185
0000209034;-3.4692;-6.3829;2.0518;-0.0179;-0.0478;-0.0117
0000209043;-3.4165;-6.2632;1.9992;-0.0153;-0.0485;-0.0204
0000209052;-3.3639;-6.3087;2.0925;-0.0113;-0.0400;-0.0112
0000209061;-3.2968;-6.3135;2.0183;-0.0088;-0.0400;-0.0116
0000209070;-3.4261;-6.2944;2.0327;-0.0032;-0.0381;-0.0145
0000209079;-3.3902;-6.2752;2.0446;-0.0073;-0.0301;-0.0115
0000209088;-3.2465;-6.0741;1.9297;-0.0059;-0.0312;-0.0091
0000209097;-3.3303;-6.2537;1.9345;-0.0104;-0.0310;-0.0156
0000209106;-3.3423;-6.2225;2.0159;-0.0103;-0.0322;-0.0233
0000209115;-3.5099;-6.2058;2.0877;-0.0185;-0.0234;-0.0169
0000209124;-3.5171;-6.3183;1.9800;-0.0143;-0.0340;-0.0297
0000209133;-3.2178;-6.2201;1.9178;-0.0187;-0.0254;-0.0164
0000209142;-3.4572;-6.4260;1.9130;-0.0153;-0.0301;-0.0175
0000209151;-3.4524;-6.3542;1.9585;-0.0140;-0.0249;-0.0167
0000209160;-3.5075;-6.3997;1.9728;-0.0029;-0.0318;-0.0201
0000209167;-3.3232;-6.2130;1.9968;-0.0031;-0.0297;-0.0153
0000209175;-3.4596;-6.3566;2.0039;-0.0047;-0.0276;-0.0073
0000209183;-3.4213;-6.3279;1.9273;-0.0044;-0.0301;-0.0188
0000209191;-3.3495;-6.2082;2.0159;-0.0015;-0.0341;-0.0172
0000209199;-3.5338;-6.4165;2.0207;-0.0075;-0.0356;-0.0117
0000209207;-3.5291;-6.2920;1.9848;-0.0119;-0.0333;-0.0148
0000209215;-3.4381;-6.2704;1.8675;-0.0155;-0.0329;-0.0148
0000209223;-3.3088;-6.1387;1.9848;-0.0167;-0.0388;-0.0193
0000209231;-3.4644;-6.2513;1.9944;-0.0133;-0.0364;-0.0171
