time;acc_x;acc_y;acc_z;gyro_x;gyro_y;gyro_z
0000206875;5.2577;-15.5551;10.7739;-0.3551;0.0690;-0.2357
0000206883;4.9177;-15.6126;11.0325;-0.3108;0.0352;-0.2734
0000206890;4.6663;-15.6365;11.4395;-0.2541;0.0023;-0.2975
0000206898;4.3072;-15.4522;11.9303;-0.2221;-0.0244;-0.3039
0000206965;5.8419;-14.0133;9.8330;0.0406;-0.0029;0.0129
0000206973;5.8706;-13.4746;9.6271;0.0514;0.0216;0.0064
0000206985;5.3247;-13.2328;9.2799;0.0236;0.0440;-0.0406
0000206993;5.1571;-13.2687;8.9998;0.0076;0.0514;-0.0811
0000207001;5.2074;-13.0987;9.0860;0.0136;0.0422;-0.1326
0000207012;5.6144;-13.1346;9.1818;0.0238;0.0309;-0.1952
0000207020;5.7724;-13.2328;9.2440;0.0381;0.0047;-0.2689
0000207032;5.7820;-12.8066;8.7747;0.0628;-0.0282;-0.3656
0000207040;5.5689;-12.9981;8.6335;0.0408;-0.0426;-0.4443
0000207051;5.5282;-13.0149;8.6574;0.0809;-0.0655;-0.5153
0000207059;5.6383;-12.6366;8.5162;0.1340;-0.0853;-0.5484
0000207071;5.8107;-12.1841;8.1163;0.1813;-0.1127;-0.5694
0000207079;5.8969;-11.8824;8.0110;0.1823;-0.1184;-0.5530
0000207090;5.8323;-11.7771;7.7333;0.2025;-0.1286;-0.5404
0000207098;5.9376;-11.4778;7.5705;0.2193;-0.1339;-0.5181
0000207106;6.0932;-11.1522;7.5082;0.2348;-0.1228;-0.4923
0000207118;6.0597;-11.1761;7.3071;0.2431;-0.1162;-0.4700
0000207126;6.3949;-10.9056;7.0413;0.2445;-0.1057;-0.4604
0000207137;6.3542;-10.7524;6.7540;0.2467;-0.0867;-0.4491
0000207145;6.4500;-10.4794;6.6295;0.2344;-0.0686;-0.4571
0000207157;6.5410;-10.2783;6.3015;0.2173;-0.0345;-0.4668
0000207165;6.1794;-10.3142;6.0813;0.1990;-0.0196;-0.4759
0000207232;5.5785;-8.5258;4.6567;-0.0269;0.0318;-0.3411
0000207240;5.4875;-8.4779;4.6184;-0.0846;0.0220;-0.2975
0000207252;5.4420;-8.4228;4.5729;-0.1911;0.0264;-0.2312
0000207260;5.2960;-8.2049;4.6208;-0.2573;0.0207;-0.1962
0000207268;5.4899;-8.0517;4.8435;-0.3403;0.0172;-0.1636
0000207279;5.2888;-8.1906;5.0159;-0.4586;0.0143;-0.1308
0000207287;5.6240;-8.0541;5.0733;-0.5653;0.0123;-0.1154
0000207299;5.6336;-8.3270;5.0446;-0.7385;0.0125;-0.0982
0000207307;5.7437;-8.6598;5.1451;-0.8488;0.0165;-0.0914
0000207318;5.7102;-9.2512;5.4277;-0.9785;-0.0024;-0.0918
0000207326;5.7748;-9.8067;5.4229;-1.0647;-0.0031;-0.0937
0000207338;5.4277;-10.5153;5.7174;-1.1505;-0.0484;-0.1022
0000207346;5.1882;-11.3198;5.8802;-1.1798;-0.0802;-0.1156
0000207354;5.1882;-11.5855;6.2968;-1.1955;-0.1240;-0.1423
0000207365;5.2026;-12.3732;6.6774;-1.1946;-0.1853;-0.1679
0000207373;5.3822;-12.7515;7.0150;-1.1846;-0.2081;-0.1703
0000207385;5.7341;-13.3022;7.3071;-1.1587;-0.2220;-0.1406
0000207393;6.1100;-13.1705;7.3646;-1.1595;-0.1998;-0.1042
0000207404;6.4667;-12.9526;7.3047;-1.1738;-0.1549;-0.0650
0000207412;6.5290;-12.8808;7.3717;-1.2137;-0.1136;-0.0505
0000207424;6.6415;-12.9454;7.4555;-1.3125;-0.0458;-0.0286
0000207432;6.4643;-13.3573;7.4915;-1.3812;-0.0143;-0.0426
0000207499;4.5945;-16.4865;7.1371;-1.5641;-0.0725;-0.1184
0000207507;4.5131;-16.6158;6.7900;-1.5504;-0.1111;-0.1023
0000207519;4.8315;-16.4889;6.3351;-1.4969;-0.1795;-0.0687
0000207527;5.1451;-16.0340;6.0430;-1.4815;-0.2062;-0.0328
0000207535;5.3606;-15.9023;5.7054;-1.4646;-0.2258;-0.0088
0000207546;5.7054;-15.3085;5.3032;-1.4348;-0.2353;0.0309
0000207554;5.8610;-14.9183;4.8698;-1.4380;-0.2362;0.0410
0000207566;6.1842;-14.8991;4.5466;-1.4601;-0.2230;0.0534
0000207574;6.3183;-14.7986;4.2473;-1.4695;-0.1977;0.0584
0000207585;6.2704;-14.6812;3.9887;-1.4943;-0.1597;0.0382
0000207593;6.2034;-14.8393;3.9121;-1.5020;-0.1230;0.0292
0000207605;6.1866;-14.9111;3.8690;-1.5131;-0.0761;0.0173
0000207613;6.3925;-15.1290;3.7517;-1.5147;-0.0437;0.0063
0000207624;6.2489;-15.4234;3.7757;-1.5100;-0.0101;-0.0045
0000207632;6.4643;-15.4163;3.6105;-1.4935;0.0099;-0.0171
0000207640;6.4524;-15.6485;3.6559;-1.4743;0.0180;-0.0284
0000207652;6.5266;-15.9334;3.5219;-1.4532;0.0356;-0.0401
0000207660;6.4165;-15.8927;3.4884;-1.4246;0.0382;-0.0493
0000207671;6.4596;-16.1417;3.5219;-1.3825;0.0485;-0.0496
0000207679;6.5912;-16.1848;3.4716;-1.3544;0.0497;-0.0521
0000207691;6.6272;-16.2087;3.3303;-1.3225;0.0462;-0.0494
0000207699;6.7349;-16.1321;3.2537;-1.2971;0.0393;-0.0524
0000207767;6.7947;-16.8121;2.5546;-1.1935;-0.0115;-0.0237
0000207775;6.6822;-16.9677;2.3104;-1.1818;-0.0091;-0.0229
0000207787;6.6679;-17.2095;2.1165;-1.1831;0.0076;-0.0123
0000207795;6.4643;-17.1018;2.0063;-1.1703;0.0171;-0.0071
0000207803;6.4883;-17.1928;1.7286;-1.1467;0.0257;-0.0169
0000207814;6.6415;-16.9366;1.4126;-1.1223;0.0346;-0.0180
0000207822;6.4787;-16.9581;1.3599;-1.1110;0.0494;-0.0107
0000207834;6.2441;-16.9749;1.1516;-1.0782;0.0596;-0.0109
0000207842;6.3590;-16.9557;0.8954;-1.0658;0.0678;-0.0080
0000207853;6.2153;-16.8887;0.7733;-1.0473;0.0813;-0.0028
0000207861;5.9831;-16.9749;0.6488;-1.0309;0.0813;-0.0087
0000207873;6.0286;-16.9390;0.5602;-0.9987;0.0902;-0.0060
0000207881;5.8993;-17.1521;0.4429;-0.9719;0.0869;-0.0141
0000207892;5.7150;-18.0307;0.0551;-0.8915;0.0474;0.0573
0000207900;5.3702;-17.9469;0.7350;-0.7326;0.0424;0.0698
0000207908;5.4253;-18.1313;0.2897;-0.6102;0.0510;0.0681
0000207920;5.4109;-17.8272;0.3184;-0.4474;0.0476;0.0538
0000207928;5.7078;-17.3963;0.6153;-0.3613;0.0476;0.0472
0000207939;5.6407;-17.1185;0.4022;-0.2852;0.0317;0.0500
0000207947;5.3870;-17.0300;0.3543;-0.2751;0.0221;0.0500
0000207959;5.5761;-16.9629;0.4645;-0.2910;0.0085;0.0478
0000207967;5.9161;-16.8480;0.3855;-0.2791;0.0168;0.0425
0000208035;6.1052;-16.8528;0.5363;-0.2455;-0.0378;-0.0418
0000208043;6.2130;-16.8624;0.5291;-0.2194;-0.0389;-0.0537
0000208051;6.1292;-16.7977;0.5626;-0.1885;-0.0430;-0.0755
0000208063;6.0430;-16.5320;0.6393;-0.1827;-0.0518;-0.0822
0000208071;6.0549;-16.5439;0.7829;-0.1805;-0.0544;-0.0837
0000208082;6.0645;-16.5152;0.7709;-0.1725;-0.0685;-0.0930
0000208090;6.1866;-16.4482;0.8045;-0.1612;-0.0797;-0.0843
0000208102;5.9400;-16.4434;1.0463;-0.1260;-0.0887;-0.0773
0000208110;5.9280;-16.4218;0.9792;-0.1014;-0.1005;-0.0714
0000208121;5.7748;-16.4625;0.9697;-0.0609;-0.1144;-0.0634
0000208129;5.8562;-16.4386;1.0032;-0.0408;-0.1260;-0.0490
0000208141;6.0334;-16.1944;0.9026;-0.0175;-0.1390;-0.0409
0000208149;5.7533;-16.3979;0.8284;0.0020;-0.1500;-0.0310
0000208160;5.8347;-16.3835;0.8068;0.0212;-0.1623;-0.0061
0000208168;5.8442;-16.5918;0.8547;0.0404;-0.1716;0.0099
0000208176;5.9185;-16.5990;0.6991;0.0509;-0.1751;0.0153
0000208188;5.8155;-16.6972;0.7709;0.0695;-0.1820;0.0213
0000208196;5.9999;-16.7714;0.8691;0.0807;-0.1889;0.0160
0000208207;6.0286;-16.7642;0.9433;0.1057;-0.1737;0.0152
0000208215;5.9687;-16.8624;0.9266;0.1240;-0.1731;0.0119
0000208227;6.2177;-16.8911;0.8859;0.1632;-0.1528;0.0032
0000208235;6.4739;-16.6756;0.8715;0.1872;-0.1360;-0.0021
0000208303;6.4931;-16.0196;1.1612;0.1973;-0.0629;-0.0644
0000208311;6.3087;-16.0292;1.2115;0.2020;-0.0532;-0.0576
0000208319;6.3398;-15.9693;1.2282;0.2016;-0.0476;-0.0620
0000208330;6.0669;-16.0531;1.2115;0.2089;-0.0472;-0.0566
0000208338;6.1723;-16.0100;1.2186;0.2085;-0.0452;-0.0596
0000208350;6.1316;-16.0220;1.2905;0.1990;-0.0378;-0.0538
0000208358;6.1770;-16.0603;1.2450;0.1821;-0.0302;-0.0434
0000208369;6.1651;-16.0076;1.3192;0.1652;-0.0209;-0.0454
0000208377;6.2752;-16.0651;1.3024;0.1528;-0.0164;-0.0441
0000208389;6.3901;-16.0196;1.4102;0.1395;0.0029;-0.0450
0000208397;6.3039;-16.1441;1.3886;0.1288;0.0073;-0.0470
0000208408;6.2082;-16.1178;1.3838;0.1182;0.0266;-0.0505
0000208416;6.3183;-16.1680;1.3958;0.1103;0.0332;-0.0538
0000208424;6.2177;-16.0005;1.4389;0.1047;0.0489;-0.0540
0000208436;6.3063;-16.0388;1.4964;0.0939;0.0550;-0.0573
0000208444;6.1675;-16.1106;1.5467;0.0930;0.0542;-0.0620
0000208455;6.1938;-16.0052;1.5969;0.0883;0.0510;-0.0661
0000208463;5.9304;-16.1034;1.5514;0.0861;0.0506;-0.0606
0000208475;5.9879;-16.0842;1.5538;0.0842;0.0382;-0.0629
0000208483;5.9999;-16.0364;1.4820;0.0787;0.0318;-0.0644
0000208495;5.8634;-16.0986;1.4365;0.0753;0.0148;-0.0558
0000208503;5.8251;-16.1297;1.4006;0.0706;0.0173;-0.0465
0000208511;5.9496;-16.1034;1.3240;0.0648;0.0112;-0.0397
0000208579;6.0765;-16.0531;1.4964;0.0254;-0.0079;-0.0230
0000208587;6.0669;-16.2614;1.4964;0.0262;-0.0144;-0.0290
0000208598;6.1411;-16.0723;1.4269;0.0149;-0.0120;-0.0209
0000208606;6.1938;-16.0507;1.4006;0.0172;-0.0225;-0.0232
0000208618;6.2058;-16.0723;1.5083;0.0032;-0.0269;-0.0163
0000208626;6.2848;-15.9478;1.4629;-0.0088;-0.0300;-0.0063
0000208637;6.1052;-15.9645;1.4557;-0.0193;-0.0396;-0.0080
0000208645;5.9855;-16.0723;1.3695;-0.0370;-0.0421;-0.0052
0000208653;6.0310;-16.1297;1.4461;-0.0450;-0.0449;-0.0113
0000208665;6.1651;-16.1800;1.4126;-0.0552;-0.0477;-0.0081
0000208673;6.1699;-16.1824;1.4964;-0.0620;-0.0465;-0.0064
0000208684;6.3279;-16.2303;1.3623;-0.0576;-0.0412;-0.0092
0000208692;6.0142;-16.3404;1.4676;-0.0524;-0.0396;-0.0115
0000208704;6.3111;-16.1728;1.4126;-0.0396;-0.0342;-0.0129
0000208712;6.2896;-16.2686;1.3695;-0.0261;-0.0390;-0.0180
0000208723;6.0214;-16.3021;1.3719;-0.0149;-0.0421;-0.0112
0000208731;6.1268;-16.2566;1.4533;-0.0053;-0.0448;-0.0135
0000208743;6.1411;-16.0340;1.3647;0.0017;-0.0508;-0.0104
0000208751;6.0549;-16.1824;1.4940;-0.0040;-0.0504;-0.0087
0000208763;6.1627;-16.0052;1.4892;-0.0087;-0.0570;-0.0049
0000208771;6.1483;-16.0459;1.4868;-0.0144;-0.0641;-0.0125
0000208779;6.3111;-15.9717;1.4916;-0.0191;-0.0662;-0.0100
0000208847;6.1603;-16.1321;1.4030;-0.0199;-0.0540;-0.0007
0000208855;6.0573;-16.1728;1.3743;-0.0264;-0.0550;0.0021
0000208866;6.1316;-16.2399;1.3623;-0.0179;-0.0582;-0.0043
0000208874;6.2369;-16.0531;1.4988;-0.0269;-0.0546;0.0017
0000208886;6.0310;-16.1178;1.2953;-0.0349;-0.0478;0.0043
0000208894;6.1220;-16.1417;1.3815;-0.0388;-0.0540;-0.0012
0000208905;6.1986;-16.1585;1.4174;-0.0365;-0.0513;-0.0035
0000208913;6.1555;-16.1944;1.3743;-0.0434;-0.0496;0.0073
0000208925;6.1172;-16.1130;1.3958;-0.0386;-0.0504;0.0003
0000208933;6.1770;-16.2111;1.3240;-0.0412;-0.0498;-0.0008
0000208944;6.2249;-16.1417;1.4054;-0.0416;-0.0469;0.0044
0000208952;6.1339;-16.2878;1.2761;-0.0464;-0.0404;0.0021
0000208960;6.1842;-16.3117;1.3408;-0.0417;-0.0400;0.0048
0000208972;6.0932;-16.1848;1.2785;-0.0345;-0.0448;-0.0020
0000208980;6.1292;-16.2183;1.3647;-0.0338;-0.0473;-0.0068
0000208991;6.3135;-16.1537;1.3575;-0.0397;-0.0402;-0.0035
0000208999;6.0669;-16.1968;1.3096;-0.0376;-0.0413;-0.0056
0000209011;6.2010;-16.1609;1.3024;-0.0388;-0.0381;-0.0027
0000209019;5.8778;-16.3237;1.3503;-0.0310;-0.0398;-0.0068
0000209031;6.1603;-16.1752;1.3599;-0.0374;-0.0353;-0.0045
0000209039;6.1842;-16.2638;1.3264;-0.0406;-0.0306;-0.0011
0000209107;6.1004;-16.0292;1.3479;-0.0254;-0.0301;-0.0209
0000209115;6.2321;-16.1561;1.4724;-0.0334;-0.0228;-0.0096
0000209123;5.9640;-16.2901;1.3192;-0.0378;-0.0211;-0.0104
0000209134;6.1723;-16.0986;1.3216;-0.0380;-0.0256;-0.0063
0000209142;6.1148;-16.2494;1.3192;-0.0417;-0.0221;-0.0059
0000209154;6.0597;-16.2542;1.3072;-0.0356;-0.0199;-0.0036
0000209162;6.0765;-16.2662;1.3072;-0.0341;-0.0197;-0.0071
0000209173;6.0717;-16.0771;1.3072;-0.0292;-0.0165;-0.0053
0000209181;5.8849;-16.2830;1.3216;-0.0253;-0.0188;-0.0091
0000209193;6.1124;-16.2494;1.3240;-0.0232;-0.0228;-0.0093
0000209201;6.1938;-16.0483;1.4198;-0.0229;-0.0242;-0.0133
0000209212;6.1076;-16.1441;1.3048;-0.0220;-0.0258;-0.0120
0000209220;6.0478;-16.1465;1.3431;-0.0204;-0.0250;-0.0137
0000209232;5.9280;-16.2351;1.3431;-0.0148;-0.0321;-0.0165
0000209240;6.0861;-16.1585;1.3168;-0.0180;-0.0313;-0.0124
0000209248;6.1363;-16.2016;1.4246;-0.0161;-0.0336;-0.0124
0000209259;6.0956;-16.2111;1.3408;-0.0195;-0.0282;-0.0092
0000209267;6.1555;-16.1776;1.2282;-0.0226;-0.0306;-0.0057
0000209279;5.9735;-16.1944;1.3479;-0.0176;-0.0365;-0.0096
0000209287;6.1603;-16.1824;1.3527;-0.0199;-0.0324;-0.0065
0000209299;6.2632;-16.0771;1.2737;-0.0153;-0.0398;-0.0053
0000209307;6.0741;-16.1633;1.3719;-0.0153;-0.0416;-0.0089
0000209375;6.0861;-16.1848;1.3120;-0.0196;-0.0425;-0.0084
0000209383;6.0645;-16.2471;1.2905;-0.0188;-0.0472;-0.0132
0000209394;6.3327;-16.1609;1.2665;-0.0216;-0.0413;-0.0051
0000209402;6.2680;-16.1489;1.3288;-0.0218;-0.0445;-0.0123
0000209414;5.9759;-16.3692;1.2905;-0.0228;-0.0418;-0.0061
0000209422;5.9807;-16.3476;1.3192;-0.0176;-0.0444;-0.0161
0000209430;6.0837;-16.2087;1.3072;-0.0157;-0.0448;-0.0104
0000209441;6.1818;-16.1178;1.3431;-0.0164;-0.0465;-0.0151
0000209449;6.0717;-16.2087;1.3431;-0.0161;-0.0413;-0.0127
0000209461;6.1746;-16.1417;1.2761;-0.0157;-0.0441;-0.0156
0000209469;6.1052;-16.2734;1.3336;-0.0213;-0.0393;-0.0153
0000209480;6.1890;-16.1537;1.2857;-0.0173;-0.0390;-0.0152
0000209488;6.0286;-16.2399;1.4030;-0.0103;-0.0401;-0.0171
0000209500;6.1220;-16.1082;1.3072;-0.0179;-0.0362;-0.0155
0000209508;6.0454;-16.3069;1.3503;-0.0176;-0.0378;-0.0125
0000209519;6.1435;-16.2542;1.2665;-0.0108;-0.0409;-0.0185
0000209527;6.1004;-16.2207;1.3743;-0.0132;-0.0330;-0.0120
0000209539;6.1124;-16.2614;1.3671;-0.0039;-0.0334;-0.0151
0000209547;6.1148;-16.2734;1.3743;-0.0092;-0.0314;-0.0121
0000209555;6.1627;-16.0675;1.3240;-0.0103;-0.0318;-0.0168
0000209567;6.0645;-16.1178;1.3048;-0.0160;-0.0306;-0.0139
0000209575;6.1794;-16.0747;1.3024;-0.0152;-0.0377;-0.0191
0000209643;6.0717;-16.2471;1.3575;-0.0092;-0.0325;-0.0112
0000209651;6.0334;-16.1656;1.3216;-0.0024;-0.0433;-0.0209
0000209663;6.1363;-16.1082;1.3886;-0.0039;-0.0358;-0.0216
0000209671;6.1387;-16.1297;1.2378;-0.0024;-0.0376;-0.0254
0000209682;6.0190;-16.2087;1.2857;-0.0056;-0.0376;-0.0216
0000209690;6.1818;-16.2471;1.3575;-0.0039;-0.0400;-0.0215
0000209702;6.1100;-16.2518;1.1827;-0.0069;-0.0350;-0.0140
0000209710;6.2824;-16.1656;1.3216;-0.0063;-0.0333;-0.0108
0000209721;6.2848;-16.1226;1.2689;0.0013;-0.0372;-0.0195
0000209729;6.1172;-16.1776;1.3838;0.0004;-0.0345;-0.0119
0000209737;6.0334;-16.3931;1.3862;-0.0001;-0.0314;-0.0131
0000209749;6.0430;-16.2590;1.3527;0.0044;-0.0364;-0.0159
0000209757;6.0286;-16.2064;1.3934;-0.0013;-0.0346;-0.0101
0000209768;6.0645;-16.3309;1.2737;-0.0079;-0.0278;-0.0068
0000209776;6.0621;-16.2590;1.3408;-0.0081;-0.0344;-0.0120
0000209788;6.1603;-16.0914;1.3001;-0.0073;-0.0338;-0.0097
0000209796;6.1555;-16.1417;1.3527;-0.0065;-0.0384;-0.0060
0000209807;6.2728;-16.1154;1.3048;-0.0005;-0.0406;-0.0088
0000209815;6.1004;-16.2207;1.3431;-0.0017;-0.0378;-0.0081
0000209827;6.1028;-16.2638;1.2737;-0.0037;-0.0314;-0.0051
0000209835;6.0813;-16.1752;1.3671;-0.0015;-0.0329;-0.0084
0000209843;6.0717;-16.1082;1.2857;0.0007;-0.0345;-0.0088
0000209910;6.0190;-16.3572;1.4293;0.0017;-0.0409;-0.0107
0000209918;5.9975;-16.3739;1.3336;-0.0021;-0.0318;-0.0057
0000209930;5.9855;-16.2638;1.3599;0.0044;-0.0366;-0.0091
0000209938;6.0645;-16.2806;1.3288;0.0091;-0.0418;-0.0143
0000209949;5.9711;-16.2710;1.3838;0.0103;-0.0314;-0.0076
0000209957;6.0765;-16.2925;1.3192;0.0156;-0.0312;-0.0055
0000209969;6.0837;-16.1393;1.4246;0.0238;-0.0354;-0.0111
0000209977;5.9783;-16.2423;1.3647;0.0273;-0.0320;-0.0079
0000209988;6.0262;-16.4146;1.4006;0.0388;-0.0364;-0.0119
0000209996;6.2058;-16.4817;1.4198;0.0424;-0.0336;-0.0077
0000210004;6.1651;-16.3524;1.3647;0.0530;-0.0317;-0.0053
0000210016;6.2130;-16.2207;1.4174;0.0694;-0.0256;-0.0027
0000210024;6.1866;-16.4027;1.4246;0.0821;-0.0258;-0.0024
0000210035;5.9735;-16.3716;1.3384;0.0782;-0.0224;0.0049
0000210043;6.1914;-16.1345;1.4269;0.0846;-0.0309;0.0015
0000210055;6.2249;-16.0842;1.4150;0.0814;-0.0284;0.0019
0000210063;6.2920;-16.0579;1.4365;0.0750;-0.0253;0.0076
0000210074;6.0621;-16.1273;1.3479;0.0710;-0.0273;0.0063
0000210082;6.0430;-16.1321;1.2833;0.0742;-0.0297;0.0033
0000210094;6.1004;-16.2040;1.4102;0.0874;-0.0277;0.0052
0000210102;5.9280;-16.4482;1.3982;0.0931;-0.0292;0.0137
0000210110;6.1316;-16.4673;1.3431;0.1123;-0.0306;0.0107
0000210178;6.1866;-16.2279;1.3815;0.2411;-0.0188;0.0218
0000210186;5.9735;-16.4434;1.3072;0.2474;-0.0244;0.0240
0000210198;6.0645;-16.3500;1.4198;0.2582;-0.0159;0.0313
0000210206;6.0813;-16.4266;1.3695;0.2762;-0.0151;0.0424
0000210217;6.1244;-16.6301;1.4629;0.2972;-0.0089;0.0453
0000210225;5.9951;-16.6182;1.4150;0.3136;-0.0056;0.0470
0000210237;5.9089;-16.7235;1.4557;0.3457;-0.0071;0.0521
0000210245;6.0023;-16.5487;1.4700;0.3660;-0.0080;0.0561
0000210253;6.1459;-16.5798;1.5323;0.3910;-0.0089;0.0553
0000210264;5.8347;-16.6780;1.4940;0.4147;-0.0065;0.0572
0000210272;6.0190;-16.5822;1.5060;0.4422;-0.0100;0.0580
0000210284;6.0741;-16.6445;1.5897;0.4736;-0.0032;0.0592
0000210292;5.9903;-16.5200;1.5658;0.5019;-0.0121;0.0624
0000210303;6.0094;-16.5056;1.6712;0.5364;-0.0039;0.0742
0000210311;6.0621;-16.5344;1.7358;0.5618;-0.0004;0.0841
0000210323;6.0286;-16.4769;1.8316;0.6093;0.0025;0.0894
0000210331;5.9185;-16.6253;1.7645;0.6384;-0.0031;0.0925
0000210339;5.8849;-16.6110;1.7957;0.6687;0.0009;0.1053
0000210350;6.0071;-16.4960;1.7286;0.6972;0.0036;0.1100
0000210358;5.9807;-16.6301;1.7526;0.7292;0.0001;0.1158
0000210370;5.8610;-16.8935;1.8555;0.7710;-0.0011;0.1220
0000210378;5.9089;-16.7786;2.1284;0.8115;-0.0055;0.1267
0000210446;5.5976;-16.6301;2.5881;1.2199;-0.0795;0.2056
0000210454;5.8275;-16.4362;2.6073;1.2490;-0.0846;0.2209
0000210466;5.7628;-16.5703;2.6312;1.2696;-0.0910;0.2373
0000210474;5.6767;-16.5751;2.8659;1.3155;-0.0946;0.2451
0000210482;5.8873;-16.6205;2.7605;1.3752;-0.1005;0.2470
0000210493;5.8442;-16.6134;3.0502;1.4309;-0.0970;0.2506
0000210501;5.8371;-16.6349;3.0742;1.4901;-0.1057;0.2317
0000210513;5.7030;-16.7762;3.2944;1.5363;-0.1055;0.2325
0000210521;5.8538;-16.7498;3.2058;1.5972;-0.1163;0.2312
0000210532;5.7868;-16.4601;3.3016;1.6710;-0.1296;0.2232
0000210540;5.7844;-16.5870;3.2154;1.7492;-0.1420;0.2134
0000210552;5.8802;-16.5487;3.4453;1.7618;-0.1436;0.2293
0000210560;5.8802;-16.5679;3.7493;1.8415;-0.1524;0.2324
0000210568;5.7317;-16.4913;3.8930;1.8987;-0.1431;0.2399
0000210579;5.7197;-16.2614;4.1084;1.9818;-0.1540;0.2325
0000210587;5.6790;-16.1824;4.1013;2.0094;-0.1681;0.2101
0000210599;4.9967;-16.1633;4.2138;2.0400;-0.2081;0.1879
0000210607;4.6687;-16.0412;3.9720;2.0518;-0.2578;0.1772
0000210618;4.6208;-15.9574;4.1037;2.0578;-0.3291;0.1860
0000210626;4.6112;-15.9574;4.1611;2.0623;-0.3808;0.1944
0000210638;5.0494;-16.2662;4.2569;2.1093;-0.4507;0.1988
0000210646;5.3463;-16.4793;4.4724;2.1472;-0.4767;0.2058
0000210654;5.6479;-16.4482;4.7166;2.2128;-0.5063;0.2096
0000210722;6.7086;-14.5807;5.9185;2.3529;-0.1809;0.3621
0000210730;6.8474;-15.0978;6.9001;2.3523;-0.1013;0.3653
0000210742;6.7924;-15.7131;7.6543;2.4331;-0.0029;0.3488
0000210750;6.5098;-15.8712;7.7620;2.4852;0.0533;0.3423
0000210761;6.4524;-15.6054;7.7524;2.5688;0.0998;0.3200
0000210769;6.3758;-15.4474;7.8817;2.6073;0.1286;0.2978
0000210781;6.4332;-14.9087;7.9128;2.6420;0.1544;0.2774
0000210789;6.1818;-14.8081;7.8171;2.6590;0.1573;0.2681
0000210797;5.8849;-14.3963;7.9799;2.6930;0.1483;0.2541
0000210808;5.7054;-13.9630;7.6375;2.7640;0.1023;0.2170
0000210816;5.7006;-13.4339;7.3406;2.7944;0.0986;0.2270
0000210828;5.7964;-12.3373;7.0390;2.8031;0.0994;0.2313
0000210836;5.8275;-11.8274;6.7971;2.7801;0.1279;0.2462
0000210847;6.0525;-11.2934;6.3734;2.7135;0.1879;0.2565
0000210855;6.4620;-10.6829;6.1507;2.6433;0.2514;0.2526
0000210863;6.5960;-10.4172;6.1220;2.5626;0.3176;0.2489
0000210875;6.7253;-9.5912;6.1004;2.4657;0.4078;0.2242
0000210883;6.7373;-8.8849;6.2010;2.3647;0.4546;0.2000
0000210894;6.5649;-7.6495;6.0837;2.2448;0.4999;0.1692
0000210902;6.3207;-6.6774;5.9496;2.1166;0.5252;0.1439
0000210914;5.9831;-5.7604;5.6671;1.8875;0.5508;0.1234
0000210922;5.3822;-5.5402;5.3917;1.7413;0.5344;0.1139
0000210930;5.1691;-6.1004;5.1092;1.5765;0.5127;0.1122
0000210998;4.5729;-10.0317;6.2201;0.9662;0.3171;-0.1475
0000211006;4.8411;-9.8450;6.1004;0.9513;0.2912;-0.1628
0000211017;5.0709;-9.5936;6.1387;0.9348;0.2687;-0.1905
0000211025;5.3463;-9.1626;5.8921;0.9122;0.2602;-0.1917
0000211037;5.6479;-8.5521;5.7628;0.8720;0.2474;-0.1931
0000211045;5.8155;-8.1906;5.5617;0.8286;0.2539;-0.1748
0000211057;6.0908;-7.6303;5.4253;0.7512;0.2543;-0.1431
0000211065;6.0262;-7.4484;5.3295;0.6981;0.2682;-0.1094
0000211073;5.9831;-7.4196;5.2960;0.6608;0.2757;-0.0898
0000211085;6.0908;-7.0749;5.4636;0.5965;0.2959;-0.0669
0000211093;6.1962;-6.8618;5.3510;0.5609;0.3062;-0.0662
0000211105;6.2273;-6.8402;5.4468;0.4934;0.3307;-0.0846
0000211113;6.3853;-6.7157;5.2553;0.4441;0.3608;-0.1108
0000211125;6.0430;-6.5769;5.0901;0.3555;0.4029;-0.1146
0000211133;5.8945;-6.9001;5.0781;0.3038;0.4515;-0.1360
0000211141;5.9975;-7.0198;5.0398;0.2561;0.4876;-0.1709
0000211153;5.6024;-7.4196;4.9823;0.1982;0.5335;-0.1807
0000211161;5.3247;-7.8458;5.4277;0.1978;0.5420;-0.1787
0000211173;5.3486;-9.0644;5.1260;0.2310;0.5865;-0.2250
0000211181;5.4037;-9.7061;5.6264;0.2563;0.6273;-0.2951
0000211247;3.6536;-15.2654;7.2544;0.8567;1.1607;-0.2133
0000211255;2.8563;-15.2989;7.6279;1.0257;1.1732;-0.2417
0000211267;2.9473;-14.7650;8.2887;1.3724;1.1285;-0.2380
0000211275;2.7054;-14.3054;9.2177;1.5897;1.0180;-0.2698
0000211283;2.4636;-14.9111;10.8673;1.8635;0.8423;-0.3154
0000211295;4.2497;-15.3397;18.0068;2.7352;0.6415;-0.5053
0000211303;4.0031;-14.8081;21.7370;3.4784;0.5228;-0.6659
0000211315;1.0942;-11.4610;22.7521;4.2685;0.3344;-0.4178
0000211323;-0.3256;-8.1499;21.2150;4.3656;0.2603;-0.0201
0000211334;0.2370;-3.6224;19.9892;4.3656;0.1788;0.2100
0000211342;3.2226;0.0958;17.3891;4.3656;0.1339;0.0137
0000211354;10.6781;4.2138;12.4115;4.3656;0.3369;-0.4274
0000211362;13.1298;5.3032;8.4204;4.2774;0.5672;-0.3768
0000211370;14.3293;6.0238;4.2880;3.8982;0.8252;-0.0489
0000211382;14.0204;3.8188;-0.4357;3.3981;1.2716;0.6583
0000211390;12.7228;1.6137;-2.5355;3.1890;1.4763;1.0786
0000211402;10.0604;0.7949;-3.1149;2.9942;1.6855;1.4329
0000211410;8.0062;3.6775;-2.2027;2.8049;1.7481;1.3094
0000211422;2.0423;8.1547;-0.4669;2.0979;1.5616;0.6755
0000211430;-3.3710;10.1706;-0.4190;1.6454;1.2585;-0.0673
0000211442;-10.4124;9.1482;-0.5171;1.3840;0.6162;-1.3057
0000211450;-12.7156;8.5449;0.4381;1.1623;0.2630;-1.8012
0000211458;-10.5584;5.9592;1.7789;0.6411;-0.0646;-1.7698
0000211526;10.4124;2.3176;3.0311;0.4676;0.3886;-2.5648
0000211534;11.7651;2.7725;2.5905;0.2899;0.8001;-2.7065
0000211546;13.4482;2.9137;1.8675;0.0083;1.5410;-2.8835
0000211554;14.1497;2.7461;1.1349;-0.1374;2.0582;-2.9647
0000211566;13.7786;2.5426;0.1484;-0.2638;2.7685;-3.0772
0000211574;12.4475;1.9082;-0.2011;-0.4045;3.1431;-3.0827
0000211586;9.7659;1.4102;-0.2610;-0.6440;3.5185;-3.0069
0000211594;7.9464;0.8140;-0.0575;-0.7631;3.6804;-2.9314
0000211602;6.1268;0.1604;-0.5339;-0.8785;3.8469;-2.9046
0000211614;2.2362;-1.5802;-1.1588;-0.9749;4.1777;-2.9609
0000211622;-0.7230;-1.6400;-1.4533;-1.0340;4.3656;-3.0750
0000211634;-5.3774;-3.0119;-2.8730;-1.0452;4.3656;-3.4286
0000211642;-7.3909;-3.9073;-3.3088;-0.8855;4.3656;-3.7640
0000211654;-9.1602;-3.2274;-2.2721;-0.9230;4.3656;-4.3657
0000211662;-10.6686;-3.5937;0.0120;-1.0168;4.3656;-4.3657
0000211674;-13.8840;-5.4564;5.6671;-0.6764;4.3656;-4.3657
0000211682;-18.7107;-6.9719;6.5170;-0.0725;4.3656;-4.3639
0000211694;-35.3001;-9.0405;-3.4381;0.4195;4.3656;-2.9604
0000211702;-36.8085;-7.0868;-7.0725;0.3488;4.3656;-1.9502
0000211710;-34.8907;-6.9671;-8.7795;0.1207;4.2932;-1.2716
0000211722;-26.1279;-6.4428;-4.3144;0.6876;2.9587;-0.3615
0000211730;-18.9094;-4.8842;-7.0318;0.6340;2.2691;0.0922
0000211798;1.9872;-12.7132;-2.3320;-0.0195;0.4682;-0.4730
0000211806;2.2003;-13.6206;-1.1277;0.1725;0.4628;-0.8094
0000211818;1.9010;-13.1729;-1.2115;0.7056;0.4684;-1.0685
0000211826;1.4006;-11.2695;-2.4229;1.0034;0.4716;-1.1237
0000211838;0.6967;-7.1515;-4.4484;1.1441;0.5012;-1.1202
0000211846;0.4693;-5.4277;-5.4133;0.9851;0.5999;-1.1214
0000211858;0.5626;-4.4221;-5.7557;0.7281;0.8430;-1.1892
0000211866;0.1197;-4.4053;-5.4181;0.6615;1.0408;-1.1932
0000211874;-1.4772;-5.1092;-5.2385;0.6342;1.2522;-1.1371
0000211887;-4.5705;-7.0390;-4.2234;0.5950;1.5484;-0.9986
0000211896;-6.5577;-8.2384;-3.9911;0.5913;1.6549;-0.9090
0000211909;-9.7683;-10.2759;-3.5243;0.4931;1.5848;-0.7304
0000211918;-11.8250;-11.8154;-2.9257;0.4371;1.3856;-0.6046
0000211931;-12.5815;-13.0197;-2.4828;0.5121;1.0066;-0.2988
0000211940;-11.2049;-12.8664;-2.4756;0.6484;0.7380;-0.0675
0000211953;-7.7213;-11.0780;-2.9305;0.7484;0.3836;0.2246
0000211962;-5.7341;-9.3134;-3.5027;0.7412;0.1625;0.4052
0000211974;-4.7549;-7.8338;-3.5243;0.6134;-0.0743;0.5602
0000211983;-4.6591;-6.6655;-3.6536;0.4926;-0.2126;0.6006
0000211992;-4.9823;-6.0023;-3.7685;0.3575;-0.3411;0.5729
0000212005;-5.2696;-5.2361;-3.5027;0.1284;-0.4832;0.4606
0000212014;-5.7676;-5.0135;-3.3016;0.0063;-0.5793;0.3564
0000212083;-2.8443;-7.5848;-1.5490;-0.4462;-0.8474;0.3170
0000212092;-2.6791;-7.5298;-1.5203;-0.4053;-0.8262;0.3481
0000212105;-2.8060;-7.2856;-1.6831;-0.3816;-0.7569;0.4317
0000212114;-2.5833;-7.1539;-1.7334;-0.3812;-0.6944;0.4915
0000212127;-2.7174;-7.3694;-1.5083;-0.3909;-0.6141;0.5492
0000212136;-2.9521;-7.4077;-1.2354;-0.3756;-0.5690;0.5737
0000212149;-3.4237;-7.3430;-0.8428;-0.3449;-0.5429;0.5693
0000212158;-3.6416;-6.8666;-0.5986;-0.3411;-0.5341;0.5500
0000212171;-4.2856;-6.5170;-0.1915;-0.3481;-0.5813;0.4719
0000212180;-4.4796;-6.2608;-0.0359;-0.3545;-0.6078;0.4181
0000212189;-4.7142;-6.0454;0.0622;-0.3632;-0.6491;0.3679
0000212202;-4.7812;-5.4827;0.4549;-0.3938;-0.6864;0.3031
0000212211;-4.8937;-5.5162;0.5650;-0.4132;-0.7023;0.2733
0000212224;-4.3742;-5.4875;0.5674;-0.4466;-0.7185;0.2469
0000212233;-4.0630;-5.6814;0.7638;-0.4572;-0.7128;0.2330
0000212246;-3.0023;-6.3470;0.7781;-0.4490;-0.6706;0.2020
0000212255;-2.4541;-6.5529;0.9529;-0.4105;-0.6201;0.1696
0000212268;-1.7813;-6.8905;0.7853;-0.3705;-0.5221;0.1366
0000212277;-1.2498;-6.7086;0.8643;-0.3509;-0.4587;0.1029
0000212290;-1.4150;-6.9216;1.0606;-0.2983;-0.3584;0.0726
0000212299;-1.6137;-6.9599;1.0750;-0.2673;-0.2844;0.0673
0000212308;-1.8603;-6.9121;1.0774;-0.2124;-0.2214;0.0616
0000212376;-4.3479;-6.9240;0.6081;0.0044;-0.0777;0.0723
0000212385;-4.3862;-6.9001;0.5722;0.0215;-0.0727;0.0633
0000212398;-4.1946;-6.7852;0.6536;0.0601;-0.0806;0.0324
0000212407;-4.1803;-6.9073;0.5746;0.0901;-0.0803;0.0208
0000212423;-3.8954;-6.3997;0.4453;0.1203;-0.0710;-0.0063
0000212432;-3.5243;-6.0190;0.2107;0.1287;-0.0600;-0.0101
0000212445;-3.6320;-6.0478;0.0718;0.1303;-0.0368;-0.0128
0000212454;-3.7613;-5.9352;0.0144;0.1323;-0.0305;-0.0163
0000212463;-3.5865;-5.8347;-0.0383;0.1150;-0.0131;-0.0089
0000212475;-3.7254;-5.8131;-0.0311;0.0999;-0.0064;-0.0132
0000212484;-3.6272;-5.8802;0.0551;0.0931;0.0033;-0.0169
0000212497;-3.6607;-5.9903;0.1389;0.0743;0.0185;-0.0177
0000212506;-3.6727;-5.9951;0.1844;0.0771;0.0237;-0.0314
0000212518;-3.4931;-6.0956;0.2370;0.0645;0.0312;-0.0294
0000212527;-3.4764;-6.0645;0.1748;0.0609;0.0357;-0.0354
0000212540;-3.6105;-6.0166;0.0910;0.0489;0.0380;-0.0392
0000212549;-3.5362;-5.9999;0.0886;0.0368;0.0344;-0.0389
0000212561;-3.6607;-6.0382;0.1006;0.0169;0.0324;-0.0418
0000212570;-3.9385;-5.9759;-0.0192;-0.0036;0.0201;-0.0404
0000212579;-3.9576;-5.9687;-0.0503;-0.0149;0.0053;-0.0358
0000212648;-4.1779;-6.4069;-0.0694;-0.0667;-0.0979;0.0016
0000212657;-3.9983;-6.5122;-0.1077;-0.0513;-0.1054;-0.0068
0000212669;-4.0247;-6.4284;-0.0527;-0.0437;-0.1091;0.0009
0000212678;-3.6919;-6.3183;-0.0215;-0.0424;-0.1042;0.0087
0000212691;-3.6152;-6.3183;0.0670;-0.0317;-0.1074;0.0060
0000212700;-3.7613;-6.4021;0.1101;-0.0298;-0.1070;0.0072
0000212712;-3.6871;-6.2584;0.0263;-0.0196;-0.1154;0.0036
0000212721;-3.5482;-6.0813;0.1652;-0.0091;-0.1123;0.0075
0000212734;-3.8762;-6.1962;0.2562;-0.0187;-0.1140;0.0023
0000212743;-3.6775;-6.0573;0.1460;-0.0289;-0.1071;-0.0012
0000212752;-3.8379;-6.1579;0.1245;-0.0338;-0.1053;-0.0068
0000212764;-3.6272;-6.0765;0.2203;-0.0358;-0.1003;-0.0133
0000212773;-3.7972;-6.2034;0.2394;-0.0405;-0.0954;-0.0139
0000212786;-3.9337;-6.3494;0.2897;-0.0416;-0.0941;-0.0196
0000212795;-3.8068;-6.2704;0.2203;-0.0409;-0.0793;-0.0200
0000212807;-3.8642;-6.3925;0.4094;-0.0332;-0.0733;-0.0229
0000212816;-3.6416;-6.3590;0.3232;-0.0270;-0.0658;-0.0201
0000212829;-3.7972;-6.4548;0.3543;-0.0156;-0.0624;-0.0185
0000212838;-3.6895;-6.3398;0.3136;-0.0121;-0.0518;-0.0137
0000212850;-3.7828;-6.3087;0.3855;-0.0088;-0.0533;-0.0175
0000212859;-3.7445;-6.1675;0.3136;-0.0161;-0.0428;-0.0101
0000212928;-3.7948;-6.1770;0.1796;0.0193;-0.0468;-0.0241
0000212937;-4.0127;-6.3470;0.2107;0.0205;-0.0442;-0.0226
0000212946;-3.9672;-6.3159;0.1676;0.0208;-0.0500;-0.0220
0000212958;-4.0965;-6.3087;0.2274;0.0211;-0.0504;-0.0204
0000212967;-4.1468;-6.3351;0.1508;0.0191;-0.0560;-0.0163
0000212980;-3.8858;-6.2632;0.2634;0.0092;-0.0574;-0.0236
0000212989;-3.8834;-6.2656;0.2514;0.0135;-0.0642;-0.0254
0000213001;-3.6559;-6.1794;0.2753;0.0051;-0.0577;-0.0213
0000213010;-3.5291;-6.1004;0.3448;0.0041;-0.0552;-0.0234
0000213023;-3.5937;-6.1555;0.2993;-0.0001;-0.0493;-0.0241
0000213032;-3.7757;-6.2896;0.3328;0.0000;-0.0522;-0.0238
0000213044;-3.5937;-6.2680;0.2658;-0.0021;-0.0434;-0.0301
0000213053;-3.7709;-6.2201;0.3256;-0.0069;-0.0413;-0.0284
0000213062;-3.7206;-6.2177;0.3160;-0.0087;-0.0401;-0.0241
0000213075;-3.7709;-6.3231;0.3400;-0.0113;-0.0313;-0.0248
0000213084;-3.8499;-6.2393;0.2059;-0.0112;-0.0362;-0.0232
0000213096;-3.8738;-6.2728;0.2442;-0.0079;-0.0350;-0.0228
0000213105;-3.8403;-6.3303;0.2346;-0.0111;-0.0317;-0.0229
0000213118;-3.9265;-6.2680;0.2322;-0.0173;-0.0342;-0.0180
0000213127;-3.8834;-6.2106;0.1724;-0.0091;-0.0369;-0.0242
0000213139;-3.8020;-6.1746;0.2658;-0.0147;-0.0477;-0.0209
0000213148;-4.1228;-6.5577;0.2322;-0.0091;-0.0465;-0.0165
0000213217;-3.8618;-6.4069;0.2873;-0.0037;-0.0502;-0.0021
0000213226;-3.8235;-6.2106;0.2322;0.0007;-0.0522;-0.0056
0000213235;-3.8571;-6.3398;0.2059;0.0077;-0.0584;-0.0072
0000213247;-3.8714;-6.2704;0.2203;0.0105;-0.0600;-0.0153
0000213256;-3.8068;-6.1004;0.2083;0.0061;-0.0524;-0.0113
0000213269;-3.8954;-6.4141;0.3089;0.0076;-0.0666;-0.0161
0000213278;-3.7804;-6.2560;0.3065;-0.0017;-0.0561;-0.0100
0000213290;-3.9169;-6.3614;0.3974;-0.0015;-0.0509;-0.0077
0000213299;-3.8738;-6.3111;0.3472;-0.0087;-0.0506;-0.0029
0000213312;-3.7182;-6.1794;0.2586;-0.0044;-0.0510;-0.0151
0000213321;-3.7110;-6.1842;0.2179;-0.0093;-0.0486;-0.0103
0000213333;-3.7733;-6.1459;0.2897;-0.0055;-0.0521;-0.0183
0000213342;-3.7278;-6.1818;0.2586;-0.0120;-0.0449;-0.0168
0000213355;-3.7828;-6.3135;0.3903;-0.0128;-0.0444;-0.0180
0000213364;-3.6152;-6.1411;0.3567;-0.0156;-0.0382;-0.0187
0000213373;-3.7230;-6.1723;0.3304;-0.0123;-0.0374;-0.0193
0000213385;-3.9002;-6.3327;0.3448;-0.0143;-0.0468;-0.0268
0000213394;-3.8834;-6.2345;0.3472;-0.0195;-0.0344;-0.0155
0000213407;-3.8259;-6.3015;0.3112;-0.0169;-0.0336;-0.0157
0000213416;-3.7445;-6.2537;0.3376;-0.0100;-0.0420;-0.0229
0000213428;-3.9073;-6.2656;0.2849;-0.0105;-0.0364;-0.0203
0000213437;-3.9624;-6.4165;0.3160;-0.0075;-0.0398;-0.0189
0000213506;-3.8714;-6.3111;0.3041;-0.0132;-0.0329;-0.0128
0000213515;-3.7278;-6.2608;0.3424;-0.0057;-0.0377;-0.0205
0000213527;-3.7302;-6.2345;0.3376;-0.0105;-0.0312;-0.0123
0000213536;-3.8020;-6.2034;0.3280;-0.0024;-0.0348;-0.0187
0000213549;-3.7445;-6.3159;0.3615;-0.0065;-0.0280;-0.0171
0000213558;-3.8092;-6.3422;0.3711;-0.0085;-0.0297;-0.0157
0000213567;-3.9217;-6.4380;0.3232;-0.0007;-0.0370;-0.0248
0000213579;-3.9217;-6.2489;0.2131;0.0016;-0.0350;-0.0249
0000213588;-3.8523;-6.1986;0.2394;-0.0027;-0.0294;-0.0230
0000213601;-3.9528;-6.3638;0.2490;-0.0005;-0.0296;-0.0213
0000213610;-3.7613;-6.3758;0.2682;0.0020;-0.0290;-0.0254
0000213622;-3.7158;-6.3470;0.2418;0.0135;-0.0318;-0.0220
0000213631;-3.7038;-6.3590;0.3519;0.0129;-0.0240;-0.0148
0000213644;-3.8858;-6.2896;0.3184;0.0052;-0.0258;-0.0097
0000213653;-3.9935;-6.4572;0.2849;0.0040;-0.0280;-0.0105
0000213665;-3.8618;-6.4380;0.3160;0.0072;-0.0340;-0.0100
0000213674;-3.9385;-6.3398;0.2179;0.0057;-0.0272;-0.0093
0000213683;-3.7852;-6.2584;0.2083;0.0131;-0.0385;-0.0139
0000213696;-3.7254;-6.2465;0.3448;0.0115;-0.0378;-0.0171
0000213705;-4.0031;-6.3542;0.3232;0.0103;-0.0330;-0.0152
0000213717;-3.7996;-6.2201;0.2945;0.0023;-0.0277;-0.0160
0000213726;-3.8906;-6.1986;0.2801;0.0051;-0.0354;-0.0200
0000213795;-3.8810;-6.1699;0.2251;-0.0011;-0.0711;-0.0123
0000213804;-3.9840;-6.4093;0.2825;-0.0017;-0.0670;-0.0099
0000213816;-3.8379;-6.2896;0.2514;-0.0045;-0.0711;-0.0057
0000213825;-3.7781;-6.2106;0.2490;0.0048;-0.0851;-0.0129
0000213838;-3.8499;-6.2537;0.2562;0.0023;-0.0834;-0.0107
0000213847;-3.8355;-6.2177;0.3089;-0.0033;-0.0793;-0.0056
0000213856;-3.8571;-6.1986;0.3567;-0.0024;-0.0838;-0.0032
0000213867;-3.8235;-6.3375;0.3472;-0.0048;-0.0774;-0.0009
0000213876;-3.7972;-6.2489;0.2921;0.0019;-0.0865;-0.0075
0000213890;-3.8666;-6.3327;0.2777;-0.0003;-0.0818;0.0009
0000213899;-3.9313;-6.2920;0.3328;-0.0013;-0.0878;-0.0027
0000213912;-3.7038;-6.1316;0.4477;-0.0084;-0.0817;-0.0020
0000213921;-3.8547;-6.3303;0.3591;-0.0117;-0.0731;0.0028
0000213933;-3.8666;-6.2177;0.3448;-0.0085;-0.0757;-0.0047
0000213942;-3.7876;-6.1938;0.4717;-0.0213;-0.0685;-0.0031
0000213955;-3.7421;-6.1268;0.3591;-0.0222;-0.0717;-0.0008
0000213964;-3.9361;-6.2441;0.4693;-0.0300;-0.0663;-0.0019
0000213976;-3.6799;-6.2153;0.4166;-0.0264;-0.0669;-0.0056
0000213985;-3.8020;-6.3542;0.4860;-0.0177;-0.0648;-0.0079
0000213994;-3.6655;-6.1411;0.4118;-0.0143;-0.0673;-0.0108
0000214063;-3.6559;-6.2776;0.5004;-0.0079;-0.0340;-0.0136
0000214072;-3.8523;-6.3375;0.4717;0.0040;-0.0384;-0.0195
0000214084;-3.6464;-6.2058;0.3783;0.0123;-0.0317;-0.0211
0000214093;-3.6152;-6.1842;0.4429;0.0097;-0.0256;-0.0168
0000214106;-3.7158;-6.2489;0.4501;0.0043;-0.0238;-0.0160
0000214115;-3.8188;-6.1579;0.4070;-0.0027;-0.0135;-0.0120
0000214127;-3.8475;-6.3135;0.4142;-0.0004;-0.0216;-0.0129
0000214136;-3.8547;-6.3063;0.3615;-0.0027;-0.0136;-0.0156
0000214149;-3.8283;-6.3135;0.3663;0.0095;-0.0201;-0.0215
0000214158;-3.8523;-6.2082;0.2945;0.0061;-0.0176;-0.0153
0000214167;-3.8020;-6.2728;0.3591;0.0044;-0.0167;-0.0207
0000214179;-3.8092;-6.3375;0.3472;-0.0008;-0.0179;-0.0148
0000214188;-3.9002;-6.2034;0.3591;0.0000;-0.0213;-0.0192
0000214201;-3.6919;-6.1890;0.3974;-0.0028;-0.0228;-0.0099
0000214210;-3.8595;-6.1268;0.4142;-0.0071;-0.0268;-0.0099
0000214222;-3.9337;-6.2824;0.1580;-0.0136;-0.0241;-0.0133
0000214231;-3.7972;-6.1579;0.2682;-0.0107;-0.0285;-0.0179
0000214244;-3.7517;-6.1316;0.3543;-0.0148;-0.0368;-0.0218
0000214253;-3.9816;-6.2920;0.3232;-0.0185;-0.0302;-0.0167
0000214265;-3.9002;-6.3805;0.2705;-0.0167;-0.0360;-0.0200
0000214274;-3.7326;-6.2034;0.2538;-0.0209;-0.0393;-0.0181
0000214343;-3.8379;-6.3063;0.3328;-0.0064;-0.0565;-0.0117
0000214352;-3.7469;-6.2944;0.3256;-0.0133;-0.0478;-0.0085
0000214361;-3.6536;-6.1316;0.4022;-0.0101;-0.0478;-0.0075
0000214373;-3.6559;-6.1411;0.4046;-0.0055;-0.0518;-0.0100
0000214382;-3.7445;-6.1962;0.3065;-0.0145;-0.0472;-0.0013
0000214395;-3.7924;-6.0334;0.4381;-0.0189;-0.0429;-0.0037
0000214404;-3.8164;-6.1387;0.3591;-0.0179;-0.0489;-0.0092
0000214416;-3.8642;-6.2345;0.3711;-0.0173;-0.0497;-0.0099
0000214425;-3.7924;-6.2058;0.3998;-0.0253;-0.0406;0.0000
0000214438;-3.7110;-6.1938;0.3998;-0.0218;-0.0441;-0.0067
0000214447;-3.8020;-6.2896;0.3112;-0.0164;-0.0465;-0.0097
0000214459;-3.5458;-6.2153;0.4573;-0.0120;-0.0386;-0.0076
0000214468;-3.7541;-6.2393;0.3232;-0.0111;-0.0414;-0.0107
0000214481;-3.7852;-6.1794;0.2442;-0.0068;-0.0438;-0.0091
0000214490;-3.7445;-6.1363;0.3831;-0.0171;-0.0365;-0.0121
0000214499;-3.6488;-6.0861;0.4238;-0.0092;-0.0420;-0.0149
0000214511;-3.7709;-6.2872;0.3663;-0.0133;-0.0377;-0.0133
0000214520;-3.6847;-6.1435;0.3831;-0.0155;-0.0325;-0.0156
0000214533;-3.8379;-6.3566;0.3280;-0.0084;-0.0344;-0.0164
0000214542;-3.6751;-6.1603;0.3879;0.0021;-0.0332;-0.0132
0000214554;-3.7589;-6.1938;0.4549;0.0032;-0.0374;-0.0229
0000214563;-3.8164;-6.1699;0.3855;-0.0069;-0.0278;-0.0153
0000214632;-3.6799;-6.1100;0.3639;-0.0076;-0.0258;-0.0097
0000214641;-3.8379;-6.3446;0.4022;-0.0109;-0.0226;-0.0147
0000214653;-3.7637;-6.2513;0.3424;-0.0056;-0.0284;-0.0109
0000214662;-3.6895;-6.1723;0.3663;-0.0136;-0.0257;-0.0059
0000214671;-3.9073;-6.2441;0.3831;-0.0131;-0.0320;-0.0077
0000214684;-3.7804;-6.1268;0.2442;-0.0163;-0.0285;-0.0051
0000214693;-3.8188;-6.1818;0.3400;-0.0128;-0.0317;-0.0151
0000214705;-3.7541;-6.2560;0.2897;-0.0211;-0.0312;-0.0131
0000214714;-4.0606;-6.2680;0.3280;-0.0132;-0.0393;-0.0179
0000214727;-3.8666;-6.2441;0.2801;-0.0160;-0.0430;-0.0204
0000214736;-3.9265;-6.3279;0.4094;-0.0187;-0.0378;-0.0181
0000214748;-3.8211;-6.1555;0.4477;-0.0184;-0.0389;-0.0148
0000214757;-3.5937;-6.1363;0.3519;-0.0173;-0.0393;-0.0148
0000214770;-3.8259;-6.3351;0.3711;-0.0141;-0.0344;-0.0145
0000214779;-3.7493;-6.2058;0.4214;-0.0155;-0.0374;-0.0169
0000214791;-3.7828;-6.2321;0.3543;-0.0116;-0.0373;-0.0136
0000214800;-3.8020;-6.2537;0.3519;-0.0076;-0.0414;-0.0179
0000214809;-3.9193;-6.3015;0.3759;-0.0080;-0.0384;-0.0183
0000214822;-3.8235;-6.3207;0.3448;-0.0087;-0.0390;-0.0188
0000214831;-3.7134;-6.2010;0.3903;-0.0139;-0.0353;-0.0115
0000214843;-3.8283;-6.1842;0.3543;-0.0160;-0.0328;-0.0109
0000214852;-3.8307;-6.2345;0.3543;-0.0156;-0.0352;-0.0176
0000214921;-3.7445;-6.2920;0.3567;-0.0109;-0.0257;-0.0145
0000214930;-3.8738;-6.2752;0.2945;-0.0153;-0.0281;-0.0121
0000214942;-3.8379;-6.2824;0.4238;-0.0097;-0.0300;-0.0097
0000214951;-3.7637;-6.1818;0.3352;-0.0113;-0.0308;-0.0105
0000214964;-3.7493;-6.1435;0.3974;-0.0068;-0.0346;-0.0211
0000214973;-3.6871;-6.1890;0.2729;-0.0155;-0.0305;-0.0129
0000214985;-3.8068;-6.2130;0.3831;-0.0072;-0.0388;-0.0171
0000214994;-3.6464;-6.1363;0.3017;-0.0141;-0.0282;-0.0117
0000215003;-3.8906;-6.3542;0.2849;-0.0084;-0.0354;-0.0156
0000215016;-3.7757;-6.2201;0.4453;0.0011;-0.0372;-0.0208
0000215025;-3.7852;-6.1603;0.3400;0.0024;-0.0361;-0.0205
0000215037;-3.8523;-6.1124;0.4238;-0.0088;-0.0405;-0.0201
0000215046;-3.8906;-6.3015;0.3831;-0.0161;-0.0338;-0.0151
0000215059;-3.8738;-6.3135;0.3543;-0.0204;-0.0274;-0.0152
0000215068;-3.9313;-6.3015;0.3328;-0.0109;-0.0416;-0.0193
0000215080;-3.7972;-6.3183;0.3519;-0.0105;-0.0377;-0.0149
0000215089;-3.8762;-6.4212;0.3783;-0.0048;-0.0374;-0.0180
0000215102;-3.6727;-6.1268;0.4453;-0.0029;-0.0360;-0.0157
0000215111;-3.5434;-6.1028;0.4429;-0.0060;-0.0370;-0.0140
0000215123;-3.8164;-6.3159;0.3711;-0.0080;-0.0370;-0.0116
0000215132;-3.8116;-6.2106;0.3591;-0.0125;-0.0366;-0.0059
0000215141;-3.6990;-6.1651;0.3376;-0.0135;-0.0328;-0.0115
0000215210;-3.6895;-6.2130;0.3903;-0.0167;-0.0356;-0.0177
0000215217;-3.9959;-6.3494;0.4142;-0.0203;-0.0357;-0.0135
0000215228;-3.8355;-6.2177;0.3184;-0.0124;-0.0377;-0.0199
0000215236;-3.7302;-6.1723;0.4932;-0.0165;-0.0346;-0.0148
0000215248;-3.7709;-6.1866;0.3807;-0.0155;-0.0325;-0.0108
0000215256;-3.9433;-6.4021;0.3352;-0.0139;-0.0348;-0.0129
0000215267;-3.7685;-6.2920;0.4262;-0.0072;-0.0382;-0.0176
0000215275;-3.9193;-6.2537;0.3711;-0.0081;-0.0358;-0.0117
0000215288;-3.6751;-6.1651;0.3687;-0.0059;-0.0376;-0.0159
0000215296;-3.9528;-6.2944;0.4118;-0.0116;-0.0356;-0.0115
0000215308;-3.6823;-6.1531;0.2993;-0.0165;-0.0337;-0.0103
0000215316;-3.5985;-6.0406;0.3496;-0.0188;-0.0326;-0.0116
0000215324;-3.8930;-6.3758;0.2969;-0.0171;-0.0354;-0.0147
0000215335;-3.7804;-6.2704;0.3615;-0.0135;-0.0346;-0.0173
0000215343;-3.8954;-6.3710;0.3855;-0.0164;-0.0329;-0.0149
0000215355;-3.7110;-6.2225;0.3591;-0.0173;-0.0352;-0.0218
0000215363;-3.8618;-6.2441;0.3400;-0.0136;-0.0308;-0.0164
0000215374;-3.9169;-6.3398;0.3352;-0.0200;-0.0248;-0.0125
