time;acc_x;acc_y;acc_z;gyro_x;gyro_y;gyro_z
0000205301;5.4468;1.2929;5.4923;-0.2125;-0.0894;-0.6079
0000205309;5.4636;1.4054;5.5929;-0.2388;-0.0935;-0.6539
0000205316;5.2672;1.2929;5.6288;-0.2583;-0.0951;-0.6804
0000205324;5.4660;1.5658;5.6623;-0.2657;-0.1083;-0.6847
0000205391;4.1396;1.8603;4.6855;-0.3786;-0.5624;-0.7476
0000205399;4.2353;1.4988;4.5274;-0.3575;-0.6370;-0.8170
0000205411;3.7421;0.6488;4.5610;-0.3114;-0.7482;-0.9089
0000205419;3.6440;0.5459;4.4508;-0.2674;-0.8250;-0.9513
0000205427;3.5267;0.3711;4.5059;-0.2284;-0.8897;-0.9658
0000205438;3.2489;0.0934;5.0374;-0.2172;-0.9749;-0.9777
0000205446;3.4955;0.5363;5.8514;-0.2530;-0.9904;-0.9723
0000205458;4.1707;0.2322;7.2832;-0.3367;-0.9357;-0.9454
0000205466;5.1763;0.2035;8.0110;-0.3920;-0.8628;-0.8969
0000205477;6.5170;0.2011;8.1977;-0.4126;-0.7019;-0.7562
0000205485;7.3861;0.4094;8.3390;-0.3953;-0.5844;-0.6185
0000205497;8.6383;0.9912;7.3574;-0.3357;-0.4678;-0.3768
0000205505;8.8562;1.0271;6.7732;-0.3159;-0.4263;-0.2176
0000205513;8.3534;1.0151;5.9735;-0.3059;-0.3948;-0.0628
0000205525;6.4811;0.9697;5.4708;-0.2403;-0.3603;0.1039
0000205533;5.0374;1.0104;4.9680;-0.1604;-0.3628;0.1579
0000205601;6.9599;0.3208;4.7429;0.0865;-0.5752;-0.3247
0000205609;7.4196;0.4764;5.0159;0.0954;-0.5052;-0.3888
0000205620;7.2592;0.5842;5.3726;0.0791;-0.4048;-0.4258
0000205628;7.0605;1.0104;5.5976;0.0624;-0.3529;-0.4169
0000205636;6.4931;1.2977;5.8897;0.0366;-0.3007;-0.3785
0000205648;5.6072;1.6113;6.0741;-0.0063;-0.2402;-0.2770
0000205656;5.1954;1.5060;6.1651;-0.0262;-0.2077;-0.2017
0000205667;4.9368;1.2091;6.2273;-0.0254;-0.1921;-0.1095
0000205675;4.6711;0.7159;6.1842;-0.0160;-0.1865;-0.0480
0000205687;4.9033;0.3687;6.0573;0.0201;-0.2057;0.0071
0000205695;4.8387;0.3711;6.0190;0.0444;-0.2272;0.0179
0000205706;4.9033;0.0622;5.9735;0.0863;-0.2746;0.0077
0000205714;5.1787;0.2394;6.1914;0.1014;-0.3103;-0.0285
0000205722;5.0877;0.4334;6.3710;0.1091;-0.3299;-0.0642
0000205734;4.9584;0.6800;7.1994;0.0777;-0.3600;-0.1327
0000205742;4.6759;0.9433;7.5130;0.0509;-0.3744;-0.1564
0000205753;4.5226;1.4676;6.9791;0.0350;-0.4128;-0.2001
0000205761;4.1707;1.5227;6.2632;0.0365;-0.4093;-0.2158
0000205773;4.6448;1.1181;5.3917;0.0638;-0.3419;-0.2433
0000205781;5.1116;0.9361;5.1499;0.0747;-0.2695;-0.2559
0000205792;5.9065;0.5626;4.8195;0.0945;-0.1569;-0.2690
0000205800;6.2991;0.1365;4.8195;0.1164;-0.0516;-0.2433
0000205808;6.9312;0.2729;4.9440;0.1359;0.0490;-0.2040
0000205876;4.6424;0.8619;4.8578;0.1571;0.6793;0.1988
0000205884;4.1324;0.7757;4.8746;0.1801;0.6896;0.2126
0000205895;3.8858;0.9409;5.0374;0.2133;0.6623;0.1973
0000205903;3.6871;0.8188;5.1212;0.2300;0.6398;0.1751
0000205911;3.7134;1.0726;5.0781;0.2418;0.6106;0.1553
0000205923;3.7876;0.9912;5.0039;0.2602;0.5481;0.1091
0000205931;4.1899;0.8236;4.7764;0.2794;0.5145;0.0774
0000205942;4.6017;0.6560;4.3862;0.3123;0.4866;0.0553
0000205950;4.6591;0.5531;4.1563;0.3421;0.4815;0.0544
0000205962;4.9057;0.6297;3.9768;0.3672;0.4795;0.1010
0000205970;5.0589;0.8930;3.7709;0.3878;0.4636;0.1460
0000205978;4.7645;1.0726;3.8188;0.3917;0.4493;0.2168
0000205989;4.3958;1.2641;3.9983;0.3840;0.4100;0.3078
0000205997;3.9121;1.3408;4.1372;0.3710;0.3741;0.3656
0000206009;3.4500;1.4868;4.1563;0.3810;0.2954;0.4199
0000206017;3.2825;1.4533;4.0845;0.4080;0.2256;0.4343
0000206028;2.8706;1.5514;4.1563;0.4491;0.1326;0.4291
0000206036;2.9042;1.6209;4.0725;0.4922;0.0577;0.4122
0000206044;3.1484;1.8268;4.0821;0.5345;-0.0262;0.3957
0000206056;3.2370;2.0997;4.1037;0.5766;-0.1340;0.3716
0000206064;3.4979;2.2721;4.2569;0.5824;-0.2017;0.3569
0000206076;3.5314;2.0686;4.1683;0.5868;-0.2809;0.3349
0000206084;3.9313;1.9704;4.0701;0.5837;-0.3142;0.3172
0000206152;5.4157;0.6584;3.7661;0.4078;-0.1502;0.3127
0000206160;5.4157;0.3591;3.6871;0.3998;-0.1073;0.3212
0000206168;5.3989;0.0215;3.5793;0.3914;-0.0762;0.3262
0000206179;5.5210;-0.2418;3.5841;0.3746;-0.0197;0.3449
0000206187;5.4995;-0.4501;3.3974;0.3544;0.0087;0.3612
0000206199;5.6527;-0.4022;3.5051;0.3090;0.0238;0.4004
0000206207;5.4468;-0.3543;3.5650;0.2579;0.0370;0.4305
0000206218;5.5545;-0.7614;3.3974;0.1944;0.0430;0.4478
0000206226;5.5857;-1.0582;3.4572;0.1512;0.0642;0.4442
0000206234;5.5881;-1.5395;3.5338;0.1104;0.1074;0.4205
0000206246;5.9951;-2.0853;3.6344;0.0436;0.1968;0.3652
0000206254;6.2489;-2.3990;3.7709;0.0036;0.2478;0.3271
0000206265;6.7971;-2.5762;4.0749;-0.0739;0.3281;0.3323
0000206273;6.9145;-2.8706;4.3191;-0.1244;0.3841;0.3665
0000206285;7.4005;-2.6600;4.6448;-0.1696;0.4499;0.4433
0000206293;7.5633;-2.7916;4.6495;-0.1797;0.4948;0.4960
0000206301;7.5872;-2.7461;4.7453;-0.1747;0.5296;0.5445
0000206312;7.8817;-2.2625;5.1140;-0.1864;0.5941;0.5923
0000206320;7.8841;-2.3367;5.8371;-0.1799;0.6528;0.6087
0000206332;7.5633;-2.6025;6.7493;-0.1085;0.7132;0.6366
0000206340;7.2903;-2.7605;7.1395;0.0195;0.7258;0.6628
0000206352;6.0286;-3.0789;6.3207;0.2850;0.7265;0.6720
0000206360;5.0661;-2.6863;5.4708;0.4533;0.7133;0.6648
0000206428;4.3479;2.9975;4.1156;0.2264;-0.4786;0.5845
0000206436;6.3015;2.6456;3.6631;0.1168;-0.5506;0.5260
0000206444;8.0613;2.4612;2.7845;0.0261;-0.5702;0.4038
0000206455;9.8234;1.9872;2.1476;-0.0617;-0.5067;0.1889
0000206463;9.9431;1.4174;2.1284;-0.0943;-0.4215;0.0322
0000206475;9.5912;0.9218;2.6504;-0.1088;-0.2851;-0.1721
0000206483;8.3462;0.4573;2.7150;-0.1382;-0.2066;-0.2288
0000206494;6.8498;0.1796;3.3375;-0.1234;-0.1256;-0.2663
0000206502;5.7916;0.0479;4.1348;-0.0193;-0.0538;-0.2825
0000206510;5.2050;0.4070;4.3120;0.0958;0.0248;-0.2914
0000206522;4.6208;0.9242;3.4812;0.2619;0.1102;-0.2582
0000206530;4.8267;1.4437;2.7102;0.3162;0.0974;-0.2010
0000206541;5.4348;1.2833;2.2170;0.3537;0.0374;-0.0572
0000206549;6.1507;1.2522;2.5211;0.4170;-0.0269;0.0662
0000206561;6.3087;1.2498;3.0598;0.5626;-0.1147;0.2388
0000206569;6.3398;1.7190;3.5745;0.6939;-0.1607;0.3066
0000206577;6.4667;2.7821;4.3910;0.8431;-0.1752;0.3392
0000206588;5.8993;4.1061;5.6024;1.0511;-0.1251;0.2814
0000206596;5.6264;5.1882;6.2177;1.2239;-0.0393;0.1607
0000206608;5.0039;7.8123;6.2082;1.4889;0.0921;-0.0810
0000206616;4.5705;9.8928;6.2896;1.6166;0.1459;-0.2041
0000206628;4.1851;13.6086;7.4436;1.8695;0.1649;-0.2996
0000206636;3.3567;15.3540;8.0852;2.0428;0.1387;-0.1652
0000206644;4.5418;18.6700;5.9568;2.0209;0.0586;-0.0930
0000206712;4.5969;-0.0862;0.3448;0.0059;0.1499;0.3238
0000206720;4.7525;-1.2210;0.0000;0.0612;0.0902;0.2787
0000206731;4.9560;-2.1955;-0.0790;0.2445;-0.0045;0.2459
0000206739;5.4109;-2.2027;-0.1006;0.4330;-0.0757;0.2152
0000206751;6.1603;-1.1325;0.0383;0.7023;-0.1724;0.1857
0000206759;6.5841;-0.2729;0.0048;0.7895;-0.2005;0.1913
0000206771;7.2592;0.5674;0.0958;0.8244;-0.1817;0.2156
0000206779;7.6160;1.0271;0.1987;0.8302;-0.1259;0.1817
0000206787;7.6710;1.5107;0.4405;0.8002;-0.0302;0.1223
0000206798;7.5250;2.0997;0.5195;0.6735;0.0942;0.0252
0000206806;6.7971;2.0327;0.4501;0.5331;0.1541;0.0056
0000206818;6.8738;2.4157;0.5507;0.4050;0.2045;0.0009
0000206826;6.5457;2.5091;0.7135;0.3992;0.2108;-0.0103
0000206837;6.2106;2.7845;0.8404;0.4418;0.1871;-0.0196
0000206845;6.0549;3.2417;0.9936;0.5093;0.1426;-0.0228
0000206853;5.8107;3.4093;1.1468;0.5901;0.0731;-0.0244
0000206865;5.9592;4.0869;1.3719;0.7153;-0.0360;0.0001
0000206873;5.8658;4.3934;1.3551;0.7753;-0.0945;0.0268
0000206884;6.3303;4.9752;1.3120;0.8134;-0.1466;0.0877
0000206892;6.4428;5.3271;1.1325;0.8126;-0.1607;0.1336
0000206904;6.7636;5.3582;0.8380;0.7891;-0.1545;0.2021
0000206912;7.2065;5.4540;0.6704;0.7473;-0.1346;0.2451
0000206920;7.2880;5.3199;0.3831;0.7027;-0.1098;0.2762
0000206988;6.3829;3.3184;0.3711;0.3655;0.0618;0.1723
0000206996;6.3758;3.1053;0.3759;0.3184;0.0783;0.1657
0000207008;6.2153;2.6121;0.5578;0.2663;0.0794;0.1532
0000207016;6.0765;2.3056;0.4741;0.2360;0.0842;0.1502
0000207027;6.3925;2.3655;0.5100;0.2377;0.0681;0.1358
0000207035;6.5098;2.2266;0.5722;0.2441;0.0537;0.1299
0000207043;6.4045;2.1715;0.5555;0.2549;0.0450;0.1154
0000207055;6.3734;2.1308;0.5411;0.2888;0.0293;0.0841
0000207063;6.2632;2.2697;0.4549;0.3235;0.0221;0.0553
0000207074;6.3877;2.4086;0.0934;0.3427;0.0005;0.0386
0000207082;6.2944;2.4636;-0.0263;0.3481;-0.0286;0.0264
0000207090;6.5170;2.7940;0.0455;0.3432;-0.0460;0.0184
0000207102;6.2345;2.8491;0.0814;0.3289;-0.0713;0.0140
0000207110;6.6391;3.4548;0.1317;0.3071;-0.0830;0.0117
0000207121;6.5769;3.8116;0.1915;0.2675;-0.0950;0.0132
0000207129;6.4284;3.9241;0.2011;0.2332;-0.1021;0.0224
0000207141;6.3997;4.2306;0.1413;0.1797;-0.1263;0.0458
0000207149;6.3351;4.0558;0.0287;0.1352;-0.1439;0.0645
0000207157;6.3087;3.9840;-0.0431;0.1164;-0.1711;0.0717
0000207168;6.2896;3.6009;-0.2658;0.0838;-0.1857;0.0953
0000207176;6.5457;3.3567;-0.2849;0.0845;-0.2001;0.1007
0000207188;6.4069;3.0047;-0.2705;0.1018;-0.2140;0.0894
0000207196;6.6056;3.1843;-0.2059;0.1051;-0.2093;0.0865
0000207264;6.6343;2.6312;-0.5171;0.0629;-0.2148;-0.0187
0000207272;7.0581;2.7438;-0.4932;0.0745;-0.2146;-0.0204
0000207284;6.8881;2.7629;-0.5243;0.0839;-0.1939;-0.0197
0000207292;7.2161;3.0742;-0.4788;0.0898;-0.1732;-0.0217
0000207300;7.0294;3.0047;-0.3783;0.0945;-0.1644;-0.0228
0000207311;7.1850;3.1268;-0.3543;0.0831;-0.1383;-0.0234
0000207319;7.1778;3.2178;-0.2777;0.0719;-0.1183;-0.0176
0000207331;7.0126;3.1316;-0.3184;0.0462;-0.1009;-0.0169
0000207339;6.9216;2.9928;-0.3208;0.0361;-0.0979;-0.0136
0000207350;6.8019;3.0789;-0.2562;0.0177;-0.0935;-0.0005
0000207358;6.5793;2.8563;-0.4094;0.0123;-0.1055;-0.0047
0000207370;6.4691;2.8539;-0.3208;0.0137;-0.1159;-0.0027
0000207378;6.3111;2.9090;-0.2322;0.0196;-0.1310;-0.0079
0000207386;6.5841;3.0789;-0.2035;0.0277;-0.1418;-0.0215
0000207397;6.4811;3.0909;-0.2682;0.0084;-0.1454;-0.0376
0000207405;6.6535;3.1843;-0.1987;0.0071;-0.1499;-0.0497
0000207417;6.8067;3.2489;-0.3807;-0.0035;-0.1532;-0.0670
0000207425;6.7684;3.3255;-0.5291;-0.0273;-0.1482;-0.0654
0000207436;6.6655;3.1987;-0.5219;-0.0421;-0.1502;-0.0701
0000207444;6.6367;3.1699;-0.4262;-0.0609;-0.1428;-0.0608
0000207456;6.8019;3.2226;-0.4788;-0.0809;-0.1399;-0.0489
0000207464;6.8690;3.2489;-0.4166;-0.0914;-0.1386;-0.0506
0000207532;6.4093;2.5881;-0.2227;-0.1364;-0.1338;-0.0830
0000207540;6.4811;2.7270;-0.1341;-0.1203;-0.1419;-0.0779
0000207548;6.6032;2.9161;-0.2035;-0.1282;-0.1424;-0.0683
0000207560;6.6918;2.9760;-0.0551;-0.1344;-0.1503;-0.0613
0000207568;6.6631;3.0670;-0.2107;-0.1374;-0.1462;-0.0654
0000207579;6.8761;3.2322;-0.2179;-0.1480;-0.1480;-0.0786
0000207587;6.6990;3.0047;-0.0192;-0.1561;-0.1339;-0.0781
0000207599;6.8043;3.1532;0.0958;-0.1727;-0.1268;-0.0825
0000207607;6.7301;2.9880;-0.0455;-0.1801;-0.1223;-0.0819
0000207618;6.9959;3.1149;0.1437;-0.1811;-0.1135;-0.0735
0000207626;7.0844;3.0813;0.1987;-0.1843;-0.1066;-0.0636
0000207634;6.9025;2.9712;0.2610;-0.1801;-0.1038;-0.0538
0000207646;6.9049;2.8778;0.1365;-0.1767;-0.0898;-0.0485
0000207654;6.8043;2.7318;0.1508;-0.1797;-0.0757;-0.0345
0000207665;6.9001;2.8826;0.2251;-0.1843;-0.0485;-0.0244
0000207673;6.8426;2.8515;0.3304;-0.1816;-0.0394;-0.0253
0000207685;6.8690;2.8659;0.2370;-0.1828;-0.0168;-0.0129
0000207693;6.9097;2.9449;0.2777;-0.1813;-0.0109;-0.0133
0000207704;6.7540;2.9018;0.4645;-0.1949;0.0125;-0.0027
0000207712;6.7780;2.9544;0.3591;-0.1927;0.0165;-0.0125
0000207720;6.8426;2.9832;0.5100;-0.1977;0.0325;-0.0117
0000207732;6.7133;2.9233;0.4262;-0.2030;0.0438;-0.0183
0000207740;6.6679;2.7318;0.4118;-0.2080;0.0565;-0.0115
0000207808;6.3662;3.1173;0.5459;-0.1977;0.0701;-0.0341
0000207816;6.4524;3.2633;0.4860;-0.2058;0.0659;-0.0242
0000207828;6.6224;3.2968;0.3807;-0.2221;0.0557;-0.0045
0000207836;6.6295;3.0933;0.4645;-0.2313;0.0505;0.0019
0000207847;6.6918;2.6959;0.5195;-0.2376;0.0518;0.0076
0000207855;6.7373;2.7677;0.4046;-0.2376;0.0553;0.0131
0000207863;6.5697;2.6025;0.4645;-0.2349;0.0574;0.0107
0000207875;6.5505;2.5498;0.5363;-0.2205;0.0609;0.0049
0000207883;6.5290;2.7605;0.5531;-0.2062;0.0580;0.0003
0000207894;6.3279;2.5809;0.6105;-0.1891;0.0568;-0.0012
0000207902;6.5529;2.7126;0.5866;-0.1848;0.0581;-0.0065
0000207914;6.5362;2.9928;0.5938;-0.1784;0.0568;-0.0067
0000207922;6.5577;2.9975;0.6105;-0.1800;0.0513;-0.0123
0000207930;6.3877;2.8778;0.5890;-0.1827;0.0560;-0.0108
0000207941;6.4883;2.9592;0.5028;-0.1911;0.0574;-0.0115
0000207949;6.6272;2.9880;0.5770;-0.1920;0.0600;-0.0077
0000207961;6.4260;2.7701;0.7374;-0.2029;0.0570;-0.0011
0000207969;6.6295;3.0382;0.8045;-0.2062;0.0637;0.0071
0000207980;6.5362;2.9281;0.8164;-0.2038;0.0589;0.0081
0000207988;6.6511;2.9113;0.8475;-0.2102;0.0588;0.0151
0000207996;6.5481;2.8467;0.9146;-0.2058;0.0541;0.0127
0000208008;6.5769;2.8276;0.8140;-0.2049;0.0417;-0.0031
0000208016;6.3542;2.5450;0.9026;-0.1980;0.0388;-0.0047
0000208084;6.6415;2.9975;1.0391;-0.2010;0.0155;-0.0055
0000208092;6.7253;3.0167;0.9625;-0.2044;0.0104;-0.0028
0000208104;6.7732;2.9113;0.9505;-0.2097;0.0053;0.0063
0000208112;6.7062;2.8491;1.0367;-0.2212;0.0107;0.0189
0000208123;6.7277;2.8611;1.0558;-0.2158;0.0060;0.0129
0000208131;6.7157;2.7414;1.1420;-0.2189;0.0113;0.0092
0000208139;6.6990;2.6121;1.1037;-0.2194;0.0176;0.0057
0000208151;6.5553;2.6217;1.1229;-0.2152;0.0172;-0.0084
0000208159;6.4979;2.8467;1.0989;-0.2158;0.0189;-0.0113
0000208171;6.4907;2.8994;1.0175;-0.2186;0.0209;-0.0084
0000208179;6.6367;3.0143;1.1779;-0.2256;0.0149;-0.0107
0000208190;6.3638;2.9401;1.1013;-0.2306;0.0095;-0.0063
0000208198;6.4883;2.9233;1.2665;-0.2373;0.0085;-0.0081
0000208206;6.5146;2.9544;1.1899;-0.2380;0.0067;-0.0047
0000208218;6.5505;2.9281;1.1803;-0.2425;-0.0033;-0.0071
0000208226;6.4117;2.7461;1.2282;-0.2382;-0.0116;-0.0031
0000208237;6.4332;2.7270;1.2091;-0.2369;-0.0168;0.0048
0000208245;6.5290;2.7054;1.1899;-0.2326;-0.0222;0.0141
0000208257;6.2944;2.5402;1.3479;-0.2321;-0.0195;0.0236
0000208265;6.3734;2.5953;1.3479;-0.2244;-0.0277;0.0221
0000208273;6.3662;2.6456;1.3144;-0.2129;-0.0409;0.0216
0000208341;6.4859;2.6504;1.4102;-0.2037;-0.0300;-0.0039
0000208349;6.7301;2.7677;1.2857;-0.2126;-0.0245;0.0003
0000208361;6.7397;2.6863;1.4629;-0.2158;-0.0123;-0.0025
0000208369;6.8019;2.8012;1.3455;-0.2114;-0.0064;-0.0013
0000208380;6.7253;2.7509;1.4796;-0.2144;0.0079;0.0075
0000208388;6.4907;2.6025;1.4700;-0.2222;0.0148;0.0124
0000208400;6.5697;2.5881;1.6855;-0.2309;0.0249;0.0164
0000208408;6.8283;2.7725;1.6065;-0.2305;0.0289;0.0187
0000208416;6.8594;2.9329;1.6137;-0.2403;0.0354;0.0234
0000208427;6.6726;2.6695;1.5754;-0.2465;0.0350;0.0242
0000208435;6.7325;2.7916;1.6113;-0.2534;0.0362;0.0265
0000208447;6.7109;2.8180;1.6999;-0.2609;0.0356;0.0300
0000208455;6.5673;2.7557;1.6855;-0.2598;0.0225;0.0310
0000208466;6.6535;2.7629;1.7597;-0.2698;0.0187;0.0368
0000208474;6.5386;2.7150;1.7047;-0.2797;0.0104;0.0390
0000208482;6.5864;2.7509;1.6831;-0.2822;-0.0001;0.0326
0000208494;6.5098;2.7509;1.8244;-0.2886;-0.0040;0.0312
0000208502;6.7732;2.8922;1.7957;-0.3036;-0.0041;0.0364
0000208513;6.6008;2.8180;1.8292;-0.3082;-0.0136;0.0321
0000208521;6.5888;2.8395;1.8962;-0.3219;-0.0124;0.0370
0000208533;6.7588;3.0454;1.8866;-0.3479;-0.0187;0.0413
0000208541;6.4763;3.0095;2.0470;-0.3693;-0.0173;0.0480
0000208549;6.5529;3.0478;1.9441;-0.3906;-0.0270;0.0478
0000208615;6.7660;2.7773;2.1500;-0.5048;-0.0064;0.0585
0000208623;6.6080;2.8012;2.1931;-0.5183;-0.0023;0.0508
0000208635;6.7660;2.8922;2.3080;-0.5403;-0.0024;0.0445
0000208643;6.7876;2.9784;2.2769;-0.5594;0.0051;0.0404
0000208654;6.6870;2.9113;2.3727;-0.5812;0.0036;0.0260
0000208662;6.6990;2.7485;2.4900;-0.5927;0.0163;0.0189
0000208674;6.5505;2.6767;2.3631;-0.6055;0.0273;0.0059
0000208682;6.6798;2.7126;2.4301;-0.6079;0.0309;-0.0053
0000208690;6.6894;2.4349;2.3343;-0.6095;0.0450;-0.0080
0000208701;6.7253;2.2649;2.3774;-0.6027;0.0632;-0.0143
0000208709;6.8738;2.2936;2.4181;-0.6019;0.0694;-0.0172
0000208721;6.7564;2.1045;2.5570;-0.6061;0.0931;-0.0197
0000208729;6.8354;2.3296;2.5115;-0.6177;0.0954;-0.0293
0000208740;7.0054;2.4924;2.7509;-0.6194;0.1126;-0.0270
0000208748;6.9623;2.3391;2.8898;-0.6237;0.1182;-0.0250
0000208756;6.8043;2.5905;2.9640;-0.6219;0.1079;-0.0337
0000208768;6.7612;2.5163;2.9808;-0.6247;0.1013;-0.0188
0000208776;6.7133;2.4708;2.9497;-0.6319;0.0815;-0.0252
0000208787;6.8259;2.5450;2.6695;-0.6544;0.0625;-0.0211
0000208795;6.7014;2.5259;2.4277;-0.6873;0.0573;-0.0246
0000208807;6.6056;2.8611;2.6360;-0.7588;0.0252;-0.0217
0000208815;6.3973;3.0311;3.0167;-0.8013;0.0193;-0.0207
0000208883;7.0366;2.7198;2.9042;-1.2213;-0.0401;-0.0364
0000208891;7.1658;2.5881;2.8395;-1.2456;-0.0232;-0.0338
0000208899;7.0916;2.6169;3.0335;-1.2705;0.0005;-0.0322
0000208911;7.0437;3.1220;3.2250;-1.3017;0.0249;-0.0485
0000208919;6.9623;3.2082;3.1196;-1.3391;0.0300;-0.0533
0000208930;6.6846;3.1388;3.3758;-1.4009;0.0598;-0.0906
0000208938;6.8833;3.3184;3.2681;-1.4488;0.0942;-0.1127
0000208950;6.8378;3.0909;3.1580;-1.5207;0.1363;-0.1679
0000208958;6.7876;2.9712;3.0670;-1.5513;0.1547;-0.2016
0000208966;6.8139;2.7509;2.9712;-1.6016;0.1661;-0.2253
0000208977;7.1204;2.6049;3.3423;-1.6150;0.1919;-0.2698
0000208985;7.2377;2.6097;3.5243;-1.6398;0.2194;-0.2975
0000208997;7.3215;2.9568;4.1492;-1.6948;0.2522;-0.3284
0000209005;7.3646;3.0239;4.4125;-1.7343;0.2860;-0.3415
0000209016;7.0174;2.7581;4.5466;-1.7921;0.3011;-0.3579
0000209024;6.9599;2.5211;4.5514;-1.8146;0.3000;-0.3572
0000209036;6.8546;2.3463;4.6735;-1.8647;0.2884;-0.3523
0000209044;6.6870;2.1644;4.7812;-1.8571;0.2665;-0.3509
0000209052;6.5529;2.1644;4.9177;-1.8599;0.2278;-0.3371
0000209063;6.9743;2.4301;5.2864;-1.8461;0.1565;-0.3403
0000209071;6.9599;2.5570;5.6407;-1.8764;0.1270;-0.3405
0000209083;7.2425;2.9329;6.5434;-1.9171;0.1091;-0.3527
0000209091;7.1228;2.9185;6.7947;-1.9369;0.1014;-0.3659
0000209159;7.0581;-1.4437;5.7054;-1.8496;0.1286;-0.0550
0000209167;6.7900;-2.2697;5.5138;-1.8022;0.1410;-0.0204
0000209175;7.1682;-2.5139;5.7437;-1.7384;0.1704;0.0236
0000209187;7.0557;-2.9090;5.7533;-1.6221;0.2116;0.1124
0000209195;6.9121;-2.8802;5.7269;-1.5270;0.2573;0.1780
0000209206;7.1180;-3.3878;5.7652;-1.4286;0.2986;0.2494
0000209214;7.1060;-3.4093;5.6862;-1.3115;0.3376;0.2835
0000209226;6.8402;-3.6703;5.5426;-1.1278;0.3977;0.3219
0000209234;7.0318;-3.6057;5.3295;-1.0118;0.4426;0.3095
0000209245;7.1204;-4.0486;5.1284;-0.8557;0.4922;0.3357
0000209253;6.9839;-3.9672;5.0805;-0.7209;0.5256;0.3564
0000209261;7.0318;-3.6200;5.1308;-0.6162;0.5598;0.3852
0000209273;7.0797;-3.0287;5.5522;-0.5039;0.6237;0.4242
0000209281;7.0749;-2.6145;5.6647;-0.4411;0.6635;0.4431
0000209292;6.9432;-2.0207;5.8131;-0.4025;0.7233;0.4656
0000209300;7.0844;-1.5490;5.8035;-0.3996;0.7576;0.4712
0000209312;6.8354;-1.4126;5.8395;-0.4191;0.8018;0.5043
0000209320;6.7588;-1.4341;5.9640;-0.4226;0.8395;0.5325
0000209328;6.6655;-1.5323;6.0262;-0.4193;0.8667;0.5680
0000209339;6.2848;-1.8962;6.0023;-0.4052;0.8775;0.5939
0000209347;6.4476;-1.9201;6.1483;-0.3960;0.8925;0.6074
0000209359;6.2848;-1.8555;6.4931;-0.3720;0.9258;0.5963
0000209367;6.4021;-1.5945;6.4715;-0.3553;0.9498;0.5758
0000209435;7.1132;-1.0343;6.5553;-0.2884;1.2709;0.7492
0000209443;7.2377;-1.1157;6.4548;-0.2610;1.3647;0.7654
0000209455;7.6686;-0.7685;6.2680;-0.2265;1.5151;0.7745
0000209463;7.9464;-0.4142;5.7197;-0.2134;1.6050;0.7827
0000209471;8.0014;-0.3160;5.0446;-0.2253;1.6939;0.8046
0000209482;7.9918;-0.2538;4.6352;-0.2541;1.8199;0.8374
0000209490;7.7500;-0.2394;4.3742;-0.2773;1.9155;0.8727
0000209502;7.2640;-0.7518;4.0893;-0.2739;2.0661;0.8892
0000209510;7.0413;-1.0247;4.1779;-0.2675;2.1767;0.8901
0000209522;6.8259;-1.1732;3.7852;-0.2094;2.3206;0.8657
0000209530;6.9264;-1.3192;3.3016;-0.1595;2.4054;0.8403
0000209538;6.8426;-1.3072;2.5857;-0.1055;2.4769;0.8052
0000209550;6.7780;-1.1229;1.8364;-0.0637;2.5570;0.8090
0000209558;6.6056;-1.2689;0.8978;-0.0115;2.5711;0.8359
0000209570;5.8826;-1.5874;0.8021;0.0446;2.5823;0.8990
0000209578;5.8083;-1.4868;0.4764;0.0173;2.5810;0.9266
0000209590;5.4636;-1.7885;0.3328;-0.1320;2.6201;0.8763
0000209598;5.4013;-1.9992;0.0694;-0.2268;2.6790;0.8088
0000209610;5.2553;-2.9521;-0.3400;-0.2659;2.7720;0.6752
0000209618;5.3822;-3.6272;-0.2179;-0.2415;2.8241;0.5698
0000209626;5.2744;-4.2258;-0.4669;-0.1613;2.8623;0.4523
0000209638;5.1643;-4.7788;-0.8116;-0.0306;2.9040;0.3035
0000209646;4.8267;-4.8866;-1.1205;0.0894;2.9067;0.2293
0000209714;4.9249;-3.8355;18.2510;-0.2097;2.7637;0.7147
0000209722;4.1300;-5.9448;26.4248;-0.3186;2.5556;0.7907
0000209734;-1.7095;-3.8954;12.7108;0.2458;1.8477;0.3681
0000209742;-8.1666;0.8212;3.8211;0.2080;1.7148;0.0230
0000209754;-17.5184;4.7070;9.1099;0.1160;1.8090;-0.1166
0000209762;-6.8570;1.4772;7.6974;-0.2210;1.3142;-0.2100
0000209770;3.2801;-0.2729;7.5274;-0.3523;1.4252;-0.5171
0000209782;12.6270;0.4549;6.8067;-0.2514;2.2491;-1.1695
0000209790;15.6222;0.7254;4.3024;-0.1296;2.9585;-1.5731
0000209802;18.5838;0.1030;-1.2761;-0.3509;3.8910;-1.8604
0000209810;19.7905;-0.9170;-4.3407;-0.7655;4.3656;-2.0105
0000209822;19.8886;-2.1715;-8.4587;-1.5584;4.3656;-2.1517
0000209830;19.9126;-3.0406;-10.7931;-2.2832;4.3656;-2.2732
0000209842;15.7898;-3.8499;-12.9670;-3.1010;4.3656;-2.5527
0000209850;7.9990;-5.2840;-12.5767;-3.2738;4.3656;-2.6624
0000209862;-8.6598;-8.9543;-6.2991;-2.5977;4.3656;-2.6953
0000209870;-36.8970;-17.8416;-3.8020;-0.4334;4.3656;-2.8062
0000209878;-62.3522;-5.7269;-13.0580;2.7059;4.3656;-3.2860
0000209890;-62.5030;-8.6359;4.4029;0.0390;4.3656;-4.3657
0000209898;-67.8445;-16.7163;2.4493;-4.3657;4.3656;-4.3657
0000209910;-34.3329;-22.6084;-1.0199;-3.7618;4.3656;-4.3657
0000209918;-11.6717;-34.0479;-3.7373;-0.1090;4.3656;-4.3657
0000209986;0.6632;1.4533;4.9775;-0.0790;-0.4112;2.6334
0000209994;3.7804;1.5897;0.5770;-0.7401;0.0609;2.2183
0000210006;4.8722;-1.7047;-2.5211;-1.5736;0.6503;1.9784
0000210014;5.4372;-3.8068;-4.0151;-1.9887;0.8444;1.9480
0000210026;5.4181;-8.2480;-4.3598;-2.3705;0.9619;1.9453
0000210034;5.0781;-11.3174;-4.9440;-2.4624;0.9936;2.0935
0000210042;4.0390;-14.2263;-5.0829;-2.4364;0.9590;2.2130
0000210054;1.6424;-18.6413;-5.0206;-1.9315;0.8485;1.9847
0000210062;0.9098;-20.1089;-6.5170;-1.2648;0.7253;1.4881
0000210074;2.1117;-19.8192;-8.1307;0.0847;0.3808;0.7304
0000210082;3.6703;-16.7259;-7.7452;1.1106;0.1026;0.3837
0000210094;2.9449;-10.3142;-7.0006;2.4120;0.1455;-0.1175
0000210102;0.4788;-6.0142;-6.5697;2.9793;0.5581;-0.4767
0000210114;-2.5977;-0.6201;-7.2233;3.1472;1.6379;-1.1896
0000210122;-1.9609;1.3455;-8.0828;2.5354;2.2058;-1.3895
0000210133;-0.2777;1.6927;-9.7420;1.4380;2.8148;-1.5047
0000210141;0.3639;-0.2873;-10.6207;0.7520;3.0097;-1.7096
0000210149;-1.3503;-3.7900;-9.8402;0.2899;3.0795;-1.8866
0000210161;-5.4540;-10.3334;-10.5153;0.4891;3.2105;-1.7209
0000210169;-7.0749;-12.6127;-12.8832;0.6360;3.2005;-1.2672
0000210181;-7.0773;-11.3294;-13.5608;0.6699;2.6716;-0.5677
0000210189;-6.5434;-8.1475;-12.3397;0.5801;2.3254;-0.3239
0000210257;-3.1460;-5.5665;-6.5577;-0.2928;0.4234;-0.1628
0000210265;-2.9521;-6.8259;-6.8043;-0.3341;0.3038;-0.1255
0000210277;-2.8898;-7.3358;-6.9312;-0.3800;0.1467;0.0032
0000210285;-2.4277;-7.6279;-7.0342;-0.3940;0.0027;0.1446
0000210297;-2.2362;-8.1307;-7.5489;-0.3501;-0.1962;0.3655
0000210305;-1.6712;-7.9057;-8.5066;-0.3046;-0.3420;0.4691
0000210314;-0.6512;-7.5729;-8.2504;-0.1947;-0.4137;0.5364
0000210327;-0.0694;-7.1132;-9.0597;-0.0502;-0.4317;0.5392
0000210336;-0.4357;-6.4667;-9.0597;0.0161;-0.4497;0.4682
0000210349;-1.8196;-5.0230;-7.7955;-0.0293;-0.4482;0.3236
0000210358;-2.1620;-5.1715;-7.2233;-0.0855;-0.4391;0.2136
0000210371;-2.8994;-5.7221;-7.1012;-0.0666;-0.4762;0.0986
0000210380;-3.1244;-6.3351;-7.4986;-0.0562;-0.6062;0.0785
0000210393;-3.1220;-6.4093;-7.5106;-0.1003;-0.8160;0.1096
0000210402;-3.0215;-6.4931;-7.2832;-0.1274;-0.9537;0.1379
0000210415;-2.9712;-6.0645;-7.2640;-0.1649;-1.1587;0.1607
0000210424;-2.8850;-6.0478;-6.7636;-0.1997;-1.2930;0.1388
0000210437;-2.6145;-5.7533;-6.2704;-0.2446;-1.4116;0.1063
0000210446;-2.6121;-5.5426;-5.9640;-0.2599;-1.4417;0.0685
0000210455;-2.4756;-5.2218;-5.7245;-0.2817;-1.4730;0.0188
0000210468;-2.5402;-5.1715;-5.0996;-0.3095;-1.4763;-0.0448
0000210477;-2.0997;-4.7046;-4.8985;-0.3333;-1.4691;-0.1019
0000210546;-2.6815;-6.0861;-3.2705;-0.6582;-0.9256;-0.1066
0000210555;-2.6600;-6.0837;-3.2944;-0.6273;-0.8748;-0.0914
0000210568;-2.9640;-6.2991;-3.1627;-0.5389;-0.8414;-0.0717
0000210577;-3.1292;-6.4811;-3.0478;-0.4622;-0.8390;-0.0577
0000210590;-2.7964;-6.7205;-2.4995;-0.3629;-0.7687;-0.0091
0000210599;-2.7366;-6.6080;-2.1356;-0.2923;-0.7192;0.0107
0000210612;-2.5786;-6.7564;-1.4940;-0.2137;-0.5829;0.0715
0000210621;-2.5019;-6.5314;-1.2426;-0.1585;-0.4620;0.0957
0000210634;-2.8874;-6.4165;-1.1420;-0.0733;-0.3312;0.1003
0000210643;-2.6528;-6.0741;-1.2139;-0.0342;-0.2401;0.0945
0000210656;-2.6049;-5.3223;-1.1947;0.0477;-0.1348;0.0412
0000210665;-2.7581;-5.1763;-1.2378;0.0879;-0.0637;-0.0199
0000210674;-2.4493;-4.8818;-1.4940;0.0753;0.0485;-0.0652
0000210687;-2.7653;-5.1140;-1.8172;0.0602;0.1804;-0.1533
0000210696;-2.4157;-5.1475;-1.7502;0.0616;0.2915;-0.2090
0000210709;-2.6384;-5.2505;-2.2290;0.0337;0.4141;-0.2665
0000210718;-2.8922;-5.4133;-2.5905;0.0116;0.4859;-0.2920
0000210731;-3.3447;-5.7509;-2.7366;0.0121;0.5638;-0.3218
0000210740;-3.3351;-5.9065;-3.3471;-0.0029;0.5861;-0.3315
0000210753;-3.5243;-6.2273;-3.6272;-0.0047;0.5913;-0.3206
0000210762;-3.6248;-6.3805;-3.8571;-0.0109;0.5887;-0.2894
0000210831;-3.1603;-6.2010;-4.1492;0.0530;0.5590;-0.0570
0000210840;-3.2585;-6.0262;-4.2521;0.0610;0.5502;-0.0569
0000210849;-3.1292;-5.8897;-4.4077;0.0729;0.5368;-0.0745
0000210862;-3.3327;-6.0382;-4.6136;0.0770;0.5107;-0.0914
0000210871;-3.3351;-6.0142;-4.7980;0.0846;0.4828;-0.0990
0000210884;-3.2537;-6.2321;-4.8746;0.0771;0.4409;-0.0945
0000210893;-3.3160;-6.1842;-4.9584;0.0560;0.4093;-0.0801
0000210906;-3.3255;-6.4165;-5.1595;0.0480;0.3467;-0.0520
0000210915;-3.1987;-6.3015;-5.1380;0.0446;0.3082;-0.0304
0000210928;-3.3662;-6.2944;-5.3415;0.0232;0.2406;-0.0032
0000210937;-3.2896;-6.0478;-5.2457;0.0139;0.2061;0.0115
0000210953;-3.2274;-6.1411;-5.1499;-0.0187;0.1348;0.0296
0000210962;-3.1460;-6.1794;-5.2002;-0.0290;0.1010;0.0460
0000210971;-2.9904;-5.9304;-5.1811;-0.0408;0.0604;0.0490
0000210984;-3.2298;-5.9927;-5.0494;-0.0413;-0.0007;0.0513
0000210993;-3.1939;-5.9903;-4.9632;-0.0537;-0.0232;0.0549
0000211005;-3.0550;-5.7078;-4.6855;-0.0516;-0.0589;0.0493
0000211014;-2.8180;-5.8227;-4.7764;-0.0486;-0.0817;0.0372
0000211083;-2.8635;-5.7509;-4.4987;-0.0132;-0.1049;-0.0306
0000211092;-3.0167;-5.9879;-4.3838;-0.0230;-0.0833;-0.0368
0000211104;-2.9377;-6.0669;-4.3981;-0.0105;-0.0793;-0.0400
0000211113;-3.0167;-6.1004;-4.2713;-0.0133;-0.0671;-0.0440
0000211126;-2.5833;-5.9448;-4.1037;0.0060;-0.0422;-0.0461
0000211135;-2.6001;-5.9759;-3.8930;0.0141;-0.0021;-0.0574
0000211147;-2.7390;-5.9544;-4.0917;0.0281;0.0536;-0.0821
0000211156;-2.7892;-5.8227;-4.2665;0.0442;0.0729;-0.1055
0000211165;-2.7797;-5.8107;-4.6232;0.0489;0.0767;-0.1286
0000211178;-2.9401;-6.0980;-4.5346;0.0492;0.0843;-0.1307
0000211187;-3.0358;-6.3207;-4.5059;0.0386;0.1023;-0.1174
0000211199;-3.0167;-6.3351;-4.7046;0.0238;0.0963;-0.0954
0000211208;-3.0646;-6.2177;-4.8123;0.0200;0.0858;-0.0817
0000211221;-3.0526;-6.2010;-4.8028;0.0108;0.0742;-0.0620
0000211230;-3.0071;-6.2345;-4.6160;0.0124;0.0550;-0.0590
0000211242;-2.9281;-6.1196;-4.7118;0.0065;0.0533;-0.0505
0000211251;-3.1987;-6.3662;-4.8004;0.0060;0.0372;-0.0468
0000211260;-2.9640;-6.2872;-4.8171;-0.0069;0.0289;-0.0346
0000211273;-3.0311;-6.2776;-4.8411;-0.0092;0.0089;-0.0257
0000211282;-2.9161;-6.1818;-4.9344;-0.0192;-0.0012;-0.0168
0000211294;-3.1388;-6.2417;-4.8028;-0.0163;-0.0221;-0.0068
0000211303;-3.0598;-6.2225;-4.6759;-0.0274;-0.0270;-0.0044
0000211372;-2.9401;-6.1579;-4.7333;-0.0180;0.0047;-0.0059
0000211381;-2.8730;-6.1818;-4.7549;-0.0191;0.0017;-0.0043
0000211393;-3.0526;-6.2465;-4.8554;-0.0159;-0.0004;-0.0036
0000211402;-2.8347;-6.0501;-4.7836;-0.0165;-0.0115;-0.0068
0000211415;-3.0981;-6.1627;-4.7142;-0.0181;-0.0171;-0.0052
0000211424;-2.8706;-6.2130;-4.9584;-0.0277;-0.0200;-0.0084
0000211436;-2.9497;-6.1076;-4.8746;-0.0199;-0.0381;0.0017
0000211445;-3.0909;-6.3398;-4.7980;-0.0276;-0.0489;0.0009
0000211458;-3.0909;-6.4260;-4.8842;-0.0310;-0.0585;0.0112
0000211467;-2.9161;-6.2058;-4.6998;-0.0397;-0.0629;0.0161
0000211476;-3.1220;-6.3566;-4.7716;-0.0312;-0.0727;0.0139
0000211488;-2.7390;-6.0837;-4.6567;-0.0368;-0.0767;0.0189
0000211497;-2.9688;-6.0980;-4.6639;-0.0300;-0.0747;0.0140
0000211510;-2.6480;-5.9185;-4.6328;-0.0325;-0.0665;0.0071
0000211519;-2.7821;-6.0501;-4.5490;-0.0261;-0.0510;0.0045
0000211531;-2.8491;-5.9161;-4.4748;-0.0181;-0.0470;-0.0095
0000211540;-2.7581;-6.0717;-4.5873;-0.0141;-0.0280;-0.0099
0000211553;-2.8850;-5.9664;-4.5562;-0.0047;-0.0159;-0.0211
0000211562;-2.8730;-6.0645;-4.6112;-0.0085;-0.0075;-0.0277
0000211574;-2.9904;-6.1962;-4.4796;0.0003;0.0044;-0.0377
0000211583;-2.9066;-6.0142;-4.5945;0.0069;0.0120;-0.0484
0000211652;-2.9521;-6.1699;-4.7740;0.0024;0.0285;-0.0493
0000211661;-2.8826;-6.2632;-4.8147;0.0101;0.0270;-0.0468
0000211670;-3.0622;-6.2824;-4.8722;0.0004;0.0272;-0.0405
0000211682;-2.8611;-6.2896;-4.7429;-0.0012;0.0203;-0.0333
0000211691;-2.8730;-6.2082;-4.7525;0.0007;0.0128;-0.0406
0000211704;-2.9425;-6.1866;-4.8818;-0.0020;0.0077;-0.0328
0000211713;-3.0382;-6.2201;-4.7908;-0.0100;0.0063;-0.0262
0000211725;-2.8659;-6.2513;-4.8626;-0.0112;0.0021;-0.0222
0000211734;-2.9329;-6.0885;-4.9009;-0.0105;-0.0031;-0.0258
0000211747;-2.9257;-6.2106;-4.8602;-0.0117;-0.0161;-0.0179
0000211756;-2.8347;-6.2728;-4.7740;-0.0129;-0.0260;-0.0139
0000211768;-2.8132;-6.1866;-4.8052;-0.0161;-0.0195;-0.0088
0000211777;-2.7414;-6.0765;-4.8530;-0.0159;-0.0233;-0.0127
0000211790;-2.9999;-6.3255;-4.9057;-0.0165;-0.0262;-0.0100
0000211799;-2.9329;-6.1746;-4.8363;-0.0184;-0.0354;-0.0131
0000211808;-2.8323;-6.0765;-4.7453;-0.0143;-0.0405;-0.0124
0000211820;-2.9784;-6.2058;-4.8315;-0.0159;-0.0418;-0.0128
0000211829;-2.9401;-6.2896;-4.8698;-0.0185;-0.0401;-0.0076
0000211842;-2.8467;-6.1196;-4.7262;-0.0199;-0.0440;-0.0111
0000211851;-2.9521;-6.3303;-4.7884;-0.0151;-0.0396;-0.0147
0000211863;-2.8635;-6.2489;-4.7956;-0.0160;-0.0425;-0.0119
0000211872;-2.9640;-6.1363;-4.8267;-0.0153;-0.0448;-0.0129
0000211941;-2.7725;-6.0549;-4.8459;-0.0132;-0.0333;-0.0195
0000211950;-2.8515;-6.2608;-4.7549;-0.0109;-0.0354;-0.0225
0000211962;-2.9904;-6.1818;-4.7309;-0.0068;-0.0345;-0.0217
0000211971;-2.9113;-6.0861;-4.7788;-0.0108;-0.0246;-0.0237
0000211984;-2.8826;-6.2225;-4.7046;-0.0112;-0.0204;-0.0177
0000211993;-2.6791;-6.1555;-4.7764;-0.0109;-0.0196;-0.0172
0000212005;-2.8754;-6.1100;-4.8123;-0.0081;-0.0238;-0.0189
0000212014;-2.9999;-6.2010;-4.7405;-0.0103;-0.0237;-0.0222
0000212027;-2.8970;-6.2321;-4.7381;-0.0156;-0.0238;-0.0096
0000212036;-2.9880;-6.2201;-4.8243;-0.0105;-0.0294;-0.0180
0000212045;-2.8443;-6.1339;-4.7980;-0.0141;-0.0272;-0.0168
0000212057;-2.7174;-6.1028;-4.8459;-0.0153;-0.0274;-0.0160
0000212066;-2.8132;-6.1914;-4.6878;-0.0187;-0.0290;-0.0119
0000212079;-2.8539;-6.1555;-4.8459;-0.0095;-0.0360;-0.0193
0000212088;-2.9784;-6.1220;-4.8076;-0.0171;-0.0276;-0.0121
0000212100;-2.9042;-6.2201;-4.7597;-0.0151;-0.0340;-0.0164
0000212109;-2.8252;-6.1507;-4.8315;-0.0140;-0.0346;-0.0185
0000212122;-2.9688;-6.2058;-4.7525;-0.0152;-0.0330;-0.0171
0000212131;-2.8994;-6.1986;-4.8123;-0.0143;-0.0344;-0.0220
0000212143;-2.8276;-6.1555;-4.8746;-0.0195;-0.0318;-0.0139
0000212152;-2.7677;-6.1196;-4.8507;-0.0147;-0.0436;-0.0137
0000212221;-3.0550;-6.2130;-4.8052;-0.0257;-0.0470;0.0011
0000212230;-2.8299;-6.1124;-4.8123;-0.0207;-0.0509;-0.0047
0000212242;-3.0287;-6.1651;-4.7525;-0.0229;-0.0514;-0.0021
0000212251;-2.8419;-6.2417;-4.7692;-0.0224;-0.0450;0.0035
0000212260;-2.8467;-6.1196;-4.7692;-0.0245;-0.0441;-0.0035
0000212273;-2.9640;-6.2177;-4.8961;-0.0189;-0.0452;-0.0059
0000212282;-2.7461;-6.1076;-4.8554;-0.0250;-0.0414;-0.0108
0000212294;-2.9137;-6.2489;-4.7621;-0.0195;-0.0398;-0.0080
0000212303;-2.7845;-6.0501;-4.8219;-0.0115;-0.0465;-0.0131
0000212316;-3.0909;-6.3015;-4.8123;-0.0135;-0.0498;-0.0177
0000212325;-2.6695;-6.0238;-4.7908;-0.0177;-0.0416;-0.0160
0000212337;-2.9568;-6.2680;-4.7716;-0.0125;-0.0416;-0.0236
0000212346;-2.9688;-6.1986;-4.7238;-0.0140;-0.0369;-0.0199
0000212359;-2.7150;-6.1076;-4.7166;-0.0127;-0.0350;-0.0213
0000212368;-2.8922;-6.2537;-4.7549;-0.0084;-0.0402;-0.0234
0000212379;-2.8467;-6.2010;-4.7094;-0.0148;-0.0352;-0.0195
0000212388;-2.8802;-6.2824;-4.7405;-0.0088;-0.0406;-0.0229
0000212402;-2.7629;-6.0286;-4.8339;-0.0144;-0.0341;-0.0155
0000212411;-2.9137;-6.2082;-4.8147;-0.0111;-0.0473;-0.0189
0000212420;-2.8299;-6.1866;-4.7214;-0.0159;-0.0389;-0.0140
0000212433;-2.7270;-5.9759;-4.7980;-0.0139;-0.0406;-0.0141
0000212442;-3.0382;-6.2752;-4.7525;-0.0149;-0.0449;-0.0193
0000212512;-2.9137;-6.2153;-4.7980;-0.0195;-0.0457;-0.0096
0000212521;-2.8874;-6.2082;-4.8219;-0.0211;-0.0465;-0.0069
0000212534;-2.8683;-6.0885;-4.8650;-0.0218;-0.0517;-0.0007
0000212543;-2.9640;-6.1938;-4.8722;-0.0168;-0.0593;-0.0075
0000212555;-2.9113;-6.2513;-4.8363;-0.0157;-0.0610;-0.0124
0000212564;-3.0119;-6.3351;-4.7788;-0.0209;-0.0574;-0.0052
0000212577;-3.1125;-6.4284;-4.7357;-0.0218;-0.0529;-0.0059
0000212586;-2.7821;-6.1244;-4.8291;-0.0196;-0.0568;-0.0137
0000212598;-2.7294;-6.0861;-4.7908;-0.0242;-0.0556;-0.0023
0000212607;-2.8084;-6.0861;-4.7501;-0.0213;-0.0618;-0.0091
0000212620;-2.8491;-5.9807;-4.7860;-0.0217;-0.0658;-0.0061
0000212629;-2.8874;-6.1172;-4.6855;-0.0233;-0.0582;-0.0051
0000212641;-2.8060;-6.1746;-4.7094;-0.0201;-0.0586;-0.0004
0000212650;-2.9066;-6.1339;-4.7046;-0.0260;-0.0496;0.0021
0000212659;-2.8970;-6.1292;-4.7740;-0.0274;-0.0514;-0.0012
0000212672;-2.8611;-6.1387;-4.6471;-0.0289;-0.0498;0.0036
0000212681;-2.8491;-6.0861;-4.7621;-0.0232;-0.0493;-0.0001
0000212693;-2.7294;-6.1196;-4.7549;-0.0207;-0.0478;0.0031
0000212702;-2.7988;-6.1531;-4.7788;-0.0224;-0.0397;0.0045
0000212715;-2.7605;-6.1028;-4.8530;-0.0211;-0.0440;0.0016
0000212724;-2.8156;-6.0549;-4.7740;-0.0187;-0.0477;-0.0032
0000212794;-2.8994;-6.1387;-4.8411;-0.0095;-0.0338;-0.0266
0000212803;-2.7438;-6.0190;-4.7429;-0.0049;-0.0336;-0.0277
0000212816;-2.9090;-6.1531;-4.7956;-0.0076;-0.0285;-0.0226
0000212825;-2.8563;-6.1004;-4.6831;-0.0049;-0.0288;-0.0240
0000212837;-2.7773;-6.0406;-4.7285;-0.0072;-0.0193;-0.0211
0000212846;-3.0215;-6.1435;-4.7262;-0.0112;-0.0197;-0.0240
0000212859;-2.8156;-6.0980;-4.7692;-0.0099;-0.0179;-0.0188
0000212868;-2.8706;-6.1746;-4.7262;-0.0119;-0.0183;-0.0238
0000212877;-2.8539;-6.0262;-4.6950;-0.0048;-0.0164;-0.0224
0000212889;-2.8467;-6.1339;-4.7046;-0.0049;-0.0244;-0.0286
0000212898;-3.0023;-6.2656;-4.8052;-0.0111;-0.0160;-0.0167
0000212911;-3.1364;-6.3590;-4.7549;-0.0069;-0.0195;-0.0216
0000212920;-2.7988;-6.1172;-4.7980;-0.0163;-0.0148;-0.0140
0000212932;-2.8395;-6.1818;-4.6855;-0.0116;-0.0204;-0.0165
0000212941;-2.8276;-6.1459;-4.8004;-0.0123;-0.0264;-0.0196
0000212954;-3.0047;-6.3638;-4.8291;-0.0133;-0.0269;-0.0131
0000212963;-2.8419;-6.1052;-4.7932;-0.0128;-0.0244;-0.0147
0000212975;-2.8443;-6.0908;-4.7884;-0.0041;-0.0352;-0.0245
0000212984;-2.8132;-6.1507;-4.8004;-0.0104;-0.0300;-0.0215
0000212997;-2.9185;-6.1052;-4.8530;-0.0081;-0.0376;-0.0200
0000213006;-3.0837;-6.2872;-4.7908;-0.0075;-0.0356;-0.0229
0000213076;-2.7294;-6.0406;-4.7621;-0.0159;-0.0414;-0.0149
0000213085;-2.8611;-6.0669;-4.7381;-0.0147;-0.0434;-0.0149
0000213094;-2.8323;-6.0741;-4.7860;-0.0084;-0.0436;-0.0232
0000213107;-2.7342;-6.0478;-4.7597;-0.0108;-0.0477;-0.0224
0000213116;-2.8180;-6.1004;-4.7477;-0.0128;-0.0432;-0.0135
0000213128;-2.9880;-6.2728;-4.8123;-0.0164;-0.0360;-0.0137
0000213137;-2.7940;-6.1028;-4.7573;-0.0136;-0.0381;-0.0155
0000213150;-2.7438;-5.9807;-4.7764;-0.0119;-0.0446;-0.0179
0000213159;-2.8156;-6.1483;-4.6735;-0.0173;-0.0308;-0.0155
0000213171;-2.8299;-6.0717;-4.5897;-0.0093;-0.0269;-0.0151
0000213180;-2.9664;-6.2728;-4.6663;-0.0161;-0.0262;-0.0152
0000213193;-2.8132;-6.1483;-4.7309;-0.0105;-0.0192;-0.0164
0000213202;-3.0047;-6.2345;-4.7884;-0.0107;-0.0216;-0.0175
0000213214;-2.9928;-6.2656;-4.7238;-0.0124;-0.0117;-0.0149
0000213223;-2.8994;-6.1890;-4.7740;-0.0104;-0.0171;-0.0159
0000213236;-2.9090;-6.2249;-4.7669;-0.0139;-0.0103;-0.0112
0000213245;-2.8611;-6.2369;-4.7692;-0.0109;-0.0136;-0.0164
0000213257;-2.8443;-6.1387;-4.7764;-0.0077;-0.0125;-0.0156
0000213266;-2.9233;-6.2010;-4.8698;-0.0165;-0.0104;-0.0117
0000213275;-2.9688;-6.2082;-4.7764;-0.0117;-0.0113;-0.0208
0000213288;-2.8108;-5.9640;-4.6855;-0.0113;-0.0120;-0.0203
0000213297;-2.8156;-6.1579;-4.8219;-0.0136;-0.0127;-0.0181
0000213365;-3.0358;-6.2034;-4.9847;0.0057;-0.0401;-0.0203
0000213374;-2.7342;-6.0190;-4.9488;-0.0005;-0.0494;-0.0185
0000213387;-3.0071;-6.2130;-4.9153;-0.0056;-0.0638;-0.0253
0000213396;-3.0454;-6.2225;-4.9775;-0.0008;-0.0790;-0.0254
0000213408;-2.8395;-6.2058;-4.9225;-0.0103;-0.0903;-0.0193
0000213417;-2.7438;-6.1675;-4.8602;-0.0065;-0.1065;-0.0236
0000213430;-2.8467;-6.0645;-4.8818;-0.0099;-0.1070;-0.0152
0000213439;-2.8084;-6.1794;-4.8650;-0.0104;-0.1159;-0.0168
0000213451;-2.9640;-6.2656;-4.7429;-0.0108;-0.1287;-0.0183
0000213460;-2.9161;-6.1866;-4.6950;-0.0065;-0.1274;-0.0181
0000213473;-2.8994;-6.1268;-4.8842;-0.0129;-0.1391;-0.0115
0000213482;-3.1556;-6.4141;-4.8171;-0.0104;-0.1508;-0.0139
0000213491;-3.0263;-6.1699;-4.8770;-0.0129;-0.1577;-0.0051
0000213503;-3.0646;-6.2058;-4.9704;-0.0161;-0.1761;-0.0043
0000213512;-3.2250;-6.3470;-5.0135;-0.0136;-0.1953;-0.0037
0000213525;-3.0287;-6.1411;-4.7884;-0.0172;-0.2194;0.0012
0000213534;-2.9808;-6.2201;-4.8507;-0.0180;-0.2285;0.0052
0000213546;-2.9353;-6.1124;-4.8052;-0.0213;-0.2434;0.0073
0000213555;-2.8946;-6.1507;-4.7262;-0.0228;-0.2462;0.0104
0000213568;-3.0598;-6.2728;-4.5466;-0.0201;-0.2542;0.0071
0000213577;-2.9951;-6.1986;-4.5945;-0.0197;-0.2535;0.0089
0000213647;-3.0622;-6.2058;-4.5466;-0.0532;-0.2916;0.0329
0000213656;-3.1580;-6.3734;-4.5442;-0.0641;-0.2927;0.0478
0000213669;-3.2034;-6.2584;-4.3191;-0.0657;-0.2935;0.0653
0000213678;-2.9425;-6.1483;-4.2928;-0.0650;-0.2970;0.0669
0000213687;-2.9137;-6.1339;-4.0941;-0.0661;-0.2839;0.0699
0000213699;-2.8467;-6.0501;-3.9792;-0.0549;-0.2562;0.0653
0000213708;-2.7845;-6.0094;-3.8690;-0.0546;-0.2313;0.0552
0000213721;-2.5690;-5.8107;-3.7996;-0.0396;-0.1919;0.0301
0000213730;-2.7198;-5.8802;-3.8188;-0.0390;-0.1543;0.0260
0000213742;-2.8132;-5.9664;-3.7421;-0.0390;-0.1144;0.0071
0000213751;-3.0574;-6.1387;-3.8810;-0.0392;-0.0842;0.0005
0000213764;-3.1532;-6.2920;-4.0582;-0.0306;-0.0544;0.0027
0000213773;-2.8730;-6.1028;-4.0414;-0.0336;-0.0341;0.0171
0000213785;-3.1173;-6.0669;-4.2162;-0.0277;-0.0244;0.0236
0000213794;-3.1556;-6.1124;-4.1324;-0.0272;-0.0187;0.0220
0000213808;-3.0502;-6.0190;-4.1324;-0.0228;-0.0143;0.0165
0000213817;-3.1580;-5.9400;-4.1970;-0.0209;-0.0115;0.0079
0000213826;-3.1173;-5.9376;-4.1492;-0.0153;0.0004;-0.0084
0000213839;-2.9305;-5.9975;-4.1228;-0.0160;0.0185;-0.0208
0000213848;-3.0670;-6.0454;-4.2210;-0.0047;0.0156;-0.0270
0000213860;-3.1005;-6.0645;-4.2306;-0.0052;0.0322;-0.0262
0000213869;-3.0382;-6.1220;-4.1731;-0.0037;0.0342;-0.0262
0000213938;-3.0933;-6.0118;-4.1899;-0.0045;0.0526;-0.0286
0000213947;-2.9042;-6.0071;-4.3814;-0.0099;0.0552;-0.0277
0000213959;-3.1819;-6.0478;-4.3622;-0.0084;0.0473;-0.0181
0000213968;-3.1580;-6.1651;-4.4963;-0.0084;0.0366;-0.0171
0000213981;-3.0287;-6.0358;-4.4436;-0.0107;0.0215;-0.0081
0000213990;-3.2920;-6.2680;-4.6352;-0.0249;0.0041;-0.0033
0000214002;-3.1364;-6.2393;-4.6998;-0.0230;-0.0226;0.0041
0000214011;-3.3160;-6.2776;-4.7573;-0.0250;-0.0518;0.0043
0000214020;-3.2298;-6.1555;-4.6974;-0.0269;-0.0759;0.0135
0000214033;-3.2178;-5.9544;-4.7932;-0.0365;-0.1122;0.0184
0000214042;-3.1771;-6.0525;-4.5633;-0.0360;-0.1304;0.0300
0000214054;-3.1939;-6.1866;-4.5993;-0.0462;-0.1498;0.0460
0000214063;-3.0478;-6.1723;-4.5226;-0.0450;-0.1648;0.0473
0000214076;-3.1077;-6.1579;-4.2617;-0.0445;-0.1607;0.0576
0000214085;-2.9832;-5.9424;-4.2114;-0.0432;-0.1585;0.0574
0000214097;-2.9592;-5.9280;-4.1132;-0.0384;-0.1442;0.0408
0000214106;-2.8850;-5.8897;-3.9840;-0.0384;-0.1260;0.0302
0000214119;-3.0598;-6.0382;-3.8666;-0.0346;-0.0867;0.0195
0000214128;-2.7988;-5.7940;-3.8618;-0.0296;-0.0574;0.0045
0000214140;-2.9113;-5.9807;-3.8642;-0.0248;-0.0109;-0.0064
0000214149;-2.8515;-6.0645;-3.8571;-0.0180;0.0173;-0.0168
0000214158;-3.0311;-6.1627;-4.0199;-0.0160;0.0389;-0.0159
0000214227;-3.1675;-5.9544;-4.5011;-0.0468;0.0121;0.0140
0000214236;-3.2848;-5.9927;-4.5681;-0.0497;-0.0132;0.0151
0000214248;-3.0909;-5.9640;-4.4867;-0.0534;-0.0296;0.0189
0000214257;-3.1603;-5.9592;-4.3886;-0.0663;-0.0292;0.0221
0000214270;-2.9281;-6.0071;-4.1970;-0.0645;-0.0179;0.0258
0000214279;-3.0454;-6.1172;-4.1084;-0.0608;-0.0173;0.0164
0000214291;-3.0526;-6.1531;-4.1228;-0.0562;0.0021;0.0237
0000214300;-2.9449;-5.9328;-4.2090;-0.0534;0.0124;0.0292
0000214313;-2.8994;-5.8778;-4.3072;-0.0477;0.0144;0.0241
0000214322;-3.0502;-5.9256;-4.4341;-0.0405;0.0081;0.0278
0000214334;-3.2202;-6.0214;-4.8028;-0.0397;-0.0237;0.0281
0000214343;-3.2753;-5.9280;-4.9991;-0.0446;-0.0640;0.0297
0000214350;-3.3447;-5.9328;-5.1140;-0.0586;-0.1203;0.0364
0000214362;-3.6488;-6.1124;-5.1619;-0.0757;-0.2161;0.0498
0000214370;-3.5458;-6.0645;-4.8315;-0.0863;-0.2615;0.0753
0000214381;-3.3998;-6.1507;-4.6448;-0.1007;-0.2971;0.1046
0000214389;-3.4979;-6.1938;-4.5370;-0.0878;-0.3208;0.1212
0000214401;-3.6200;-6.0861;-4.7621;-0.0785;-0.3726;0.1467
0000214409;-3.6152;-6.1339;-5.0374;-0.0553;-0.4387;0.1556
0000214420;-4.0247;-6.0980;-5.3726;-0.0374;-0.5419;0.1727
0000214428;-4.1372;-6.2082;-5.5809;-0.0168;-0.6368;0.1811
