time;acc_x;acc_y;acc_z;gyro_x;gyro_y;gyro_z
0000032328;6.8354;6.8331;3.2848;0.4211;-0.0232;0.2365
0000032336;6.2584;4.6448;2.5474;0.3825;-0.0061;0.1921
0000032343;5.8299;2.9425;2.1835;0.3387;0.0205;0.1158
0000032351;5.0613;1.2139;1.7095;0.3024;0.0422;0.0108
0000032360;4.7333;-0.1221;1.1396;0.3443;0.0413;-0.0969
0000032368;4.3838;-1.2953;0.7087;0.4254;0.0230;-0.1797
0000032376;4.0630;-1.9273;0.5866;0.5556;-0.0020;-0.1923
0000032388;4.4029;-1.2594;0.2897;0.7890;-0.0809;-0.1600
0000032396;4.7429;-0.3663;0.2682;0.9186;-0.1416;-0.0941
0000032407;5.8059;0.9026;-0.0551;1.1558;-0.2046;0.0207
0000032415;7.5872;2.9113;-1.8531;1.2652;-0.2397;0.0465
0000032427;7.9775;6.1244;-2.1093;1.3193;-0.1360;0.0973
0000032435;7.3430;8.2504;-3.4788;1.3376;0.0059;0.2018
0000032499;6.2369;2.7557;-1.0391;1.2758;0.0332;-0.0380
0000032507;6.7086;3.5434;-0.8811;1.2618;0.0396;-0.0617
0000032515;6.3015;3.2777;-1.3647;1.2229;0.0165;-0.0814
0000032527;6.2776;2.2075;-2.1739;1.1122;0.0381;-0.1623
0000032535;6.7253;2.7342;-1.8196;1.0032;0.0277;-0.1912
0000032546;6.2225;2.9473;-1.7310;0.8966;0.0057;-0.1860
0000032554;6.4117;2.8060;-1.5251;0.8295;0.0132;-0.1720
0000032566;6.2968;3.7517;-2.1548;0.7661;0.0037;-0.1456
0000032574;6.4835;3.6488;-2.5450;0.7265;-0.0148;-0.1223
0000032582;6.5194;3.1843;-2.4397;0.6107;-0.0111;-0.0929
0000032593;6.5577;3.4955;-2.4038;0.5091;-0.0152;-0.0626
0000032601;6.5864;3.5913;-2.2386;0.4515;-0.0160;-0.0438
0000032613;6.3470;3.1173;-2.2529;0.3263;-0.0105;-0.0133
0000032621;6.4117;3.1316;-2.1189;0.2551;0.0025;-0.0189
0000032632;6.2465;2.7821;-2.1332;0.1907;0.0043;-0.0334
0000032640;6.2704;2.6624;-2.1021;0.1363;0.0139;-0.0424
0000032652;6.2489;2.3032;-2.0925;0.0865;0.0187;-0.0893
0000032660;5.8873;2.2098;-2.0638;0.0582;-0.0047;-0.1356
0000032668;5.9280;2.1883;-2.3559;0.0080;-0.0276;-0.1583
0000032679;6.2177;1.5227;-2.1715;-0.0217;-0.0253;-0.1824
0000032687;6.3710;1.1564;-1.9106;-0.0105;-0.0148;-0.1657
0000032699;6.2680;0.9673;-1.6233;0.0168;0.0184;-0.1671
0000032707;5.9496;0.4501;-1.3527;0.0644;0.0312;-0.1675
0000032771;6.0861;3.2609;-0.5195;-0.0258;0.0549;0.0638
0000032779;6.1076;3.9361;0.3950;-0.0803;0.0674;0.0789
0000032791;6.2513;4.5514;0.3807;-0.1310;0.0726;0.0711
0000032799;6.2728;4.9368;0.4310;-0.1138;0.0843;0.0762
0000032807;6.0956;5.8682;0.9529;-0.1182;0.0953;0.0352
0000032818;6.3973;6.9312;0.6680;-0.1391;0.1095;-0.0204
0000032826;5.8012;5.8921;0.1460;-0.1366;0.1228;-0.0476
0000032838;5.9233;5.1356;0.4238;-0.1544;0.1156;-0.0621
0000032846;5.6455;4.8626;0.2562;-0.1572;0.0995;-0.0609
0000032857;5.7389;3.6009;0.2969;-0.1423;0.0753;-0.0549
0000032865;5.8035;2.9449;0.2897;-0.1198;0.0718;-0.0296
0000032873;5.6192;2.9353;0.2298;-0.0934;0.0489;-0.0294
0000032885;5.9137;2.1572;0.0599;-0.0667;0.0449;-0.0250
0000032893;6.1052;2.4277;-0.0407;-0.0083;0.0362;-0.0053
0000032904;6.2417;2.3080;-0.0335;0.0430;0.0242;-0.0160
0000032912;6.2225;2.4229;0.1125;0.0809;0.0240;-0.0193
0000032924;6.0765;3.0263;-0.0072;0.1094;0.0008;-0.0438
0000032932;6.0047;3.0406;0.1413;0.1310;-0.0031;-0.0422
0000032943;5.8873;3.1173;-0.1221;0.1725;-0.0320;-0.0457
0000032951;5.9807;3.3208;-0.3136;0.1884;-0.0420;-0.0414
0000032959;5.9520;3.2058;-0.4693;0.2142;-0.0472;-0.0294
0000032971;5.8275;3.2465;-0.4836;0.2534;-0.0593;-0.0250
0000032979;5.7796;3.1556;-0.6393;0.2669;-0.0695;-0.0203
0000033043;5.9520;2.7150;-1.1253;0.4069;-0.0159;-0.0366
0000033051;6.2225;2.7725;-1.1444;0.4219;-0.0068;-0.0408
0000033063;5.8993;2.6288;-1.2426;0.4720;-0.0059;-0.0556
0000033071;5.8802;2.6336;-1.2210;0.4915;-0.0083;-0.0558
0000033082;5.9520;2.6480;-1.4533;0.5177;-0.0132;-0.0713
0000033090;6.0094;2.5450;-1.3551;0.5300;-0.0085;-0.0727
0000033098;5.8179;2.7366;-1.4653;0.5303;-0.0069;-0.0741
0000033110;5.8682;2.9928;-1.6137;0.5141;-0.0105;-0.0610
0000033118;5.8395;2.8539;-1.6640;0.4870;-0.0039;-0.0552
0000033129;5.9280;2.6408;-1.7502;0.5140;-0.0085;-0.0654
0000033137;5.8873;2.4445;-1.8052;0.5091;-0.0091;-0.0628
0000033149;5.9233;2.5857;-1.9513;0.5047;-0.0097;-0.0741
0000033157;5.8826;2.7342;-1.9776;0.5095;-0.0161;-0.0786
0000033168;5.9927;2.6695;-2.0207;0.4622;-0.0088;-0.0616
0000033176;5.8778;2.2745;-2.2098;0.4445;-0.0112;-0.0641
0000033184;5.9687;2.5139;-2.1596;0.4355;-0.0104;-0.0783
0000033196;5.9711;2.7605;-2.3750;0.3884;-0.0025;-0.0679
0000033204;5.9616;2.5115;-2.3439;0.3780;-0.0024;-0.0616
0000033215;5.9400;2.5043;-2.3487;0.3544;-0.0027;-0.0614
0000033223;5.7006;2.5402;-2.3128;0.3292;0.0015;-0.0568
0000033235;6.1459;2.7557;-2.3439;0.3168;0.0025;-0.0508
0000033243;6.0094;2.7414;-2.3774;0.3003;-0.0013;-0.0430
0000033307;5.9831;2.5235;-2.0686;0.2562;-0.0285;-0.0441
0000033315;5.9233;2.6312;-2.0806;0.2577;-0.0308;-0.0456
0000033323;5.7652;2.6264;-2.0590;0.2619;-0.0382;-0.0430
0000033335;6.0094;2.7222;-2.1045;0.2573;-0.0404;-0.0510
0000033343;5.9759;2.8467;-2.0231;0.2651;-0.0445;-0.0494
0000033354;5.7126;2.9066;-1.8794;0.2647;-0.0529;-0.0576
0000033362;5.7197;2.9856;-1.9297;0.2590;-0.0468;-0.0480
0000033374;5.7533;2.9329;-2.0782;0.2637;-0.0500;-0.0408
0000033382;5.9975;3.1580;-2.1596;0.2607;-0.0600;-0.0406
0000033393;5.7844;3.0430;-2.2984;0.2629;-0.0580;-0.0308
0000033401;5.9448;3.0478;-2.3559;0.2607;-0.0608;-0.0396
0000033409;5.8083;2.8323;-2.3535;0.2729;-0.0649;-0.0369
0000033421;5.7365;2.9042;-2.3703;0.2646;-0.0625;-0.0434
0000033429;5.9376;2.8659;-2.3727;0.2701;-0.0624;-0.0405
0000033440;5.7557;2.8036;-2.4708;0.2559;-0.0542;-0.0392
0000033448;5.7150;2.7773;-2.5355;0.2582;-0.0533;-0.0401
0000033460;5.7054;2.8970;-2.5977;0.2385;-0.0477;-0.0377
0000033468;5.6767;2.6767;-2.4876;0.2441;-0.0528;-0.0338
0000033479;5.8730;2.8228;-2.5905;0.2248;-0.0508;-0.0221
0000033487;5.8610;3.0670;-2.6240;0.2138;-0.0554;-0.0268
0000033495;5.7940;2.7845;-2.6719;0.2149;-0.0580;-0.0250
0000033507;5.9185;3.0358;-2.8084;0.1957;-0.0550;-0.0213
0000033515;5.7724;2.7294;-2.8635;0.1937;-0.0550;-0.0249
0000033579;5.7916;2.7485;-3.0550;0.1156;-0.0438;-0.0225
0000033587;5.8897;2.6695;-2.8826;0.1158;-0.0485;-0.0273
0000033599;5.7892;2.5426;-2.9664;0.0985;-0.0376;-0.0131
0000033607;5.7126;2.6983;-2.9568;0.0965;-0.0386;-0.0137
0000033618;6.0956;2.7342;-2.9521;0.0969;-0.0384;-0.0073
0000033626;5.8945;2.7174;-2.8276;0.0930;-0.0314;-0.0063
0000033634;5.7341;2.5450;-2.8252;0.0881;-0.0329;-0.0005
0000033646;5.7245;2.3846;-2.7916;0.0897;-0.0354;0.0045
0000033654;5.8155;2.5786;-2.8635;0.0941;-0.0412;0.0008
0000033665;5.8466;2.7916;-2.8108;0.0835;-0.0430;0.0085
0000033673;5.7820;2.4684;-2.8443;0.0941;-0.0469;0.0073
0000033685;5.8921;2.8323;-2.7222;0.0815;-0.0457;0.0129
0000033693;5.7054;2.6408;-2.8299;0.0806;-0.0485;0.0059
0000033701;5.7724;2.8563;-2.8826;0.0690;-0.0410;0.0071
0000033713;5.6336;2.5977;-2.8108;0.0624;-0.0354;0.0157
0000033721;5.6719;2.7845;-2.9425;0.0538;-0.0410;0.0139
0000033732;5.8347;2.8659;-2.8898;0.0489;-0.0428;0.0124
0000033740;5.6551;2.9592;-2.8443;0.0417;-0.0354;0.0143
0000033752;5.7988;2.8587;-2.8826;0.0426;-0.0402;0.0104
0000033760;5.7054;2.6671;-2.8611;0.0336;-0.0322;0.0140
0000033828;6.0214;2.7390;-2.9856;0.0025;-0.0293;0.0004
0000033836;5.9113;2.6432;-3.1053;-0.0053;-0.0300;-0.0031
0000033844;5.8035;2.5594;-3.1364;-0.0077;-0.0277;-0.0051
0000033856;5.8802;2.6959;-3.0694;-0.0081;-0.0309;-0.0097
0000033864;5.8179;2.6217;-3.0598;-0.0064;-0.0357;-0.0093
0000033875;5.9544;2.5786;-3.0382;-0.0137;-0.0304;-0.0051
0000033883;6.0430;2.6576;-3.0167;-0.0103;-0.0344;-0.0087
0000033895;5.8538;2.5426;-2.9736;-0.0117;-0.0328;-0.0043
0000033903;5.8849;2.5905;-3.0765;-0.0069;-0.0384;-0.0111
0000033914;5.8921;2.5881;-3.0694;-0.0072;-0.0372;-0.0117
0000033922;5.8419;2.4828;-3.1173;-0.0089;-0.0346;-0.0064
0000033934;6.0238;2.6552;-3.1292;-0.0075;-0.0352;-0.0116
0000033942;6.0501;2.6456;-3.0909;-0.0132;-0.0312;-0.0145
0000033950;5.8754;2.5522;-3.0933;-0.0161;-0.0284;-0.0079
0000033961;5.8682;2.5905;-3.1244;-0.0191;-0.0294;-0.0143
0000033969;5.8802;2.5043;-3.1149;-0.0233;-0.0286;-0.0112
0000033981;5.7533;2.5450;-3.0406;-0.0305;-0.0237;-0.0059
0000033989;5.8538;2.6384;-2.9951;-0.0312;-0.0262;-0.0129
0000034000;5.6551;2.4708;-2.9712;-0.0340;-0.0298;-0.0101
0000034008;5.8945;2.7054;-3.0095;-0.0369;-0.0245;-0.0109
0000034020;6.0334;2.6815;-2.9975;-0.0372;-0.0262;-0.0061
0000034028;5.9209;2.6528;-3.0406;-0.0450;-0.0288;-0.0073
0000034096;5.8419;2.5498;-2.8443;-0.0655;-0.0420;-0.0104
0000034104;6.0932;2.8299;-2.9497;-0.0674;-0.0430;-0.0111
0000034112;5.9783;2.6624;-2.8826;-0.0632;-0.0532;-0.0163
0000034124;5.9807;2.5714;-2.8994;-0.0628;-0.0440;-0.0125
0000034132;5.8826;2.7318;-2.8467;-0.0640;-0.0405;-0.0160
0000034143;5.7221;2.5163;-2.8898;-0.0629;-0.0409;-0.0152
0000034151;5.7892;2.4852;-2.8635;-0.0585;-0.0436;-0.0144
0000034163;5.8035;2.5690;-2.9329;-0.0520;-0.0442;-0.0149
0000034171;5.8466;2.7222;-2.9233;-0.0618;-0.0365;-0.0119
0000034182;5.9233;2.7749;-2.9209;-0.0604;-0.0432;-0.0204
0000034190;5.7964;2.5331;-2.8778;-0.0602;-0.0460;-0.0164
0000034198;6.0118;2.7126;-2.9018;-0.0605;-0.0481;-0.0171
0000034210;5.7700;2.5833;-2.8299;-0.0610;-0.0486;-0.0164
0000034218;5.8395;2.4469;-2.9353;-0.0568;-0.0534;-0.0196
0000034229;5.7964;2.5738;-3.0167;-0.0628;-0.0506;-0.0204
0000034237;5.8275;2.5666;-2.9736;-0.0592;-0.0481;-0.0184
0000034249;5.7724;2.4086;-2.9616;-0.0574;-0.0514;-0.0226
0000034257;5.8227;2.6025;-2.9616;-0.0614;-0.0476;-0.0220
0000034268;5.9520;2.6432;-2.9999;-0.0649;-0.0544;-0.0221
0000034276;5.9065;2.6240;-2.8874;-0.0625;-0.0496;-0.0191
0000034288;5.8203;2.5618;-2.8754;-0.0625;-0.0438;-0.0173
0000034296;5.9592;2.6743;-2.9592;-0.0616;-0.0502;-0.0185
0000034304;5.8203;2.5139;-2.9712;-0.0537;-0.0476;-0.0224
0000034371;5.7964;2.5570;-2.8515;-0.0641;-0.0425;-0.0183
0000034379;5.7078;2.6097;-2.9090;-0.0652;-0.0398;-0.0172
0000034391;5.8730;2.6456;-2.7892;-0.0669;-0.0362;-0.0157
0000034399;5.9975;2.7557;-2.7916;-0.0642;-0.0401;-0.0228
0000034410;5.8562;2.5929;-2.6624;-0.0620;-0.0405;-0.0153
0000034418;5.7174;2.5977;-2.7078;-0.0549;-0.0418;-0.0183
0000034430;5.8395;2.6360;-2.7821;-0.0554;-0.0362;-0.0155
0000034438;5.8514;2.6552;-2.7078;-0.0541;-0.0389;-0.0171
0000034449;5.6790;2.4541;-2.6911;-0.0534;-0.0384;-0.0163
0000034457;5.9448;2.8515;-2.7485;-0.0480;-0.0388;-0.0179
0000034465;6.0693;2.7773;-2.6983;-0.0464;-0.0337;-0.0155
0000034477;5.8802;2.6217;-2.7366;-0.0426;-0.0373;-0.0173
0000034485;5.8275;2.5905;-2.7821;-0.0421;-0.0297;-0.0163
0000034496;5.8083;2.6671;-2.7366;-0.0453;-0.0378;-0.0165
0000034504;5.8945;2.7222;-2.6408;-0.0412;-0.0292;-0.0143
0000034516;5.9328;2.6312;-2.7150;-0.0354;-0.0326;-0.0147
0000034524;5.8419;2.7078;-2.7174;-0.0392;-0.0284;-0.0116
0000034535;5.7628;2.6552;-2.7222;-0.0328;-0.0380;-0.0195
0000034543;5.9041;2.7054;-2.7821;-0.0342;-0.0350;-0.0155
0000034555;5.7748;2.5067;-2.7821;-0.0345;-0.0293;-0.0124
0000034563;5.8826;2.6073;-2.8323;-0.0322;-0.0353;-0.0139
0000034571;5.9328;2.6911;-2.7414;-0.0333;-0.0314;-0.0117
0000034639;5.8442;2.7318;-2.7294;-0.0153;-0.0398;-0.0191
0000034647;5.9783;2.6743;-2.6695;-0.0187;-0.0334;-0.0131
0000034659;5.7772;2.6049;-2.7246;-0.0180;-0.0330;-0.0113
0000034667;5.9711;2.7150;-2.6600;-0.0185;-0.0277;-0.0079
0000034678;5.8993;2.6671;-2.7294;-0.0133;-0.0292;-0.0115
0000034686;5.9999;2.7797;-2.7821;-0.0105;-0.0314;-0.0103
0000034698;5.8275;2.6121;-2.6456;-0.0108;-0.0253;-0.0091
0000034706;5.8107;2.6815;-2.7054;-0.0031;-0.0324;-0.0137
0000034717;5.9592;2.6528;-2.7342;-0.0036;-0.0354;-0.0116
0000034725;5.7628;2.5546;-2.7414;-0.0023;-0.0306;-0.0120
0000034733;5.8419;2.5642;-2.7653;-0.0071;-0.0289;-0.0092
0000034745;5.7054;2.5211;-2.6863;-0.0037;-0.0356;-0.0127
0000034753;5.8754;2.7366;-2.7102;-0.0047;-0.0310;-0.0111
0000034764;5.8059;2.7102;-2.6743;0.0035;-0.0350;-0.0203
0000034772;5.9089;2.7581;-2.7557;0.0004;-0.0290;-0.0133
0000034784;5.9400;2.7557;-2.6576;-0.0048;-0.0242;-0.0064
0000034792;5.9951;2.7461;-2.8204;0.0028;-0.0324;-0.0123
0000034803;6.0286;2.6935;-2.7222;-0.0051;-0.0310;-0.0099
0000034811;5.9759;2.6360;-2.7414;0.0012;-0.0284;-0.0139
0000034819;5.8442;2.7485;-2.7294;0.0056;-0.0314;-0.0120
0000034831;5.8921;2.7222;-2.7701;0.0044;-0.0280;-0.0115
0000034839;5.8993;2.5905;-2.7701;0.0041;-0.0265;-0.0087
0000034907;5.9328;2.7007;-2.7174;-0.0001;-0.0322;-0.0176
0000034915;5.8059;2.5211;-2.8012;0.0019;-0.0337;-0.0157
0000034927;5.9424;2.6743;-2.8276;-0.0009;-0.0342;-0.0139
0000034935;5.9903;2.7533;-2.8180;-0.0003;-0.0308;-0.0141
0000034946;5.8299;2.6695;-2.7605;-0.0016;-0.0336;-0.0095
0000034954;5.9376;2.7294;-2.7869;-0.0049;-0.0298;-0.0097
0000034966;5.8275;2.5546;-2.8180;-0.0023;-0.0289;-0.0141
0000034974;5.9735;2.6600;-2.8060;-0.0069;-0.0240;-0.0089
0000034982;5.8059;2.5690;-2.7509;-0.0097;-0.0258;-0.0120
0000034993;6.0190;2.7031;-2.7653;-0.0052;-0.0308;-0.0120
0000035001;5.8490;2.5307;-2.7581;-0.0129;-0.0248;-0.0121
0000035013;6.0071;2.7366;-2.8156;-0.0103;-0.0241;-0.0077
0000035021;5.7078;2.5738;-2.6815;-0.0048;-0.0297;-0.0129
0000035032;5.8754;2.5738;-2.7150;-0.0065;-0.0300;-0.0141
0000035040;5.8419;2.6025;-2.7892;-0.0097;-0.0280;-0.0084
0000035052;5.9065;2.7557;-2.7869;-0.0091;-0.0292;-0.0123
0000035060;5.8778;2.7581;-2.8419;-0.0028;-0.0344;-0.0193
0000035072;5.9568;2.6815;-2.8802;-0.0073;-0.0306;-0.0137
0000035080;5.9807;2.6719;-2.8395;-0.0075;-0.0338;-0.0091
0000035088;5.8706;2.6121;-2.8012;-0.0093;-0.0394;-0.0171
0000035100;5.9759;2.8012;-2.7773;-0.0169;-0.0322;-0.0145
0000035108;5.8490;2.5786;-2.7246;-0.0179;-0.0373;-0.0113
0000035176;5.9233;2.7485;-2.6863;0.0008;-0.0393;-0.0095
0000035184;5.8107;2.5857;-2.7414;0.0059;-0.0430;-0.0157
0000035195;5.8203;2.5570;-2.8132;0.0044;-0.0406;-0.0116
0000035203;6.0621;2.6959;-2.8683;-0.0057;-0.0397;-0.0113
0000035215;5.9448;2.6887;-2.9137;-0.0063;-0.0452;-0.0140
0000035223;6.0645;2.8467;-2.8802;-0.0133;-0.0470;-0.0085
0000035231;5.9879;2.7701;-2.8970;-0.0191;-0.0457;-0.0080
0000035242;5.9065;2.6001;-2.9137;-0.0195;-0.0512;-0.0137
0000035250;5.8179;2.5714;-2.6767;-0.0220;-0.0549;-0.0112
0000035262;5.9759;2.7557;-2.8778;-0.0320;-0.0509;-0.0100
0000035270;5.9352;2.7988;-2.8730;-0.0324;-0.0513;-0.0127
0000035281;5.9448;2.6360;-2.7102;-0.0305;-0.0485;-0.0123
0000035289;5.8658;2.5307;-2.7294;-0.0333;-0.0514;-0.0173
0000035301;5.8873;2.6240;-2.7605;-0.0400;-0.0476;-0.0097
0000035309;5.8538;2.5355;-2.8419;-0.0398;-0.0524;-0.0083
0000035320;5.8227;2.5762;-2.7964;-0.0458;-0.0476;-0.0040
0000035328;5.6743;2.5091;-2.6791;-0.0394;-0.0522;-0.0136
0000035336;5.9592;2.7749;-2.8036;-0.0449;-0.0370;-0.0124
0000035348;5.8586;2.6217;-2.6887;-0.0498;-0.0289;-0.0053
0000035356;5.9233;2.6264;-2.7533;-0.0526;-0.0268;-0.0053
0000035368;5.9065;2.6240;-2.6671;-0.0518;-0.0248;-0.0155
0000035376;6.0717;2.6935;-2.7845;-0.0542;-0.0169;-0.0028
0000035444;5.7006;2.5762;-2.7318;-0.0790;-0.0224;-0.0155
0000035452;5.7102;2.6528;-2.7150;-0.0706;-0.0245;-0.0171
0000035463;5.9735;2.6839;-2.6815;-0.0733;-0.0211;-0.0167
0000035471;6.0166;2.7892;-2.7485;-0.0734;-0.0176;-0.0164
0000035483;5.7389;2.5786;-2.9975;-0.0835;-0.0181;-0.0205
0000035491;5.9568;2.8754;-2.8874;-0.0839;-0.0212;-0.0135
0000035499;5.8466;2.6312;-2.8204;-0.0878;-0.0215;-0.0093
0000035510;5.8442;2.5953;-2.7964;-0.0978;-0.0157;-0.0191
0000035518;5.9424;2.8946;-2.8898;-0.1058;-0.0119;-0.0085
0000035530;6.0549;2.7198;-2.6528;-0.1006;-0.0120;-0.0033
0000035538;6.1770;2.5355;-2.8156;-0.1091;-0.0061;-0.0144
0000035549;5.9975;2.7845;-2.7821;-0.1039;-0.0047;0.0008
0000035557;6.1076;2.7198;-2.8994;-0.0962;-0.0079;0.0011
0000035569;5.9951;2.8060;-3.0502;-0.0993;-0.0196;0.0049
0000035577;5.8419;2.8347;-2.9592;-0.1096;-0.0350;0.0133
0000035585;5.8993;2.6432;-2.9329;-0.1166;-0.0416;0.0080
0000035596;5.6982;2.9066;-3.0694;-0.1419;-0.0512;0.0221
0000035604;5.9544;3.1412;-2.7294;-0.1536;-0.0522;0.0461
0000035616;6.2273;3.4237;-2.6647;-0.1852;-0.0472;0.1176
0000035624;5.8610;5.7245;-3.3160;-0.2666;-0.0306;0.2794
0000035636;6.2321;3.2992;-2.2122;-0.3424;-0.0308;0.3752
0000035644;6.4332;4.3455;-3.1412;-0.3497;-0.0183;0.3421
0000035712;5.5976;3.1005;-1.7023;-0.9272;0.0148;0.1010
0000035720;6.0142;2.3559;-1.5131;-0.9848;0.0213;0.1098
0000035728;6.1579;2.3367;-2.5666;-1.0139;0.0153;0.0939
0000035739;6.2944;3.1939;-1.1205;-1.0876;0.0464;0.0821
0000035747;6.2752;3.0765;-1.5850;-1.1174;0.0529;0.0827
0000035759;6.3853;3.2753;-1.2881;-1.1474;0.0537;0.1027
0000035767;6.3303;3.1484;-1.7095;-1.1747;0.0541;0.1159
0000035778;6.4332;2.5498;-1.8220;-1.2180;0.0468;0.1207
0000035786;6.4284;2.3894;-1.2306;-1.1962;0.0436;0.1088
0000035798;6.3997;2.4756;-1.2426;-1.1784;0.0442;0.1014
0000035806;6.3398;2.4493;-1.1061;-1.1715;0.0345;0.0915
0000035814;6.3686;2.6097;-1.0582;-1.1437;0.0378;0.0863
0000035825;6.3039;2.4972;-0.6752;-1.0970;0.0324;0.0761
0000035833;6.3686;2.3439;-0.7685;-1.0588;0.0293;0.0554
0000035845;6.5386;2.1404;-1.0319;-0.9891;0.0246;0.0430
0000035853;6.5122;2.3008;-0.9649;-0.9362;0.0276;0.0257
0000035864;6.6607;3.0813;-0.0335;-0.8920;0.0309;0.0033
0000035872;6.2537;2.9305;-0.3926;-0.8448;0.0196;-0.0079
0000035880;6.2776;2.6959;-0.4717;-0.8168;0.0220;0.0105
0000035892;6.1507;2.6887;-0.1221;-0.7663;0.0051;0.0028
0000035900;6.3375;2.5594;-0.0072;-0.7374;0.0032;0.0109
0000035912;6.2537;2.9568;-0.5698;-0.6836;-0.0165;0.0270
0000035920;6.5242;2.8276;-0.2274;-0.6599;-0.0272;0.0141
0000035988;6.4404;2.7342;-0.2011;-0.4283;-0.0765;0.0089
0000035996;6.8354;2.8323;0.2873;-0.4446;-0.0669;0.0128
0000036007;6.4093;2.7940;0.2274;-0.4422;-0.0733;0.0067
0000036015;6.1411;2.4229;0.1365;-0.4165;-0.0726;-0.0011
0000036023;6.1866;2.5714;0.1987;-0.3925;-0.0747;-0.0155
0000036035;6.3087;2.5786;0.2801;-0.3671;-0.0657;-0.0228
0000036043;6.1938;2.5714;0.3352;-0.3428;-0.0661;-0.0296
0000036054;6.3829;2.6504;0.4429;-0.3178;-0.0633;-0.0300
0000036062;6.3566;2.8036;0.4549;-0.3016;-0.0645;-0.0233
0000036074;6.6128;3.0694;0.5124;-0.3004;-0.0617;-0.0199
0000036082;6.3566;3.0263;0.7638;-0.3164;-0.0554;-0.0175
0000036093;6.3351;2.9975;0.8667;-0.3363;-0.0516;-0.0232
0000036101;6.3446;2.9209;0.9409;-0.3483;-0.0505;-0.0211
0000036109;6.3686;2.8515;0.8212;-0.3516;-0.0586;-0.0191
0000036121;6.2321;2.8012;0.8835;-0.3353;-0.0648;-0.0218
0000036129;6.0956;2.6815;0.9337;-0.3227;-0.0702;-0.0217
0000036140;6.2058;2.5762;0.8787;-0.2962;-0.0806;-0.0260
0000036148;5.9903;2.5618;0.8380;-0.2734;-0.0903;-0.0338
0000036160;6.0837;2.5642;0.9098;-0.2678;-0.0957;-0.0393
0000036168;6.1196;2.5235;1.0271;-0.2579;-0.1029;-0.0466
0000036180;6.2944;2.7246;0.9601;-0.2670;-0.1003;-0.0655
0000036188;6.2584;2.6839;1.0989;-0.2815;-0.0933;-0.0694
0000036196;6.2393;2.6121;1.1349;-0.2918;-0.0881;-0.0831
0000036262;6.4284;2.7126;1.6017;-0.3912;0.0084;-0.0867
0000036270;6.3758;3.0071;1.7119;-0.4013;0.0069;-0.0846
0000036281;6.2034;2.9568;1.7166;-0.4237;0.0172;-0.0706
0000036289;6.0334;3.1220;1.8507;-0.4403;0.0128;-0.0625
0000036301;6.1028;3.0813;1.8387;-0.4559;0.0037;-0.0532
0000036309;6.3375;3.0813;1.7526;-0.4551;-0.0052;-0.0576
0000036320;6.1531;2.9904;1.6759;-0.4694;-0.0029;-0.0516
0000036328;6.3877;2.8395;1.6568;-0.4690;-0.0039;-0.0646
0000036336;6.4572;2.8826;1.6233;-0.4675;0.0092;-0.0714
0000036348;6.4189;3.0430;1.7382;-0.4679;0.0204;-0.0905
0000036356;6.3207;2.9664;1.7310;-0.4675;0.0246;-0.1013
0000036367;6.1914;2.9951;1.7358;-0.4584;0.0286;-0.0866
0000036375;6.1794;2.9616;1.5802;-0.4475;0.0250;-0.0833
0000036387;6.0310;2.7892;1.3982;-0.4230;0.0168;-0.0404
0000036395;5.9664;2.6911;1.2594;-0.3977;0.0004;-0.0101
0000036407;6.1076;2.4924;1.2163;-0.3589;-0.0246;0.0433
0000036415;6.1986;2.4086;1.3671;-0.3248;-0.0496;0.0787
0000036423;6.3375;2.5355;1.2186;-0.3023;-0.0654;0.1081
0000036434;6.3351;2.4900;1.2426;-0.2730;-0.0867;0.1150
0000036442;6.2417;2.5163;1.1444;-0.2742;-0.0877;0.1095
0000036454;6.2560;2.4588;1.2115;-0.2850;-0.0781;0.0751
0000036462;6.2776;2.3846;1.2953;-0.2650;-0.0625;0.0366
0000036526;6.6080;2.7078;1.4533;-0.0994;0.0675;0.0258
0000036534;6.3518;2.6911;1.5850;-0.1098;0.0671;0.0470
0000036542;6.2130;2.7988;1.6807;-0.1395;0.0690;0.0677
0000036554;6.3111;2.8467;1.7597;-0.1792;0.0694;0.0829
0000036562;6.1890;2.9329;1.9369;-0.2030;0.0644;0.0821
0000036573;6.0765;2.7270;2.0710;-0.2124;0.0544;0.0693
0000036581;6.0932;2.7102;2.2122;-0.2160;0.0605;0.0602
0000036593;6.2106;2.5857;2.2218;-0.2104;0.0537;0.0284
0000036601;6.3949;2.5426;2.2817;-0.2140;0.0536;0.0121
0000036609;6.3710;2.4612;2.2122;-0.2172;0.0546;-0.0049
0000036621;6.4883;2.6743;2.3343;-0.2465;0.0714;-0.0147
0000036629;6.3997;2.6887;2.4038;-0.2642;0.0743;-0.0111
0000036641;6.3422;2.6935;2.5163;-0.2967;0.0863;-0.0187
0000036649;6.2632;2.6911;2.5235;-0.3183;0.0754;-0.0249
0000036661;6.0956;2.6719;2.5762;-0.3665;0.0718;-0.0228
0000036669;6.0286;2.5857;2.5953;-0.3928;0.0618;-0.0237
0000036677;5.9137;2.6432;2.7749;-0.4273;0.0661;-0.0171
0000036689;5.9855;2.9042;2.8012;-0.4756;0.0513;-0.0189
0000036697;5.9903;2.8419;2.8419;-0.5193;0.0478;-0.0143
0000036709;5.7892;2.9688;2.8156;-0.5862;0.0264;0.0061
0000036717;5.6120;3.0023;2.8036;-0.6331;-0.0061;0.0211
0000036729;5.7437;3.2202;3.0311;-0.7071;-0.0417;0.0497
0000036737;5.4779;3.2489;3.0861;-0.7485;-0.0673;0.0795
0000036801;7.1180;3.2753;2.6360;-1.0191;-0.2232;0.0382
0000036809;7.0629;2.8802;2.5738;-1.0536;-0.2000;-0.0127
0000036817;7.1275;3.0813;2.6480;-1.0777;-0.1781;-0.0514
0000036829;6.9049;3.2561;2.7845;-1.1263;-0.1231;-0.0845
0000036837;6.6798;3.2130;2.8706;-1.1671;-0.0986;-0.0858
0000036849;6.7684;3.3088;2.8060;-1.1876;-0.0689;-0.0750
0000036857;6.9623;3.3806;2.5594;-1.1999;-0.0413;-0.0462
0000036869;6.9887;2.9784;2.4086;-1.2103;-0.0159;-0.0226
0000036877;7.0413;2.5690;2.5211;-1.2271;0.0108;-0.0047
0000036889;7.0629;2.2745;2.6743;-1.2481;0.0457;0.0129
0000036897;6.9791;2.5139;2.8204;-1.2498;0.0530;0.0217
0000036905;6.9145;2.8419;3.1867;-1.2838;0.0522;0.0306
0000036917;6.5098;3.4596;3.6871;-1.4048;0.0258;0.0184
0000036925;6.4643;4.0127;4.1061;-1.5014;0.0209;0.0112
0000036937;6.3925;4.0558;4.1228;-1.6285;-0.0069;-0.0456
0000036945;6.1579;3.4069;4.0630;-1.6862;-0.0305;-0.0738
0000036957;5.9640;2.8012;4.2090;-1.6784;-0.0576;-0.0866
0000036965;6.0789;2.7509;4.0247;-1.6084;-0.0850;-0.0914
0000036973;6.2848;2.6959;4.0294;-1.5568;-0.1146;-0.0793
0000036985;6.6535;2.7725;4.0654;-1.5295;-0.1406;-0.0600
0000036993;7.2592;2.8754;4.2928;-1.5447;-0.1288;-0.0429
0000037005;7.6351;2.5067;4.5586;-1.5483;-0.0751;-0.0446
0000037013;7.7620;2.5187;4.4796;-1.5362;-0.0218;-0.0673
0000037077;7.3813;2.4014;5.5713;-1.3699;0.4242;-0.1324
0000037085;7.1563;2.5163;5.5498;-1.3560;0.4423;-0.1112
0000037097;6.6607;2.7845;5.7389;-1.3588;0.4507;-0.0702
0000037105;6.4356;2.7964;5.7485;-1.3756;0.4462;-0.0334
0000037113;6.7349;2.9497;5.9137;-1.3944;0.4327;-0.0021
0000037125;6.5960;2.5809;6.0837;-1.4241;0.4237;0.0513
0000037133;6.6272;2.4708;6.0645;-1.4316;0.4287;0.0786
0000037145;6.6248;2.0279;5.9711;-1.4516;0.4497;0.1049
0000037153;6.5553;1.5443;5.8107;-1.4673;0.4756;0.1187
0000037165;6.6607;0.8523;5.9017;-1.4745;0.5153;0.1323
0000037173;6.4236;0.5028;5.8203;-1.4685;0.5442;0.1490
0000037181;6.7062;0.1413;5.8586;-1.4679;0.5614;0.1568
0000037193;6.4260;-0.5459;5.9424;-1.4438;0.5965;0.1792
0000037201;6.4548;-0.8930;5.7940;-1.4238;0.6186;0.1965
0000037213;6.3087;-1.2977;5.8706;-1.3864;0.6478;0.2089
0000037221;6.0454;-1.6664;5.9664;-1.3452;0.6595;0.2213
0000037233;6.0693;-2.0686;5.8514;-1.2821;0.6496;0.2300
0000037241;5.4803;-2.1404;5.7269;-1.2568;0.6402;0.2469
0000037253;5.3175;-2.5115;5.6719;-1.2063;0.6069;0.2699
0000037261;5.1380;-2.6408;5.7509;-1.1438;0.5722;0.2798
0000037269;5.3463;-2.6767;5.9041;-1.0690;0.5506;0.2894
0000037281;5.1906;-3.0454;6.0406;-1.0011;0.5268;0.3112
0000037289;5.2912;-2.9616;6.1914;-0.9050;0.5139;0.3048
0000037354;6.8211;-1.2115;5.8251;-0.7454;0.7230;0.1789
0000037363;6.7516;-1.3599;5.8035;-0.7650;0.7542;0.1789
0000037376;6.9097;-1.6017;5.9831;-0.7506;0.7838;0.2068
0000037385;6.4907;-1.8268;6.0932;-0.7068;0.8034;0.2370
0000037394;6.2776;-1.7095;6.0190;-0.6610;0.8191;0.2753
0000037407;5.8083;-1.4844;5.5857;-0.6390;0.8595;0.3231
0000037416;6.0118;-1.1540;5.2768;-0.6476;0.8918;0.3262
0000037429;6.2010;-1.4437;4.8650;-0.6767;0.9362;0.3172
0000037438;6.6032;-2.0087;4.8267;-0.6936;1.0059;0.2978
0000037451;6.9097;-2.7485;4.9273;-0.6674;1.1327;0.2555
0000037460;7.2832;-3.4524;4.9967;-0.6023;1.2676;0.2237
0000037473;7.7931;-3.7182;4.9129;-0.4234;1.4885;0.2362
0000037482;8.2001;-3.8930;4.3958;-0.2860;1.6776;0.2994
0000037491;8.8274;-3.9648;3.9289;-0.1239;1.8504;0.3944
0000037504;9.7779;-3.8092;2.8084;0.1422;2.0242;0.6021
0000037513;10.0054;-3.4836;2.3942;0.2809;2.0879;0.7596
0000037526;9.6798;-3.0382;2.1691;0.4190;2.1843;0.9804
0000037535;8.7628;-2.4469;2.3511;0.4748;2.2559;1.0913
0000037548;7.0581;-1.8483;2.5163;0.5272;2.3744;1.1233
0000037557;6.2537;-1.1803;2.1668;0.5460;2.4536;1.0710
0000037566;5.9137;-0.7733;2.1308;0.5476;2.5241;0.9633
0000037579;5.9640;-0.3089;1.7478;0.5061;2.6119;0.7866
0000037588;5.9783;-0.3472;1.3647;0.4370;2.6297;0.6476
0000037653;3.3279;-2.8635;2.4636;-0.3260;2.3996;-0.1747
0000037662;4.2090;-3.5075;2.7581;-0.3375;2.3988;-0.2625
0000037675;5.2672;-4.1803;2.4110;-0.2790;2.4555;-0.4002
0000037684;5.9496;-4.3431;1.9513;-0.2214;2.5029;-0.4768
0000037693;6.6152;-4.1779;1.8316;-0.1755;2.5523;-0.5151
0000037706;6.9025;-4.1348;1.8483;-0.1427;2.6552;-0.5223
0000037715;7.2832;-4.4700;1.8890;-0.1222;2.7280;-0.4946
0000037728;7.1084;-4.5633;2.0039;-0.1343;2.8818;-0.4330
0000037737;6.8690;-5.2960;2.3846;-0.0873;2.9966;-0.3996
0000037750;6.5266;-6.0597;0.9266;0.1387;3.1540;-0.3664
0000037759;6.6343;-6.2441;-1.0319;0.3187;3.2526;-0.3399
0000037772;6.5625;-5.7844;-2.6504;0.4839;3.3288;-0.3802
0000037781;7.1467;-5.4827;6.2321;0.2838;3.2755;-0.4146
0000037790;7.5274;-5.9879;12.6988;0.1545;3.2478;-0.5698
0000037803;5.0326;-5.2577;6.4141;0.5359;3.4005;-1.0944
0000037812;2.1476;-2.2673;0.6081;0.4189;3.7453;-1.6369
0000037825;2.7246;-0.0910;-1.7717;0.2358;4.3484;-2.4259
0000037834;5.9664;0.1604;0.1867;0.1282;4.3656;-2.8527
0000037850;9.8809;0.9720;-3.6559;0.1444;4.3656;-3.1705
0000037859;8.3677;1.2833;-6.0334;-0.0432;4.3656;-3.1694
0000037926;-53.2231;-28.7951;-48.4850;-0.7344;4.2190;-4.3657
0000037935;-31.9219;-26.1136;-23.4584;0.2583;0.4219;-1.2221
0000037947;5.6072;-17.9589;39.1045;2.9360;-2.8590;3.2013
0000037956;4.1659;-8.0134;15.6892;0.3817;-1.4710;3.4648
0000037965;7.2760;-6.1172;2.1763;-0.3355;-0.8371;2.7011
0000037978;4.6280;-3.8307;0.6536;-0.3896;-0.9076;1.9213
0000037987;4.4843;-2.9951;-0.9673;-0.6679;-0.9425;1.6936
0000037999;5.0494;-4.6280;-1.0343;-0.9357;-0.5879;1.0732
0000038008;3.3782;-5.0518;-1.0630;-0.7278;-0.2678;0.4017
0000038021;5.1906;-7.3574;-1.9609;-0.7035;0.2629;-0.4819
0000038030;4.5873;-8.3199;-4.2138;-0.9092;0.4990;-0.8174
0000038042;5.1260;-10.0149;-4.9608;-1.2237;0.5159;-1.1462
0000038051;6.1124;-12.2344;-4.9177;-0.9971;0.3571;-1.2781
0000038060;6.2728;-13.5009;-4.6136;-0.4594;0.0861;-1.0973
0000038073;5.3223;-13.6685;-4.1300;0.2145;-0.2296;-0.5413
0000038082;5.3846;-11.9423;-3.8283;0.4770;-0.1537;-0.2535
0000038094;6.3470;-8.5617;-3.5291;0.4634;0.4073;-0.1577
0000038103;6.0094;-6.6535;-3.7230;0.3753;0.9208;-0.2278
0000038116;3.2441;-3.4884;-3.3974;-0.1106;1.5612;-0.2718
0000038125;0.8763;-2.5498;-3.3279;-0.4449;1.8315;-0.1723
0000038193;-10.7045;-5.3151;-7.6160;1.4630;0.6375;-0.3103
0000038202;-7.2305;-4.2449;-6.2752;0.4343;0.6511;-0.0560
0000038215;-6.0406;-6.4165;-4.1635;-0.4146;0.7910;0.0650
0000038224;-5.7581;-8.1954;-4.7142;-0.7097;0.7701;0.1322
0000038233;-5.8490;-8.8777;-4.8961;-0.8829;0.6499;0.2414
0000038245;-5.5713;-9.1602;-5.2337;-0.9342;0.4522;0.3825
0000038254;-5.8299;-8.6263;-5.3032;-0.9526;0.2693;0.4025
0000038267;-4.7142;-7.8673;-4.5011;-0.8592;0.0418;0.2980
0000038276;-3.8499;-7.2425;-3.9935;-0.7528;-0.0657;0.1871
0000038288;-2.9066;-7.5298;-3.6440;-0.5720;-0.1861;0.0525
0000038297;-2.5163;-7.7644;-3.8858;-0.4502;-0.2848;0.0209
0000038310;-2.3391;-8.0397;-3.9337;-0.3541;-0.4125;0.0927
0000038319;-2.3655;-7.9176;-4.0151;-0.3396;-0.4711;0.1992
0000038331;-2.5450;-7.7764;-4.4748;-0.3468;-0.5051;0.3131
0000038340;-2.9712;-7.7716;-4.6735;-0.3337;-0.5087;0.3585
0000038353;-4.5490;-7.9895;-5.2481;-0.2385;-0.4787;0.3892
0000038362;-4.6376;-7.4316;-4.7309;-0.2719;-0.5448;0.4253
0000038371;-4.6471;-7.4460;-3.7134;-0.3644;-0.6210;0.4936
0000038383;-5.2553;-7.9440;-3.4309;-0.3112;-0.7008;0.5125
0000038392;-5.3774;-7.4172;-4.0558;-0.2946;-0.7693;0.5340
0000038405;-5.5905;-7.1491;-4.3670;-0.3127;-0.9036;0.5497
0000038414;-6.2273;-7.1850;-4.5107;-0.3698;-1.0180;0.5817
0000038484;-3.9073;-5.6240;-1.9106;-0.0281;-1.7790;0.1065
0000038493;-3.1364;-5.7485;-2.1356;0.0211;-1.7797;0.0374
0000038506;-2.4756;-6.0549;-2.2984;0.0585;-1.7427;-0.0075
0000038515;-2.0758;-6.7660;-1.8387;0.0949;-1.6739;0.0109
0000038527;-2.0758;-6.7014;-0.8452;0.0790;-1.5511;0.1104
0000038536;-2.3152;-6.5410;0.0742;0.0270;-1.4554;0.2354
0000038545;-2.9257;-6.6367;1.1013;-0.0338;-1.4254;0.3230
0000038558;-3.0646;-6.2441;1.3455;-0.0362;-1.4040;0.3852
0000038567;-2.6264;-5.7796;1.1349;-0.0392;-1.3820;0.3974
0000038579;-2.3870;-5.4324;0.5076;-0.1235;-1.3014;0.3938
0000038588;-1.9513;-5.2888;0.6416;-0.2081;-1.1834;0.3673
0000038601;-1.9537;-5.7796;1.1013;-0.3238;-0.9487;0.3059
0000038610;-1.9441;-5.7844;1.5658;-0.3471;-0.8471;0.2256
0000038622;-2.3655;-5.6407;1.9752;-0.3447;-0.6873;0.1443
0000038631;-2.9018;-5.7700;2.0830;-0.3561;-0.5818;0.0679
0000038644;-3.4189;-5.7796;2.3463;-0.3640;-0.4539;-0.0430
0000038653;-3.8571;-5.5976;2.5714;-0.3797;-0.4130;-0.1171
0000038662;-4.0630;-5.7054;2.8659;-0.4126;-0.4056;-0.1536
0000038674;-4.1300;-5.6096;3.1268;-0.4466;-0.4658;-0.1743
0000038683;-3.9887;-5.5641;3.1149;-0.4762;-0.5365;-0.1725
0000038696;-3.5171;-5.5258;2.7964;-0.5371;-0.6219;-0.1641
0000038705;-3.2250;-5.5115;2.7485;-0.5805;-0.6496;-0.1470
0000038775;-1.2282;-7.6112;1.9010;-0.2166;-0.1748;0.1635
0000038784;-1.7813;-7.5537;1.9872;-0.0890;-0.0777;0.1961
0000038797;-2.4445;-7.3023;2.0087;0.0823;0.0521;0.2077
0000038806;-2.8994;-6.8666;2.0518;0.1743;0.1294;0.1935
0000038818;-3.2417;-6.2297;2.1811;0.2478;0.2209;0.1455
0000038827;-3.5506;-5.7197;2.2410;0.2364;0.2835;0.1047
0000038836;-3.4979;-5.0949;2.1476;0.2021;0.3219;0.0277
0000038849;-3.8595;-4.9967;1.9393;0.0879;0.3480;-0.0775
0000038858;-4.0079;-5.0589;1.6759;0.0012;0.3535;-0.1371
0000038870;-3.8211;-5.5665;1.3455;-0.0946;0.3397;-0.1944
0000038879;-3.8666;-6.1292;1.2857;-0.1294;0.3309;-0.2194
0000038892;-3.3232;-6.7947;1.2761;-0.1079;0.3477;-0.2054
0000038901;-3.0358;-7.1299;1.3264;-0.0604;0.3525;-0.1776
0000038913;-2.7366;-7.2760;1.1708;0.0027;0.3667;-0.1200
0000038922;-2.5019;-7.2808;1.1756;0.0474;0.3789;-0.0621
0000038931;-2.5163;-7.1443;1.0774;0.0935;0.3908;-0.0076
0000038944;-2.9951;-6.8378;1.0678;0.1595;0.4085;0.0494
0000038953;-3.1795;-6.7062;0.9218;0.2006;0.4266;0.0737
0000038965;-3.9480;-6.5793;0.8116;0.2341;0.4510;0.0670
0000038974;-4.2234;-6.2991;0.6776;0.2318;0.4650;0.0666
0000038987;-4.7692;-6.3973;0.5004;0.2134;0.4704;0.0504
0000038996;-4.8243;-6.3662;0.5124;0.1881;0.4695;0.0378
0000039066;-3.7948;-6.2704;0.2227;0.0500;0.3798;0.0139
0000039075;-3.6919;-6.0861;0.2011;0.0533;0.3778;0.0167
0000039084;-3.9002;-6.3805;0.0646;0.0685;0.3591;0.0087
0000039097;-3.7972;-6.2584;0.0239;0.0723;0.3384;0.0064
0000039106;-3.8068;-6.1268;0.0144;0.0657;0.3280;0.0115
0000039118;-4.0630;-6.3039;0.0622;0.0622;0.3071;0.0123
0000039127;-3.9025;-6.1675;0.0096;0.0437;0.3051;0.0213
0000039140;-4.3144;-6.3063;-0.0024;0.0273;0.3024;0.0203
0000039149;-4.1444;-6.2201;-0.1748;0.0284;0.2888;0.0205
0000039161;-4.2689;-6.3063;-0.2322;0.0128;0.2944;0.0313
0000039170;-4.2569;-6.2537;-0.2849;0.0179;0.2822;0.0322
0000039179;-4.2737;-6.1699;-0.3256;0.0109;0.2801;0.0310
0000039192;-4.2760;-5.9664;-0.3783;-0.0016;0.2657;0.0377
0000039201;-4.2497;-6.0908;-0.4381;-0.0004;0.2494;0.0338
0000039213;-4.2545;-5.9185;-0.5507;-0.0107;0.2170;0.0225
0000039222;-4.4101;-6.1339;-0.5363;-0.0195;0.2044;0.0192
0000039235;-4.2306;-6.0454;-0.5195;-0.0337;0.1780;0.0164
0000039244;-4.2210;-6.2034;-0.4741;-0.0334;0.1507;0.0065
0000039256;-4.2545;-6.1172;-0.4621;-0.0274;0.1238;0.0051
0000039265;-4.1779;-6.2632;-0.4477;-0.0365;0.1154;0.0097
0000039274;-4.0534;-6.2321;-0.4046;-0.0394;0.1070;0.0168
0000039287;-4.0558;-6.3135;-0.4956;-0.0406;0.0939;0.0203
0000039296;-3.9959;-6.2393;-0.4693;-0.0338;0.0814;0.0224
0000039365;-3.9768;-6.1172;-0.4717;-0.0120;-0.0242;0.0100
0000039374;-4.3000;-6.4907;-0.5315;-0.0097;-0.0377;0.0136
0000039388;-4.1994;-6.2465;-0.5243;-0.0100;-0.0648;0.0175
0000039397;-3.9289;-6.1459;-0.6273;-0.0113;-0.0718;0.0212
0000039410;-4.0486;-6.0813;-0.4741;-0.0063;-0.0835;0.0237
0000039419;-4.1180;-6.1220;-0.5148;-0.0020;-0.1018;0.0139
0000039431;-3.9576;-6.0142;-0.4381;-0.0047;-0.1014;0.0091
0000039440;-3.8738;-5.9113;-0.3879;-0.0047;-0.1116;0.0028
0000039453;-4.0175;-6.1268;-0.3998;-0.0073;-0.1114;-0.0009
0000039462;-3.8954;-6.1363;-0.2538;-0.0067;-0.1136;-0.0068
0000039471;-3.6703;-5.9376;-0.1963;-0.0028;-0.1116;-0.0125
0000039483;-3.9385;-6.2153;-0.1700;-0.0059;-0.1073;-0.0095
0000039492;-3.6344;-5.9711;-0.2131;0.0003;-0.1085;-0.0120
0000039505;-3.8259;-6.1028;-0.2251;0.0033;-0.1116;-0.0163
0000039514;-4.0941;-6.2728;-0.3136;-0.0003;-0.1021;-0.0063
0000039526;-4.0199;-6.1387;-0.2466;-0.0031;-0.1049;-0.0028
0000039535;-3.9983;-6.1938;-0.1628;-0.0096;-0.0979;-0.0087
0000039548;-3.7900;-6.0525;-0.2442;-0.0096;-0.0943;-0.0093
0000039557;-3.8211;-6.1124;-0.1221;-0.0060;-0.0937;-0.0152
0000039569;-3.7062;-6.1076;-0.2729;-0.0128;-0.0905;-0.0173
0000039578;-3.8690;-6.1866;-0.2059;-0.0079;-0.0885;-0.0209
0000039647;-3.6847;-6.1914;-0.1389;-0.0159;-0.0444;-0.0260
0000039656;-3.8858;-6.2130;-0.1676;-0.0185;-0.0376;-0.0179
0000039668;-3.9337;-6.1986;-0.1293;-0.0230;-0.0306;-0.0172
0000039677;-4.0151;-6.2345;-0.1628;-0.0225;-0.0297;-0.0183
0000039686;-3.7613;-6.1794;-0.1365;-0.0272;-0.0244;-0.0123
0000039699;-3.6464;-6.0071;-0.1628;-0.0252;-0.0160;-0.0075
0000039708;-3.7948;-6.1818;-0.2394;-0.0272;-0.0176;-0.0048
0000039720;-3.9097;-6.1890;-0.1580;-0.0266;-0.0152;-0.0047
0000039729;-3.6703;-6.0478;-0.3328;-0.0285;-0.0160;-0.0007
0000039742;-4.0366;-6.2034;-0.2083;-0.0292;-0.0197;-0.0029
0000039751;-4.0630;-6.3063;-0.1963;-0.0296;-0.0191;0.0048
0000039763;-3.8930;-6.1842;-0.2203;-0.0308;-0.0204;0.0083
0000039772;-3.8954;-6.2225;-0.2442;-0.0310;-0.0179;0.0100
0000039785;-3.8547;-6.1316;-0.2753;-0.0294;-0.0221;0.0115
0000039794;-3.8571;-6.1411;-0.2394;-0.0266;-0.0285;0.0001
0000039806;-3.8595;-6.0549;-0.3112;-0.0212;-0.0334;0.0020
0000039815;-3.7733;-6.0334;-0.2179;-0.0238;-0.0306;0.0004
0000039828;-3.8738;-6.0310;-0.2490;-0.0196;-0.0305;0.0005
0000039837;-3.9002;-6.1028;-0.2777;-0.0213;-0.0288;0.0013
0000039846;-3.8379;-6.0908;-0.2705;-0.0177;-0.0304;-0.0005
0000039858;-3.7972;-6.0525;-0.2586;-0.0201;-0.0249;0.0003
0000039867;-3.8211;-6.0525;-0.2131;-0.0133;-0.0258;-0.0019
0000039936;-3.7876;-6.0573;-0.1796;-0.0225;-0.0320;-0.0120
0000039945;-3.7517;-6.1507;-0.1963;-0.0236;-0.0290;-0.0140
0000039957;-3.9768;-6.1387;-0.1628;-0.0236;-0.0292;-0.0135
0000039966;-3.8259;-6.2010;-0.2442;-0.0199;-0.0308;-0.0136
0000039979;-3.7517;-6.0885;-0.2035;-0.0163;-0.0188;-0.0072
0000039988;-3.8954;-6.1627;-0.2466;-0.0119;-0.0171;-0.0073
0000040000;-3.8307;-6.1890;-0.3352;-0.0125;-0.0180;-0.0067
0000040009;-3.8188;-6.0286;-0.2753;-0.0155;-0.0119;0.0019
0000040022;-3.7206;-6.0478;-0.2634;-0.0108;-0.0175;0.0049
0000040031;-3.8930;-6.2225;-0.3184;-0.0064;-0.0196;0.0037
0000040040;-3.8355;-6.1316;-0.2011;-0.0109;-0.0180;0.0119
0000040052;-3.9289;-6.0861;-0.3184;-0.0083;-0.0196;0.0057
0000040061;-3.8307;-6.0717;-0.3112;-0.0080;-0.0181;-0.0032
0000040074;-3.9576;-6.0789;-0.2753;-0.0116;-0.0238;-0.0083
0000040083;-3.7062;-5.7581;-0.3065;-0.0037;-0.0292;-0.0217
0000040095;-3.9385;-6.0382;-0.2658;-0.0079;-0.0240;-0.0293
0000040104;-3.8786;-5.8873;-0.2921;-0.0084;-0.0333;-0.0378
0000040117;-3.7373;-6.0094;-0.2346;-0.0023;-0.0428;-0.0468
0000040126;-3.9289;-6.0549;-0.2634;-0.0040;-0.0402;-0.0378
0000040138;-3.7254;-6.0430;-0.2705;-0.0035;-0.0436;-0.0346
0000040147;-3.8331;-6.1196;-0.2705;-0.0101;-0.0386;-0.0290
0000040216;-3.9648;-6.1651;-0.2777;-0.0044;-0.0372;-0.0133
0000040225;-4.0366;-6.1316;-0.2825;-0.0097;-0.0384;-0.0124
0000040237;-3.8906;-6.2130;-0.2274;-0.0043;-0.0354;-0.0145
0000040246;-3.8044;-6.0693;-0.2777;-0.0131;-0.0294;-0.0031
0000040259;-3.8403;-6.1818;-0.2346;-0.0105;-0.0286;-0.0024
0000040268;-3.7781;-6.0406;-0.3112;-0.0125;-0.0377;-0.0077
0000040277;-3.9863;-6.1699;-0.3208;-0.0049;-0.0358;-0.0055
0000040289;-4.0869;-6.2130;-0.2705;-0.0121;-0.0326;0.0012
0000040298;-3.7948;-5.9735;-0.2370;-0.0089;-0.0390;-0.0064
0000040311;-4.0606;-6.1100;-0.2921;-0.0036;-0.0413;-0.0096
0000040320;-3.7685;-6.0573;-0.1963;-0.0105;-0.0338;-0.0060
0000040332;-3.9217;-6.1483;-0.1987;-0.0105;-0.0333;-0.0141
0000040341;-3.9385;-6.2273;-0.1820;-0.0084;-0.0302;-0.0111
0000040354;-3.8666;-6.0813;-0.2059;-0.0115;-0.0258;-0.0172
0000040363;-3.6799;-6.0071;-0.2059;0.0000;-0.0272;-0.0264
0000040375;-3.8906;-6.1531;-0.2873;-0.0080;-0.0176;-0.0257
0000040384;-3.8475;-6.0765;-0.3089;-0.0024;-0.0224;-0.0301
0000040397;-3.6129;-5.9640;-0.2538;-0.0037;-0.0187;-0.0302
0000040406;-3.6871;-5.9280;-0.2514;0.0024;-0.0205;-0.0342
0000040418;-3.8642;-5.9759;-0.2059;0.0049;-0.0192;-0.0429
0000040427;-3.9121;-6.1292;-0.2682;-0.0021;-0.0143;-0.0409
0000040436;-3.7709;-5.9280;-0.3136;-0.0004;-0.0156;-0.0485
0000040505;-3.8092;-6.1339;-0.2777;-0.0047;-0.0133;-0.0298
0000040514;-3.8283;-6.1100;-0.2298;-0.0120;-0.0135;-0.0229
0000040526;-4.0031;-6.3638;-0.4046;-0.0128;-0.0108;-0.0097
0000040535;-4.0103;-6.3494;-0.3017;-0.0191;-0.0135;-0.0035
0000040548;-3.9433;-6.2393;-0.3112;-0.0188;-0.0141;0.0045
0000040557;-3.9935;-6.3351;-0.3615;-0.0187;-0.0184;0.0053
0000040569;-3.8690;-6.1220;-0.3256;-0.0161;-0.0242;0.0109
0000040578;-3.7948;-6.0549;-0.3160;-0.0131;-0.0285;0.0039
0000040591;-3.8427;-6.1579;-0.3017;-0.0145;-0.0306;0.0027
0000040600;-3.9409;-6.1818;-0.2514;-0.0168;-0.0233;0.0028
0000040612;-3.8858;-6.1244;-0.3591;-0.0124;-0.0241;-0.0015
0000040621;-3.8259;-5.9328;-0.2586;-0.0191;-0.0238;0.0049
0000040630;-3.9097;-6.0789;-0.2873;-0.0135;-0.0245;0.0032
0000040643;-3.9313;-6.1675;-0.2586;-0.0099;-0.0304;-0.0036
0000040652;-3.7373;-6.0382;-0.2873;-0.0191;-0.0228;0.0012
0000040664;-3.9097;-6.1435;-0.3232;-0.0157;-0.0258;-0.0031
0000040673;-3.8211;-6.0358;-0.3232;-0.0113;-0.0324;-0.0135
0000040686;-3.8906;-6.0430;-0.3256;-0.0108;-0.0316;-0.0145
0000040695;-4.0630;-6.3087;-0.2442;-0.0145;-0.0358;-0.0187
0000040707;-3.7254;-6.0142;-0.3328;-0.0120;-0.0284;-0.0163
0000040716;-3.8475;-6.0765;-0.2682;-0.0133;-0.0236;-0.0159
0000040786;-3.8714;-6.1268;-0.3783;-0.0131;-0.0172;-0.0156
0000040795;-3.8188;-6.0501;-0.3855;-0.0151;-0.0221;-0.0161
0000040808;-3.7948;-6.1387;-0.3256;-0.0112;-0.0225;-0.0157
0000040817;-3.8547;-6.1148;-0.2682;-0.0080;-0.0245;-0.0213
0000040829;-3.7972;-6.0669;-0.3543;-0.0120;-0.0250;-0.0129
0000040838;-3.8595;-6.0454;-0.2969;-0.0116;-0.0278;-0.0144
0000040847;-4.0893;-6.2608;-0.3783;-0.0095;-0.0246;-0.0159
0000040860;-4.0103;-6.1363;-0.3400;-0.0112;-0.0222;-0.0168
0000040869;-4.0247;-6.2321;-0.3352;-0.0087;-0.0332;-0.0233
0000040881;-3.8092;-6.0645;-0.2777;-0.0124;-0.0234;-0.0183
0000040890;-3.8978;-6.2872;-0.3352;-0.0045;-0.0313;-0.0212
0000040903;-3.8403;-6.1124;-0.3831;-0.0061;-0.0337;-0.0200
0000040912;-3.8714;-6.1531;-0.3160;-0.0163;-0.0276;-0.0156
0000040924;-3.6871;-5.9807;-0.3472;-0.0196;-0.0257;-0.0088
0000040933;-3.9433;-6.1555;-0.3615;-0.0085;-0.0320;-0.0172
0000040946;-3.8188;-6.1172;-0.3807;-0.0040;-0.0342;-0.0141
0000040955;-3.8930;-6.0956;-0.4621;-0.0109;-0.0232;-0.0103
0000040967;-3.8930;-6.1818;-0.3376;-0.0141;-0.0261;-0.0117
0000040976;-3.8379;-6.0525;-0.3950;-0.0121;-0.0320;-0.0183
0000041043;-3.8714;-6.1076;-0.3256;-0.0104;-0.0273;-0.0123
0000041052;-3.8858;-6.1339;-0.3448;-0.0156;-0.0211;-0.0095
0000041064;-3.9193;-6.2369;-0.3112;-0.0153;-0.0265;-0.0061
0000041073;-3.8355;-6.0645;-0.4070;-0.0145;-0.0272;-0.0095
0000041082;-3.9073;-6.1651;-0.3304;-0.0173;-0.0282;-0.0048
0000041095;-3.7637;-6.0262;-0.3089;-0.0153;-0.0304;-0.0053
0000041104;-3.9600;-6.1411;-0.3567;-0.0113;-0.0312;-0.0137
0000041116;-3.8810;-6.1531;-0.2849;-0.0119;-0.0258;-0.0087
0000041125;-3.8714;-6.2058;-0.3783;-0.0180;-0.0207;-0.0080
0000041138;-4.0007;-6.1866;-0.4549;-0.0133;-0.0256;-0.0135
0000041147;-3.8978;-6.2584;-0.3735;-0.0195;-0.0229;-0.0081
0000041159;-3.9528;-6.2608;-0.3663;-0.0143;-0.0245;-0.0107
0000041168;-3.7685;-6.1268;-0.4549;-0.0165;-0.0203;-0.0048
0000041181;-3.9409;-6.1172;-0.4238;-0.0204;-0.0226;-0.0073
0000041190;-3.7709;-6.0741;-0.3903;-0.0148;-0.0268;-0.0140
0000041202;-3.9049;-6.0669;-0.3855;-0.0147;-0.0297;-0.0156
0000041211;-3.9480;-6.1124;-0.3639;-0.0155;-0.0233;-0.0108
0000041224;-3.7517;-6.0525;-0.3807;-0.0143;-0.0264;-0.0125
0000041233;-3.8403;-5.9735;-0.4286;-0.0080;-0.0341;-0.0195
0000041240;-3.7757;-5.9496;-0.3400;-0.0124;-0.0317;-0.0129
0000041251;-3.8571;-6.0214;-0.3759;-0.0079;-0.0400;-0.0225
0000041259;-3.9002;-6.1387;-0.3112;-0.0143;-0.0316;-0.0140
0000041325;-3.9025;-6.1172;-0.3759;-0.0087;-0.0480;-0.0203
0000041333;-3.8188;-6.0765;-0.3783;-0.0120;-0.0426;-0.0145
0000041344;-4.0725;-6.1531;-0.4046;-0.0141;-0.0428;-0.0124
0000041352;-3.6823;-5.9927;-0.3687;-0.0096;-0.0476;-0.0212
0000041364;-3.8451;-6.0837;-0.3543;-0.0120;-0.0413;-0.0209
0000041372;-3.7278;-5.9951;-0.4190;-0.0088;-0.0462;-0.0207
