time;acc_x;acc_y;acc_z;gyro_x;gyro_y;gyro_z
0000027530;1.8986;-17.4825;7.5202;0.3192;0.1589;0.0521
0000027538;2.1117;-17.1257;7.4843;0.3520;0.0556;0.0161
0000027545;2.7629;-16.6493;7.5753;0.3568;-0.0264;-0.0131
0000027553;3.5721;-16.2854;7.6614;0.3695;-0.1085;-0.0417
0000027562;4.5969;-15.7969;8.1163;0.3407;-0.1576;-0.0356
0000027570;5.0422;-15.5096;8.4060;0.2746;-0.1624;-0.0248
0000027582;5.3750;-15.1960;8.4731;0.1988;-0.1611;0.0165
0000027590;5.0973;-15.2343;8.3653;0.1178;-0.1677;0.0478
0000027598;4.6448;-15.1792;8.1116;0.0381;-0.2025;0.0750
0000027609;3.9313;-15.4091;7.5681;-0.0786;-0.2643;0.1180
0000027617;3.7733;-15.3947;7.7165;-0.1327;-0.3281;0.1242
0000027629;4.0151;-15.5240;7.1970;-0.2145;-0.3854;0.1739
0000027637;4.5179;-15.7060;6.9791;-0.2599;-0.3962;0.1851
0000027648;4.9201;-15.6605;7.2042;-0.3038;-0.3864;0.1450
0000027656;5.1858;-15.4067;7.5513;-0.3300;-0.3472;0.1058
0000027668;5.4779;-15.3971;7.4053;-0.4017;-0.2765;0.0261
0000027676;5.7796;-16.0412;7.1036;-0.5051;-0.2433;-0.0149
0000027687;6.0932;-17.1042;7.0102;-0.6135;-0.1939;-0.0480
0000027695;6.2297;-17.2550;6.8642;-0.6135;-0.1442;-0.0686
0000027703;6.1387;-17.3795;6.7397;-0.6041;-0.1029;-0.0838
0000027771;6.9504;-15.1074;5.1858;-0.9316;-0.1126;-0.2486
0000027779;7.0820;-14.9733;5.0996;-0.9341;-0.0950;-0.2629
0000027790;7.0892;-14.8488;5.0374;-0.9355;-0.0767;-0.2786
0000027798;6.8402;-14.5783;5.0015;-0.9257;-0.0722;-0.2931
0000027810;6.4548;-14.1785;4.6950;-0.9354;-0.0518;-0.2918
0000027818;6.2752;-14.0252;4.5035;-0.9501;-0.0482;-0.2813
0000027829;5.9735;-13.9630;4.3790;-0.9831;-0.0392;-0.2674
0000027837;5.9807;-13.7762;4.4125;-1.0139;-0.0270;-0.2570
0000027849;5.8347;-13.9223;4.2545;-1.0479;-0.0183;-0.2534
0000027857;5.6312;-14.2120;4.1659;-1.0531;-0.0313;-0.2702
0000027868;5.8059;-14.1354;4.2641;-1.0541;-0.0274;-0.2723
0000027876;5.8083;-14.0204;4.3191;-1.0425;-0.0254;-0.2839
0000027884;5.7988;-14.0803;4.1635;-1.0263;-0.0292;-0.2870
0000027896;5.7317;-14.0372;4.2760;-1.0241;-0.0157;-0.2719
0000027904;5.9687;-13.9151;4.3910;-1.0379;0.0040;-0.2433
0000027915;5.9280;-13.9295;4.2114;-1.0666;0.0362;-0.1900
0000027923;5.8873;-14.0324;4.1420;-1.0892;0.0486;-0.1673
0000027935;5.5522;-14.4035;4.2401;-1.1229;0.0826;-0.1203
0000027943;5.4564;-14.6860;4.1875;-1.1321;0.0906;-0.1140
0000027954;5.3678;-14.9997;4.3503;-1.1415;0.0923;-0.1275
0000027962;4.9680;-15.3732;4.2162;-1.1338;0.0891;-0.1495
0000028030;4.9536;-15.8999;3.5386;-0.9052;-0.0699;-0.0043
0000028038;5.2002;-15.8257;3.5626;-0.8964;-0.0730;0.0167
0000028046;5.5282;-15.7538;3.4141;-0.8884;-0.0674;0.0370
0000028057;5.6814;-15.7682;3.3136;-0.8831;-0.0582;0.0376
0000028065;5.6767;-15.8281;3.2537;-0.8793;-0.0465;0.0314
0000028077;5.4779;-16.0124;3.0718;-0.8665;-0.0281;0.0216
0000028085;5.4468;-15.9717;2.9425;-0.8584;-0.0377;0.0152
0000028096;5.4731;-16.2997;2.6983;-0.8400;-0.0342;0.0201
0000028104;5.5450;-16.1920;2.6169;-0.8263;-0.0441;0.0135
0000028116;5.5091;-16.3380;2.7294;-0.8019;-0.0520;0.0141
0000028124;5.7102;-16.2925;2.5953;-0.7865;-0.0520;0.0173
0000028135;5.6958;-16.3955;2.2625;-0.7727;-0.0718;0.0216
0000028143;5.6096;-16.4003;2.2745;-0.7647;-0.0830;0.0270
0000028151;5.6240;-16.2159;2.2434;-0.7691;-0.0971;0.0345
0000028163;5.4875;-16.2662;2.0734;-0.7693;-0.1110;0.0325
0000028171;5.4731;-16.0723;1.8627;-0.7714;-0.1258;0.0388
0000028182;5.5426;-16.1082;1.8100;-0.7842;-0.1583;0.0328
0000028190;5.7006;-16.1393;1.7286;-0.7973;-0.1731;0.0314
0000028202;5.8299;-16.0340;1.5682;-0.8112;-0.1947;0.0168
0000028210;5.8562;-16.1058;1.5227;-0.8272;-0.2066;0.0077
0000028222;5.9664;-16.2327;1.2809;-0.8447;-0.2333;0.0040
0000028230;5.8754;-16.3165;1.2378;-0.8452;-0.2469;0.0096
0000028238;5.9711;-16.4290;1.2139;-0.8541;-0.2557;0.0100
0000028306;5.6072;-17.2215;1.2067;-0.6745;-0.3930;-0.1240
0000028314;5.6862;-17.1664;1.2498;-0.6464;-0.3960;-0.1284
0000028325;5.7724;-17.4681;1.0223;-0.6093;-0.3868;-0.1240
0000028333;5.9616;-17.3867;0.8428;-0.5708;-0.3537;-0.1045
0000028345;6.2297;-17.1401;0.7111;-0.5032;-0.2954;-0.0723
0000028353;6.1531;-17.1114;0.6081;-0.4455;-0.2501;-0.0609
0000028364;6.2560;-17.0156;0.4142;-0.3742;-0.1931;-0.0466
0000028372;6.3901;-16.6900;0.3998;-0.3380;-0.1498;-0.0449
0000028384;6.1890;-16.8145;0.2849;-0.3010;-0.0826;-0.0537
0000028392;6.3135;-16.4769;0.3184;-0.2770;-0.0462;-0.0629
0000028403;6.1172;-16.2662;0.2322;-0.2502;-0.0095;-0.0715
0000028411;5.8203;-16.1968;-0.0239;-0.2410;0.0073;-0.0855
0000028419;5.6671;-16.1704;-0.1867;-0.2256;-0.0032;-0.1135
0000028431;5.3199;-16.1776;-0.1939;-0.2262;-0.0113;-0.1310
0000028439;5.3893;-16.0412;-0.3615;-0.2257;-0.0354;-0.1328
0000028450;5.5426;-15.7371;-0.6943;-0.2473;-0.0637;-0.1062
0000028458;5.4612;-15.9406;-0.6656;-0.2741;-0.0913;-0.0849
0000028470;5.5426;-16.0819;-0.8595;-0.3032;-0.1382;-0.0477
0000028478;5.4205;-16.3572;-0.9026;-0.3122;-0.1672;-0.0276
0000028490;5.4229;-16.6205;-1.0439;-0.3175;-0.2037;-0.0127
0000028498;5.4253;-16.6804;-1.0223;-0.3152;-0.2189;-0.0095
0000028566;7.3454;-16.3165;-0.6895;-0.2645;-0.1873;0.0076
0000028574;7.7452;-16.3572;-0.6249;-0.2914;-0.1332;0.0076
0000028585;7.7452;-16.6876;-0.4022;-0.3083;-0.0577;0.0027
0000028593;7.5753;-16.9701;-0.3400;-0.3055;-0.0025;0.0020
0000028605;7.3813;-17.3149;-0.1604;-0.2410;0.0689;-0.0153
0000028613;6.9145;-17.8775;-0.0048;-0.1632;0.1083;-0.0298
0000028621;6.9216;-17.8703;0.2634;-0.0830;0.1529;-0.0374
0000028632;6.5386;-17.9374;0.5722;0.0449;0.2053;-0.0560
0000028640;6.4596;-17.7746;0.6225;0.1391;0.2341;-0.0699
0000028652;6.3686;-17.1856;0.6728;0.2442;0.2534;-0.1025
0000028660;6.0118;-16.7618;0.7566;0.2799;0.2670;-0.1214
0000028671;5.9855;-16.3141;0.8116;0.2802;0.2727;-0.1320
0000028679;5.8155;-16.0196;0.8068;0.2634;0.2699;-0.1328
0000028691;5.5545;-15.8496;0.7302;0.2317;0.2675;-0.1108
0000028699;5.5617;-15.7060;0.6512;0.2034;0.2583;-0.0961
0000028707;5.6264;-15.6413;0.6656;0.1856;0.2368;-0.0833
0000028718;5.4205;-15.7969;0.5938;0.1644;0.2072;-0.0469
0000028726;5.2912;-16.0005;0.6273;0.1508;0.1865;-0.0188
0000028738;5.2002;-16.1178;0.7135;0.1470;0.1474;0.0149
0000028746;5.1499;-16.2614;0.6416;0.1516;0.1215;0.0304
0000028758;5.4324;-16.1130;0.6321;0.1499;0.0915;0.0482
0000028766;5.5138;-16.2087;0.5387;0.1460;0.0798;0.0490
0000028834;5.8442;-16.4601;0.6943;0.1063;0.0494;-0.0240
0000028842;5.9831;-16.3021;0.5986;0.1211;0.0366;-0.0320
0000028850;5.7868;-16.4506;0.5267;0.1298;0.0278;-0.0364
0000028861;5.7533;-16.4051;0.4908;0.1354;0.0043;-0.0333
0000028869;5.7748;-16.3309;0.4788;0.1414;-0.0121;-0.0354
0000028881;5.8227;-16.2782;0.5291;0.1314;-0.0285;-0.0292
0000028889;5.9592;-16.1728;0.4501;0.1254;-0.0361;-0.0217
0000028901;6.0023;-16.3165;0.5746;0.1123;-0.0384;-0.0109
0000028909;6.1483;-16.2064;0.5124;0.1098;-0.0408;-0.0053
0000028920;6.0693;-16.1633;0.6153;0.1079;-0.0341;0.0012
0000028928;6.0286;-16.4625;0.5842;0.1167;-0.0376;-0.0012
0000028940;6.0549;-16.3907;0.6345;0.1242;-0.0333;-0.0075
0000028948;6.1052;-16.4170;0.6512;0.1264;-0.0179;-0.0036
0000028956;6.0334;-16.3955;0.8236;0.1360;-0.0111;-0.0069
0000028967;5.8778;-16.4506;0.7805;0.1559;-0.0116;-0.0197
0000028975;6.1770;-16.2231;0.7805;0.1603;-0.0100;-0.0282
0000028987;6.0669;-16.3141;0.6967;0.1649;-0.0041;-0.0256
0000028995;6.0094;-16.2973;0.8547;0.1763;-0.0096;-0.0296
0000029006;5.7700;-16.4913;0.8404;0.1831;-0.0127;-0.0253
0000029014;5.9256;-16.2471;0.8715;0.1892;-0.0168;-0.0180
0000029026;5.6647;-16.1273;0.9697;0.1875;-0.0284;-0.0128
0000029034;5.6575;-16.1249;1.0654;0.1809;-0.0325;-0.0088
0000029042;5.7437;-16.0795;1.0391;0.1612;-0.0473;-0.0132
0000029108;5.6024;-16.1872;1.0271;0.0798;-0.1182;0.0039
0000029116;5.9113;-16.2016;0.9768;0.0857;-0.1267;0.0043
0000029128;5.8873;-16.1034;1.1061;0.0998;-0.1431;0.0037
0000029136;5.9951;-15.9837;1.0582;0.0918;-0.1383;0.0080
0000029147;5.8873;-16.1178;1.0989;0.0957;-0.1508;0.0065
0000029155;5.9568;-16.0866;1.2426;0.0809;-0.1476;0.0077
0000029167;5.9735;-16.1034;1.1420;0.0699;-0.1463;0.0015
0000029175;5.9017;-16.1680;1.1899;0.0620;-0.1476;-0.0007
0000029186;5.9113;-16.1273;1.2354;0.0564;-0.1525;-0.0024
0000029194;5.8442;-16.1058;1.1420;0.0501;-0.1491;-0.0007
0000029202;5.9089;-16.1800;1.1636;0.0474;-0.1480;-0.0039
0000029214;6.0262;-16.0292;1.1779;0.0370;-0.1452;0.0000
0000029222;6.0813;-16.0651;1.1133;0.0308;-0.1480;0.0039
0000029233;6.0932;-15.9430;1.2306;0.0273;-0.1432;0.0057
0000029241;6.0956;-15.9765;1.1181;0.0207;-0.1423;0.0069
0000029253;6.0693;-16.1513;1.1923;0.0160;-0.1383;0.0051
0000029261;6.1770;-16.1010;1.1612;0.0115;-0.1240;0.0096
0000029272;6.1459;-16.1776;1.1660;0.0164;-0.1262;0.0049
0000029280;6.0908;-16.2949;1.3264;0.0115;-0.1144;0.0049
0000029288;6.1268;-16.2542;1.1372;0.0055;-0.1062;0.0111
0000029300;6.1746;-16.0747;1.0822;0.0096;-0.1013;0.0041
0000029308;5.8802;-16.2016;1.1995;0.0067;-0.0999;-0.0015
0000029376;6.0430;-16.0747;1.1875;-0.0103;-0.0617;0.0100
0000029384;5.9903;-16.1178;1.0822;-0.0016;-0.0637;0.0016
0000029396;6.0885;-16.1752;1.0367;-0.0037;-0.0597;0.0017
0000029404;5.9711;-16.2734;1.0247;-0.0007;-0.0600;-0.0077
0000029415;5.8610;-16.2087;1.1013;-0.0084;-0.0540;-0.0016
0000029423;6.0621;-16.1513;1.0343;-0.0143;-0.0464;0.0053
0000029435;6.0286;-16.0388;1.0630;-0.0171;-0.0509;0.0007
0000029443;5.9879;-16.1154;1.0846;-0.0192;-0.0496;0.0020
0000029451;5.8778;-16.2279;1.0798;-0.0196;-0.0444;0.0025
0000029462;5.9640;-16.2542;1.0678;-0.0273;-0.0385;0.0077
0000029470;5.8826;-16.1872;1.0151;-0.0185;-0.0445;-0.0017
0000029482;5.7820;-16.4937;1.0989;0.0015;-0.0420;0.0037
0000029490;5.8347;-16.3524;1.0918;0.0129;-0.0385;0.0052
0000029501;6.0597;-16.2638;0.9912;0.0176;-0.0414;0.0051
0000029509;5.8730;-16.1633;0.9625;0.0212;-0.0388;-0.0032
0000029521;6.0765;-15.9286;1.0558;0.0012;-0.0261;-0.0040
0000029529;5.8155;-16.1465;1.1037;-0.0081;-0.0177;-0.0069
0000029537;5.8107;-16.1178;1.0199;-0.0164;-0.0139;-0.0116
0000029548;5.9017;-16.1297;1.0582;-0.0294;-0.0105;-0.0071
0000029556;6.0669;-16.0938;1.0582;-0.0325;-0.0136;-0.0125
0000029568;6.0142;-16.2279;1.0439;-0.0280;-0.0157;-0.0075
0000029576;5.8251;-16.2518;0.9625;-0.0234;-0.0188;-0.0091
0000029644;5.9687;-16.1345;1.0942;0.0211;-0.0312;-0.0116
0000029652;5.8323;-16.1800;1.0726;0.0173;-0.0340;-0.0136
0000029664;5.7964;-16.1872;1.2067;0.0128;-0.0365;-0.0127
0000029672;5.9640;-16.0890;1.1851;0.0089;-0.0370;-0.0137
0000029683;5.9113;-16.1273;1.1037;0.0155;-0.0433;-0.0107
0000029691;6.0525;-16.0914;1.1253;0.0160;-0.0434;-0.0063
0000029703;5.9209;-16.2494;1.1660;0.0192;-0.0438;-0.0077
0000029711;5.7748;-16.2806;1.1756;0.0248;-0.0429;-0.0108
0000029719;5.9017;-16.2111;1.1277;0.0330;-0.0442;-0.0116
0000029730;5.9759;-16.2973;1.1253;0.0378;-0.0429;-0.0216
0000029738;5.8778;-16.2901;1.0750;0.0406;-0.0369;-0.0175
0000029750;6.0454;-16.2087;1.1540;0.0489;-0.0286;-0.0203
0000029758;6.1723;-15.9597;1.1947;0.0541;-0.0416;-0.0281
0000029769;5.8778;-16.1944;1.1157;0.0612;-0.0384;-0.0250
0000029777;5.9185;-16.1776;1.1277;0.0544;-0.0306;-0.0189
0000029789;6.1076;-16.1752;1.1396;0.0598;-0.0338;-0.0179
0000029797;6.1459;-16.0890;1.1899;0.0561;-0.0289;-0.0153
0000029808;6.1699;-16.0603;1.1779;0.0564;-0.0340;-0.0159
0000029816;5.9831;-16.1489;1.2330;0.0464;-0.0285;-0.0063
0000029824;5.9759;-16.1537;1.1684;0.0508;-0.0300;-0.0129
0000029836;5.8658;-16.2997;1.1181;0.0472;-0.0264;-0.0123
0000029844;5.8826;-16.1393;1.1827;0.0514;-0.0245;-0.0155
0000029912;5.8442;-16.2351;1.2665;0.0386;-0.0262;-0.0153
0000029920;5.9448;-16.0316;1.2570;0.0337;-0.0245;-0.0107
0000029932;5.8610;-16.1321;1.3168;0.0353;-0.0353;-0.0147
0000029940;5.9161;-16.2183;1.2570;0.0361;-0.0437;-0.0132
0000029951;5.9400;-16.2327;1.3312;0.0394;-0.0370;-0.0076
0000029959;5.7940;-16.2662;1.4437;0.0545;-0.0469;-0.0171
0000029967;5.8586;-16.3644;1.3384;0.0616;-0.0490;-0.0088
0000029979;6.0047;-16.1704;1.4030;0.0666;-0.0514;-0.0119
0000029987;5.9304;-16.0627;1.3192;0.0532;-0.0420;-0.0069
0000029998;6.0286;-15.8472;1.2761;0.0328;-0.0393;-0.0201
0000030006;5.9424;-15.9382;1.3024;0.0125;-0.0310;-0.0203
0000030018;5.7964;-16.0100;1.3312;-0.0109;-0.0313;-0.0248
0000030026;5.8538;-16.1202;1.2977;-0.0221;-0.0276;-0.0229
0000030037;5.8419;-16.1369;1.3312;-0.0100;-0.0405;-0.0248
0000030045;6.0573;-16.1249;1.3168;-0.0016;-0.0386;-0.0144
0000030057;5.9999;-16.2614;1.2594;0.0212;-0.0440;-0.0157
0000030065;5.9520;-16.0124;1.2210;0.0254;-0.0440;-0.0083
0000030077;5.9855;-16.1082;1.4030;0.0332;-0.0541;-0.0160
0000030085;5.9233;-16.1034;1.3623;0.0244;-0.0442;-0.0156
0000030093;5.9735;-16.0148;1.4222;0.0175;-0.0484;-0.0241
0000030161;5.9256;-16.3356;1.3767;0.0085;-0.0482;-0.0137
0000030169;5.9161;-16.1680;1.4078;0.0189;-0.0496;-0.0181
0000030180;6.0142;-16.0866;1.3288;0.0144;-0.0405;-0.0151
0000030188;6.0142;-16.1393;1.4222;0.0059;-0.0358;-0.0135
0000030200;6.1028;-16.0699;1.3551;0.0039;-0.0414;-0.0212
0000030208;5.9568;-16.0699;1.3695;-0.0035;-0.0340;-0.0180
0000030219;5.8897;-16.2878;1.4246;-0.0092;-0.0314;-0.0222
0000030227;6.1435;-15.9262;1.3503;-0.0115;-0.0297;-0.0209
0000030239;5.8778;-16.1896;1.3455;-0.0095;-0.0358;-0.0252
0000030247;5.9879;-16.1082;1.3623;-0.0063;-0.0350;-0.0216
0000030255;5.9520;-16.1106;1.3815;-0.0151;-0.0312;-0.0167
0000030267;6.0693;-15.9406;1.2426;-0.0141;-0.0345;-0.0204
0000030275;5.9520;-16.1321;1.2402;-0.0139;-0.0338;-0.0213
0000030286;6.0023;-16.0771;1.2953;-0.0192;-0.0388;-0.0199
0000030294;5.9185;-16.1178;1.2163;-0.0242;-0.0318;-0.0181
0000030306;5.9544;-16.1393;1.2761;-0.0262;-0.0336;-0.0167
0000030314;5.8395;-16.2518;1.2929;-0.0250;-0.0326;-0.0204
0000030325;6.1076;-16.2279;1.3695;-0.0208;-0.0278;-0.0193
0000030333;6.1172;-16.0651;1.2689;-0.0196;-0.0305;-0.0191
0000030345;5.8921;-16.1010;1.2641;-0.0204;-0.0288;-0.0168
0000030353;5.8323;-16.1154;1.2929;-0.0324;-0.0250;-0.0171
0000030420;5.9448;-16.1824;1.3216;-0.0542;-0.0309;-0.0120
0000030428;6.1339;-16.1106;1.3312;-0.0532;-0.0317;-0.0101
0000030436;6.0597;-16.0603;1.4030;-0.0485;-0.0377;-0.0169
0000030448;5.9448;-16.1800;1.3072;-0.0540;-0.0390;-0.0147
0000030456;6.0430;-16.1369;1.2737;-0.0529;-0.0402;-0.0127
0000030467;5.9592;-15.9502;1.3096;-0.0669;-0.0332;-0.0111
0000030475;5.8993;-16.0100;1.2857;-0.0731;-0.0340;-0.0171
0000030487;5.8969;-16.2423;1.2330;-0.0803;-0.0308;-0.0177
0000030495;5.8658;-16.2231;1.3001;-0.0809;-0.0317;-0.0149
0000030506;5.9424;-16.3500;1.2905;-0.0755;-0.0277;-0.0119
0000030514;5.8610;-16.2878;1.2258;-0.0566;-0.0326;-0.0129
0000030526;5.9711;-16.2231;1.3072;-0.0418;-0.0338;-0.0096
0000030534;5.7604;-16.3309;1.1779;-0.0317;-0.0414;-0.0121
0000030542;5.9975;-16.1465;1.1827;-0.0276;-0.0440;-0.0109
0000030553;5.9711;-15.9741;1.2067;-0.0341;-0.0432;-0.0096
0000030561;5.8179;-16.1058;1.2546;-0.0450;-0.0372;-0.0097
0000030573;5.9328;-16.0268;1.2737;-0.0558;-0.0432;-0.0101
0000030581;5.8658;-16.1776;1.1516;-0.0578;-0.0461;-0.0128
0000030592;5.7461;-16.2183;1.2402;-0.0594;-0.0473;-0.0089
0000030600;5.9376;-16.3716;1.1947;-0.0572;-0.0489;-0.0037
0000030612;5.8802;-16.2542;1.2737;-0.0436;-0.0520;-0.0087
0000030620;5.8682;-16.3404;1.3838;-0.0306;-0.0533;-0.0099
0000030688;5.7868;-16.3093;1.2809;-0.0536;-0.0394;-0.0100
0000030696;6.0741;-16.1178;1.2115;-0.0598;-0.0384;-0.0109
0000030708;5.9687;-16.1585;1.2809;-0.0608;-0.0385;-0.0080
0000030716;6.1699;-16.1345;1.2881;-0.0622;-0.0400;-0.0093
0000030724;6.0669;-16.0340;1.1947;-0.0629;-0.0389;-0.0128
0000030735;6.0238;-16.1465;1.2546;-0.0642;-0.0370;-0.0151
0000030743;5.8299;-16.3261;1.2330;-0.0719;-0.0422;-0.0129
0000030755;5.8706;-16.2231;1.3024;-0.0681;-0.0421;-0.0139
0000030763;6.0094;-16.0723;1.1516;-0.0718;-0.0408;-0.0115
0000030774;5.8419;-16.1680;1.0582;-0.0658;-0.0441;-0.0136
0000030782;5.9472;-16.2447;1.1372;-0.0682;-0.0386;-0.0117
0000030794;5.9424;-16.3165;1.1444;-0.0605;-0.0426;-0.0149
0000030802;6.0741;-16.2159;1.1540;-0.0581;-0.0356;-0.0123
0000030813;5.9376;-16.2566;1.1660;-0.0512;-0.0436;-0.0183
0000030821;5.9233;-16.2135;1.0630;-0.0497;-0.0362;-0.0157
0000030833;6.0908;-16.0028;1.2163;-0.0472;-0.0377;-0.0236
0000030841;5.8538;-16.3309;1.1444;-0.0525;-0.0322;-0.0171
0000030849;5.8969;-16.1202;1.0678;-0.0585;-0.0300;-0.0173
0000030860;5.9783;-15.9167;1.2474;-0.0504;-0.0394;-0.0225
0000030868;5.8107;-16.2662;1.1253;-0.0520;-0.0228;-0.0217
0000030880;5.8802;-16.2901;0.8380;-0.0445;-0.0132;-0.0300
0000030888;5.9089;-16.6229;1.0367;-0.0382;-0.0252;-0.0340
0000030956;6.0741;-16.3380;1.3264;0.2290;-0.0412;-0.0264
0000030964;6.0047;-16.1561;0.9457;0.2152;-0.0282;-0.0405
0000030976;6.0956;-16.0555;0.9074;0.1913;-0.0121;-0.0454
0000030984;6.1148;-16.1178;0.8835;0.1877;0.0037;-0.0313
0000030995;6.2991;-16.2423;0.8643;0.2300;0.0196;-0.0052
0000031003;5.9687;-16.8265;1.1109;0.2807;0.0131;0.0173
0000031011;6.0885;-16.8241;1.1492;0.3368;0.0193;0.0422
0000031023;5.8586;-17.2311;1.0989;0.4130;0.0222;0.0590
0000031031;6.0382;-17.2023;1.0918;0.4592;0.0167;0.0601
0000031042;5.8395;-17.1066;1.1325;0.4950;0.0067;0.0432
0000031050;5.9831;-16.8336;1.0534;0.5119;-0.0024;0.0298
0000031062;5.5857;-16.7618;0.8906;0.5332;-0.0258;0.0035
0000031070;5.7916;-16.4482;0.8452;0.5388;-0.0442;-0.0125
0000031081;5.6910;-16.2447;1.0127;0.5413;-0.0618;0.0033
0000031089;5.7988;-16.2925;1.0056;0.5435;-0.0620;0.0175
0000031097;5.7174;-16.4530;1.0151;0.5465;-0.0667;0.0392
0000031109;5.8634;-16.4649;1.0654;0.5736;-0.0807;0.0506
0000031117;5.8873;-16.4769;1.0463;0.5903;-0.0866;0.0517
0000031128;5.9616;-16.3213;1.0223;0.6115;-0.0838;0.0449
0000031136;5.8395;-16.4075;1.0582;0.6149;-0.0771;0.0366
0000031148;5.6503;-16.4506;1.1037;0.6170;-0.0693;0.0222
0000031156;5.8658;-16.3309;1.1109;0.6183;-0.0610;0.0203
0000031224;5.9017;-16.3165;1.7334;0.6753;-0.0212;-0.0083
0000031232;6.1818;-16.1561;1.8579;0.6695;-0.0177;-0.0055
0000031240;6.1004;-16.1010;1.8675;0.6724;-0.0209;-0.0059
0000031252;6.2417;-16.0316;1.8842;0.6515;-0.0141;0.0088
0000031260;6.2177;-16.1968;2.0303;0.6508;-0.0169;0.0160
0000031271;6.2177;-16.2375;2.3583;0.6632;-0.0197;0.0196
0000031279;5.8993;-16.4817;2.4325;0.6875;-0.0226;0.0232
0000031291;5.9161;-16.5679;2.6647;0.7433;-0.0246;0.0284
0000031299;5.8849;-16.5344;2.6815;0.7906;-0.0298;0.0257
0000031310;6.0597;-16.3979;2.7533;0.8492;-0.0289;0.0308
0000031318;5.8754;-16.4721;2.8299;0.8915;-0.0416;0.0218
0000031326;5.6934;-16.3332;2.7892;0.9160;-0.0452;0.0212
0000031338;5.4899;-16.1800;2.8443;0.9465;-0.0642;0.0181
0000031346;5.7628;-15.8760;2.8659;0.9709;-0.0765;0.0136
0000031357;5.6719;-16.1082;2.7605;0.9785;-0.0878;0.0171
0000031365;5.7126;-16.0914;2.7438;0.9904;-0.0877;0.0309
0000031377;5.8802;-16.2087;3.3375;1.0383;-0.0955;0.0389
0000031385;5.8203;-16.4697;3.5961;1.0680;-0.0789;0.0400
0000031396;5.9424;-16.6708;3.3758;1.1210;-0.0659;0.0433
0000031404;5.9256;-16.7043;3.4740;1.1600;-0.0538;0.0446
0000031416;6.0956;-16.4649;3.5458;1.2100;-0.0270;0.0246
0000031424;6.0908;-16.3380;3.6392;1.2636;-0.0137;0.0127
0000031432;5.9256;-16.1082;3.8164;1.2938;0.0076;0.0109
0000031500;5.3439;-14.5783;4.3934;1.1644;-0.1298;0.0809
0000031508;5.2864;-14.7219;4.3144;1.1082;-0.1442;0.0951
0000031520;5.2720;-14.9781;4.2282;1.0573;-0.1680;0.1029
0000031528;5.4516;-14.8225;4.4245;1.0327;-0.1764;0.1037
0000031540;5.5929;-14.8848;4.4652;1.0008;-0.1639;0.1001
0000031548;5.7461;-14.9255;4.5873;0.9938;-0.1494;0.0933
0000031560;5.9592;-15.1361;4.9321;0.9968;-0.1055;0.0946
0000031568;6.2704;-15.0595;5.1739;1.0227;-0.0678;0.0942
0000031576;6.2608;-15.1744;5.3103;1.0608;-0.0332;0.0830
0000031588;6.1914;-15.1505;5.9089;1.0933;0.0306;0.0701
0000031596;6.2584;-14.9925;6.0885;1.1141;0.0546;0.0421
0000031608;5.9376;-15.0595;6.2680;1.1221;0.0679;0.0135
0000031616;5.6527;-14.9326;6.1842;1.1158;0.0460;-0.0019
0000031628;5.8059;-14.4801;5.9328;1.0865;0.0016;0.0117
0000031636;6.0190;-14.0276;5.5881;1.0493;-0.0168;0.0424
0000031644;6.0741;-13.7475;5.5067;0.9996;-0.0278;0.0725
0000031655;6.3303;-13.4243;5.3726;0.9248;-0.0429;0.1054
0000031663;6.3303;-13.4650;5.4253;0.8788;-0.0520;0.1174
0000031675;6.5290;-13.9151;5.6838;0.8370;-0.0406;0.1073
0000031683;6.3829;-14.3915;5.8778;0.8557;-0.0328;0.0866
0000031751;6.6152;-12.6988;5.8155;0.9498;0.0661;0.0196
0000031759;6.5817;-12.4882;5.8131;0.9098;0.0794;0.0478
0000031771;6.2010;-12.5313;5.8371;0.8652;0.0867;0.0819
0000031779;6.1818;-12.3948;5.8395;0.8484;0.0809;0.0919
0000031787;5.9592;-12.5336;5.9113;0.8348;0.0762;0.0963
0000031799;5.8299;-12.9766;6.1004;0.8298;0.0645;0.0813
0000031807;5.8706;-13.2112;6.0980;0.8390;0.0681;0.0779
0000031819;5.7748;-13.3573;5.9424;0.8659;0.0723;0.0602
0000031827;6.0573;-13.1968;5.9209;0.8767;0.0933;0.0525
0000031839;6.5290;-12.8712;6.0238;0.8986;0.1200;0.0333
0000031847;6.3087;-12.8305;6.0741;0.9052;0.1396;0.0224
0000031859;6.3446;-12.5576;6.2153;0.8968;0.1631;0.0163
0000031867;6.0262;-12.6270;6.1794;0.8986;0.1765;0.0199
0000031875;6.1100;-12.5600;6.0621;0.8907;0.1940;0.0254
0000031887;5.9328;-12.4834;6.2082;0.8915;0.2048;0.0274
0000031895;5.9185;-12.4810;6.2369;0.8917;0.2012;0.0196
0000031907;5.7820;-12.7802;6.3734;0.8889;0.1899;0.0156
0000031915;5.4636;-12.8976;6.4715;0.8996;0.1745;0.0120
0000031927;5.4971;-12.9095;6.3805;0.9172;0.1474;0.0145
0000031935;5.4971;-12.7707;6.5003;0.9316;0.1282;0.0201
0000031943;5.5091;-12.7491;6.2848;0.9526;0.1187;0.0285
0000031955;5.7341;-12.5265;6.5697;0.9606;0.1198;0.0474
0000031963;5.6479;-12.5049;6.5553;0.9593;0.1320;0.0554
0000032031;5.3941;-13.1298;7.1730;1.0515;0.2395;-0.0068
0000032039;5.2553;-13.0292;6.9935;1.0844;0.2108;-0.0091
0000032051;5.1643;-12.9191;7.1132;1.1061;0.1701;0.0009
0000032059;5.1811;-12.7779;7.1970;1.1171;0.1490;0.0143
0000032071;5.4420;-12.8042;7.1108;1.1319;0.1286;0.0272
0000032079;5.5857;-12.8808;7.2808;1.1359;0.1182;0.0328
0000032087;5.9304;-13.0197;7.3334;1.1449;0.1267;0.0389
0000032099;6.0597;-13.2136;7.2042;1.1846;0.1495;0.0288
0000032107;6.1100;-13.4746;7.1730;1.2032;0.1655;0.0184
0000032119;6.3231;-13.4913;7.0485;1.2489;0.1925;-0.0072
0000032127;6.2393;-13.4339;6.7780;1.2769;0.2150;-0.0272
0000032139;6.5314;-13.4339;6.5864;1.3210;0.2437;-0.0361
0000032147;6.7133;-13.3980;6.5074;1.3483;0.2661;-0.0349
0000032158;6.8833;-13.2830;6.4715;1.4000;0.3128;-0.0270
0000032166;7.1515;-13.2184;6.4883;1.4284;0.3596;-0.0109
0000032174;7.1970;-13.2375;6.3710;1.4482;0.4066;0.0037
0000032186;7.2042;-13.2735;6.3614;1.4887;0.4579;-0.0025
0000032194;7.4101;-13.3022;6.0238;1.5026;0.5065;-0.0064
0000032206;7.4962;-13.4315;5.7940;1.5375;0.5660;-0.0246
0000032214;7.5202;-13.4410;5.5522;1.5477;0.6046;-0.0308
0000032226;7.7812;-13.3429;5.0182;1.5767;0.6731;-0.0402
0000032234;7.7285;-13.3477;4.6040;1.5997;0.7096;-0.0405
0000032302;8.0206;-11.0612;1.1995;1.7559;1.1778;-0.0097
0000032310;7.9176;-10.8888;2.4134;1.7563;1.2331;-0.0278
0000032318;7.8985;-10.6255;5.7054;1.8409;1.2697;-0.0445
0000032330;6.9959;-11.5185;13.1178;2.1882;1.1911;-0.0085
0000032338;5.5857;-13.1106;16.9533;2.5655;1.0953;0.0629
0000032350;0.3663;-17.2383;14.7243;3.2085;0.9603;0.3329
0000032358;-4.8339;-17.2598;8.9807;3.4949;0.7570;0.6049
0000032370;-10.5129;-11.9183;9.2871;3.7621;0.0159;0.6840
0000032378;-11.8393;-7.4508;11.2599;3.8562;-0.5982;0.5236
0000032390;-10.8338;-1.4269;14.4562;3.9564;-1.5216;0.3469
0000032398;-8.2025;1.5275;14.6717;3.7032;-1.9661;0.3645
0000032406;-3.1244;2.5881;12.8497;3.2182;-2.2179;0.5149
0000032418;5.9089;0.5363;7.1323;2.5050;-2.1534;0.6841
0000032426;9.8617;-2.1045;3.4979;2.2531;-1.7531;0.6121
0000032438;10.8194;-6.5194;-0.8068;2.1322;-1.2261;0.4298
0000032446;10.4363;-7.9464;-2.6097;2.1571;-0.9646;0.3556
0000032458;10.9990;-8.5401;-3.2513;2.3697;-0.3897;0.1962
0000032466;11.1306;-8.8753;-4.4772;2.7476;0.1075;0.1092
0000032478;11.7029;-9.0453;-5.0949;3.7906;1.0740;0.0169
0000032486;12.9814;-7.7261;-3.8116;4.3656;1.5469;0.0938
0000032494;18.5503;-2.4157;5.0063;4.3656;1.4713;0.4882
0000032506;22.5294;9.3613;13.7236;3.3609;-0.0524;1.8478
0000032514;14.0707;13.1346;11.2360;2.5567;-0.0925;1.6250
0000032583;1.5179;7.5968;-1.9249;-2.5050;-2.4090;-4.3657
0000032592;3.6057;6.9049;-2.6288;-2.8113;-1.0468;-4.3657
0000032605;6.7971;8.3151;-0.2897;-1.9626;1.4388;-2.9653
0000032614;8.1786;7.1874;0.5914;-1.4217;2.5456;-1.7786
0000032627;8.6574;3.4620;0.4477;-1.1667;3.4796;-0.7790
0000032636;7.8817;0.8739;-0.2945;-1.2260;3.8039;-0.4780
0000032645;7.0461;-1.1995;-0.7470;-1.4838;3.9528;-0.4656
0000032658;5.6719;-2.8898;-1.7262;-2.2763;4.1901;-0.8378
0000032667;4.3958;-3.7421;-1.1660;-3.1554;4.2194;-1.2408
0000032680;3.6775;-5.7461;-1.2210;-4.3657;3.8035;-1.6331
0000032689;2.9568;-6.4620;-0.1891;-4.3657;3.4907;-1.8385
0000032702;1.4485;-8.0972;1.3743;-4.3657;3.3989;-2.0828
0000032711;0.3831;-9.4619;2.0159;-4.3657;3.5325;-2.1827
0000032724;-1.2761;-11.0564;2.7054;-3.4478;4.0486;-2.2207
0000032733;-2.1380;-11.9255;3.2537;-2.1200;4.3656;-2.1245
0000032746;-4.1779;-12.7012;4.6878;-0.1760;4.3656;-1.9871
0000032755;-6.8259;-13.0029;8.0373;1.0412;4.3656;-1.7681
0000032764;-12.2631;-11.4946;12.2032;1.5155;4.3656;-1.5725
0000032777;-29.7216;-8.6742;16.2734;-1.4931;4.3656;-1.0841
0000032786;-38.3886;-10.2472;4.4700;-2.2789;3.3200;-0.8123
0000032799;-45.4156;-8.7915;2.0758;-0.7382;2.1020;-1.2187
0000032808;-39.6360;-6.0142;1.9178;0.5490;1.8369;-1.3871
0000032877;1.3168;-7.4986;-3.1436;0.8915;-0.2633;0.8621
0000032886;1.7885;-8.3031;-3.9217;0.9641;0.3758;0.8286
0000032899;2.4086;-8.8155;-4.6663;0.7388;0.9786;0.5336
0000032908;2.1811;-9.0621;-4.7142;0.3564;1.0704;0.1603
0000032921;2.3032;-8.7077;-4.3311;-0.3301;0.8934;-0.5404
0000032930;2.3655;-8.2935;-4.0941;-0.7408;0.6828;-1.0734
0000032939;1.5107;-7.9703;-3.3136;-1.0320;0.4996;-1.6309
0000032952;-0.1772;-7.8578;-2.5953;-1.5188;0.4830;-2.1437
0000032961;-2.1691;-7.9224;-1.2905;-1.9842;0.8029;-2.2062
0000032974;-5.6048;-8.2384;0.3041;-2.8406;1.6510;-1.9660
0000032983;-7.5896;-8.5210;1.7190;-3.1483;2.1110;-1.5568
0000032996;-8.8083;-8.3893;5.5545;-2.9961;2.3851;-0.7597
0000033005;-9.0836;-8.4156;9.5146;-2.4880;1.9765;-0.2168
0000033021;-8.9160;-10.8457;10.1610;-0.6907;0.2268;0.5510
0000033030;-8.1954;-11.6885;6.3135;0.2418;-0.5518;0.7437
0000033043;-8.0589;-11.5065;2.5091;0.8211;-1.1169;0.7562
0000033052;-7.9703;-11.3461;0.8188;0.7288;-1.2255;0.6352
0000033061;-7.3263;-11.1139;0.0551;0.4319;-1.2337;0.4716
0000033073;-5.9089;-10.8745;-0.1748;0.0104;-1.2183;0.3116
0000033082;-4.6376;-10.5345;0.3663;-0.1935;-1.2191;0.2665
0000033151;-2.3990;-9.2703;3.2250;0.2348;-1.3729;0.4703
0000033160;-2.3966;-9.2799;3.1436;0.1761;-1.3133;0.4242
0000033172;-2.2625;-8.9543;3.4333;0.1422;-1.2493;0.3653
0000033181;-2.0135;-8.7532;3.7206;0.1764;-1.1954;0.3383
0000033194;-1.5682;-8.3965;4.0869;0.2801;-1.1259;0.3190
0000033203;-1.3144;-8.3342;4.1563;0.3532;-1.0497;0.3216
0000033212;-1.0487;-7.9057;4.2521;0.3922;-0.9661;0.3155
0000033224;-0.8021;-7.4579;4.1515;0.3481;-0.8769;0.2982
0000033233;-0.8068;-7.2760;3.8403;0.2787;-0.8300;0.2777
0000033246;-1.0127;-7.3023;3.5841;0.1857;-0.7313;0.2594
0000033255;-1.5203;-7.4627;3.5602;0.1480;-0.6151;0.2531
0000033267;-1.8076;-7.2496;3.8403;0.1073;-0.4354;0.2455
0000033276;-2.2505;-7.1060;4.5394;0.0739;-0.3271;0.2266
0000033289;-2.1955;-6.5290;5.3151;-0.0268;-0.2723;0.1848
0000033298;-2.5331;-6.4739;5.8442;-0.0906;-0.2934;0.1627
0000033310;-2.4469;-6.5841;5.9233;-0.1025;-0.3608;0.1679
0000033319;-2.4565;-6.7756;5.7437;-0.0481;-0.4130;0.1948
0000033328;-2.4014;-6.9288;5.7724;0.0160;-0.4226;0.2196
0000033341;-1.7909;-6.9935;5.6455;0.0418;-0.4073;0.2389
0000033350;-1.6305;-7.1084;5.4061;0.0418;-0.4000;0.2153
0000033362;-1.0678;-6.9168;5.3846;0.0140;-0.3343;0.1771
0000033371;-1.2857;-6.9312;5.4372;-0.0089;-0.2721;0.1427
0000033440;-1.7909;-6.8522;5.0757;-0.0649;-0.1247;0.0068
0000033449;-1.8148;-6.9983;5.0518;-0.0604;-0.0897;-0.0128
0000033461;-1.6927;-7.0581;4.9656;-0.0722;-0.0217;-0.0334
0000033470;-1.7190;-7.2544;5.0135;-0.0894;0.0257;-0.0384
0000033479;-1.8316;-7.3813;4.9991;-0.0941;0.0550;-0.0585
0000033492;-1.9776;-7.6447;4.8698;-0.1055;0.0925;-0.0705
0000033501;-1.9345;-7.6519;4.6926;-0.1014;0.1116;-0.0675
0000033513;-2.1907;-7.8985;4.6711;-0.0775;0.1226;-0.0698
0000033522;-2.2745;-7.9583;4.8267;-0.0830;0.1463;-0.0605
0000033535;-2.4541;-7.9918;5.0302;-0.0729;0.1323;-0.0659
0000033544;-2.6145;-7.8458;4.8746;-0.0542;0.1007;-0.0541
0000033556;-2.6193;-7.8482;4.8602;-0.0115;0.0681;-0.0601
0000033565;-2.8084;-7.8530;4.6448;0.0085;0.0505;-0.0452
0000033578;-2.4565;-7.5776;4.4293;0.0224;0.0276;-0.0436
0000033587;-2.4660;-7.4747;4.5011;0.0191;0.0266;-0.0461
0000033596;-2.4062;-7.4268;4.4580;0.0079;0.0353;-0.0388
0000033608;-2.2482;-7.3215;4.4963;0.0120;0.0429;-0.0290
0000033617;-2.2817;-7.4508;4.4317;0.0089;0.0393;-0.0244
0000033630;-2.6025;-7.4292;4.4101;-0.0016;0.0266;-0.0290
0000033639;-2.4373;-7.2185;4.3670;-0.0063;0.0117;-0.0240
0000033651;-2.6767;-7.2856;4.5107;-0.0168;0.0083;-0.0184
0000033660;-2.6600;-7.4699;4.6184;-0.0172;-0.0019;-0.0139
0000033728;-2.2960;-7.5585;4.6519;0.0097;-0.0861;0.0143
0000033737;-2.2601;-7.6088;4.6256;0.0065;-0.0817;0.0141
0000033746;-2.0135;-7.4579;4.7190;0.0270;-0.0738;0.0147
0000033758;-2.3320;-7.4939;4.8698;0.0308;-0.0729;0.0119
0000033767;-2.3798;-7.3813;4.8914;0.0336;-0.0807;0.0104
0000033780;-2.4421;-7.3167;4.8698;0.0369;-0.0927;0.0047
0000033789;-2.3631;-7.1730;4.7788;0.0306;-0.0873;0.0069
0000033801;-2.5881;-7.3239;4.7285;0.0240;-0.0815;0.0012
0000033810;-2.5067;-7.3909;4.6831;0.0136;-0.0881;-0.0044
0000033823;-2.2003;-7.1970;4.6783;0.0132;-0.0795;-0.0033
0000033832;-2.5019;-7.6231;4.6448;0.0191;-0.0823;-0.0023
0000033844;-2.2194;-7.3717;4.5945;0.0165;-0.0671;-0.0032
0000033853;-2.2601;-7.3023;4.6711;0.0224;-0.0637;-0.0081
0000033862;-2.2745;-7.3789;4.7357;0.0163;-0.0481;-0.0133
0000033875;-2.2146;-7.3598;4.8435;0.0120;-0.0433;-0.0173
0000033884;-2.0877;-7.2712;4.7740;0.0067;-0.0421;-0.0136
0000033896;-2.2601;-7.3191;4.6998;0.0105;-0.0392;-0.0056
0000033905;-2.1021;-7.1347;4.7597;0.0173;-0.0484;-0.0097
0000033918;-2.3774;-7.3981;4.7022;0.0149;-0.0441;-0.0065
0000033927;-2.4541;-7.4412;4.7046;0.0075;-0.0436;-0.0195
0000033939;-2.2482;-7.4579;4.7262;-0.0025;-0.0422;-0.0193
0000033948;-2.2410;-7.3191;4.7669;-0.0057;-0.0432;-0.0230
0000034017;-2.1237;-7.2520;4.5825;-0.0033;-0.0421;-0.0101
0000034026;-2.3367;-7.2999;4.7429;0.0027;-0.0468;-0.0105
0000034035;-2.2194;-7.1994;4.6902;0.0040;-0.0478;-0.0092
0000034047;-2.4636;-7.3478;4.7381;0.0060;-0.0560;-0.0127
0000034056;-2.4134;-7.2544;4.6759;0.0104;-0.0546;-0.0116
0000034069;-2.3272;-7.3550;4.6783;0.0041;-0.0449;-0.0048
0000034078;-2.3439;-7.4699;4.7309;-0.0028;-0.0410;-0.0029
0000034090;-2.4636;-7.4651;4.8507;0.0048;-0.0492;0.0020
0000034099;-2.3631;-7.4579;4.8818;0.0116;-0.0460;0.0115
0000034112;-2.2362;-7.2975;4.8411;0.0245;-0.0584;0.0029
0000034121;-2.1763;-7.4148;4.9009;0.0353;-0.0697;-0.0019
0000034133;-2.1308;-7.2903;4.6160;0.0384;-0.0673;-0.0083
0000034142;-2.0542;-7.2281;4.6759;0.0317;-0.0469;-0.0051
0000034151;-2.1739;-7.2425;4.7357;0.0203;-0.0408;-0.0108
0000034164;-2.2625;-7.2305;4.7429;-0.0057;-0.0316;-0.0137
0000034173;-2.2122;-7.2161;4.7788;-0.0250;-0.0265;-0.0060
0000034185;-2.0853;-7.2329;4.7764;-0.0373;-0.0270;-0.0129
0000034194;-2.1380;-7.1970;4.8171;-0.0516;-0.0224;-0.0149
0000034207;-2.2051;-7.3933;4.6639;-0.0610;-0.0137;-0.0201
0000034216;-1.9609;-7.4148;4.6855;-0.0600;-0.0163;-0.0181
0000034228;-2.1691;-7.4651;4.6807;-0.0649;-0.0019;-0.0207
0000034237;-2.2745;-7.3813;4.7573;-0.0640;0.0093;-0.0116
0000034306;-2.3367;-7.4508;4.6040;-0.0240;-0.0240;-0.0152
0000034315;-2.3391;-7.2880;4.5729;-0.0416;-0.0088;-0.0073
0000034324;-2.3918;-7.4148;4.6424;-0.0485;-0.0155;-0.0137
0000034336;-2.3583;-7.3143;4.6711;-0.0520;-0.0159;-0.0177
0000034345;-2.3727;-7.4843;4.6663;-0.0448;-0.0224;-0.0145
0000034358;-2.3463;-7.4053;4.7381;-0.0381;-0.0147;-0.0147
0000034367;-2.4732;-7.4627;4.7764;-0.0349;-0.0152;-0.0120
0000034379;-2.3463;-7.5106;4.7884;-0.0322;-0.0172;-0.0048
0000034388;-2.1045;-7.4819;4.7549;-0.0245;-0.0218;-0.0132
0000034401;-2.2769;-7.3215;4.7669;-0.0244;-0.0211;-0.0069
0000034410;-2.1524;-7.3047;4.7262;-0.0262;-0.0228;-0.0125
0000034422;-2.3774;-7.2520;4.7166;-0.0321;-0.0160;-0.0112
0000034431;-2.2865;-7.3454;4.6902;-0.0374;-0.0176;-0.0131
0000034444;-2.2362;-7.3502;4.7262;-0.0385;-0.0112;-0.0173
0000034453;-2.2649;-7.2257;4.7381;-0.0393;-0.0160;-0.0141
0000034462;-2.3607;-7.3717;4.7238;-0.0404;-0.0218;-0.0153
0000034473;-2.4636;-7.4795;4.6448;-0.0310;-0.0278;-0.0095
0000034482;-2.3296;-7.3694;4.5897;-0.0278;-0.0328;-0.0109
0000034496;-2.4972;-7.4843;4.6136;-0.0262;-0.0224;-0.0025
0000034505;-2.2697;-7.2927;4.6639;-0.0316;-0.0153;-0.0048
0000034574;-2.2434;-7.4699;4.6376;-0.0477;-0.0289;0.0061
0000034583;-2.2697;-7.4939;4.5801;-0.0496;-0.0167;0.0061
0000034595;-2.2529;-7.5298;4.5993;-0.0369;0.0013;-0.0012
0000034604;-2.2960;-7.5585;4.6543;-0.0284;0.0028;-0.0128
0000034617;-2.3750;-7.4316;4.6807;-0.0346;0.0079;-0.0175
0000034626;-2.6121;-7.6399;4.6184;-0.0340;0.0044;-0.0205
0000034635;-2.4301;-7.3741;4.6831;-0.0322;0.0020;-0.0203
0000034647;-2.4229;-7.4986;4.5849;-0.0373;0.0096;-0.0124
0000034656;-2.3296;-7.4268;4.5849;-0.0481;0.0119;-0.0095
0000034669;-2.4732;-7.4220;4.6400;-0.0546;0.0175;-0.0071
0000034678;-2.3176;-7.2712;4.6256;-0.0546;0.0091;-0.0099
0000034690;-2.4924;-7.3430;4.7333;-0.0566;0.0008;-0.0135
0000034699;-2.5929;-7.3598;4.7429;-0.0557;-0.0067;-0.0115
0000034712;-2.7605;-7.4627;4.7525;-0.0452;-0.0258;-0.0020
0000034721;-2.6193;-7.4579;4.6926;-0.0434;-0.0322;0.0013
0000034733;-2.5786;-7.4484;4.6639;-0.0384;-0.0464;0.0047
0000034742;-2.3703;-7.3717;4.5825;-0.0345;-0.0476;0.0083
0000034751;-2.4157;-7.4867;4.6208;-0.0312;-0.0492;0.0059
0000034764;-2.3008;-7.5896;4.5394;-0.0277;-0.0424;0.0007
0000034773;-2.3080;-7.4962;4.5801;-0.0233;-0.0330;-0.0047
0000034785;-2.2960;-7.3550;4.5514;-0.0258;-0.0168;-0.0056
0000034794;-2.2434;-7.4053;4.6256;-0.0320;-0.0059;-0.0109
0000034863;-2.5498;-7.4771;4.7166;-0.0211;-0.0337;0.0003
0000034872;-2.2075;-7.3406;4.6855;-0.0093;-0.0437;-0.0055
0000034884;-2.2434;-7.3861;4.7597;-0.0089;-0.0386;-0.0045
0000034893;-2.3535;-7.3861;4.6759;-0.0052;-0.0358;-0.0013
0000034906;-2.3104;-7.1994;4.6448;-0.0160;-0.0320;-0.0071
0000034915;-2.3655;-7.4005;4.5562;-0.0237;-0.0328;-0.0120
0000034927;-2.4780;-7.4172;4.5059;-0.0354;-0.0281;-0.0063
0000034936;-2.3727;-7.3454;4.5945;-0.0417;-0.0284;-0.0007
0000034945;-2.4086;-7.5082;4.6376;-0.0320;-0.0277;0.0015
0000034958;-2.3822;-7.4268;4.6352;-0.0274;-0.0352;0.0028
0000034967;-2.3727;-7.4867;4.6615;-0.0101;-0.0397;-0.0063
0000034979;-2.2386;-7.3598;4.5681;-0.0021;-0.0394;-0.0028
0000034988;-2.1787;-7.2664;4.6711;0.0012;-0.0465;-0.0144
0000035001;-2.3822;-7.4627;4.5993;0.0000;-0.0418;-0.0127
0000035010;-2.2745;-7.4029;4.5538;0.0033;-0.0381;-0.0155
0000035022;-2.5259;-7.5082;4.4748;0.0009;-0.0366;-0.0216
0000035031;-2.4469;-7.4723;4.6878;0.0065;-0.0316;-0.0121
0000035044;-2.3631;-7.3502;4.6112;0.0175;-0.0388;-0.0212
0000035053;-2.5043;-7.3837;4.6807;0.0258;-0.0333;-0.0159
0000035062;-2.5618;-7.4627;4.6088;0.0297;-0.0485;-0.0277
0000035074;-2.2817;-7.1491;4.6639;0.0253;-0.0440;-0.0216
0000035083;-2.5283;-7.3191;4.6543;0.0220;-0.0513;-0.0218
0000035152;-2.3870;-7.5633;4.7357;-0.0148;-0.0425;-0.0147
0000035161;-2.4181;-7.4101;4.7453;-0.0148;-0.0393;-0.0067
0000035173;-2.4612;-7.4340;4.7381;-0.0116;-0.0428;-0.0063
0000035182;-2.5211;-7.3717;4.6639;-0.0103;-0.0508;-0.0045
0000035195;-2.4421;-7.2568;4.6543;-0.0099;-0.0485;-0.0027
0000035204;-2.4948;-7.2425;4.6328;-0.0120;-0.0484;-0.0021
0000035216;-2.4421;-7.2688;4.6902;-0.0137;-0.0594;-0.0035
0000035225;-2.5187;-7.3502;4.5657;-0.0228;-0.0556;0.0008
0000035234;-2.2529;-7.3143;4.6831;-0.0191;-0.0568;0.0017
0000035247;-2.3607;-7.3358;4.6855;-0.0079;-0.0612;-0.0021
0000035256;-2.4972;-7.6160;4.5777;0.0020;-0.0594;-0.0065
0000035268;-2.4373;-7.5226;4.6759;0.0067;-0.0573;-0.0087
0000035277;-2.3391;-7.4340;4.6304;0.0145;-0.0609;-0.0117
0000035290;-2.5426;-7.4555;4.6807;0.0300;-0.0677;-0.0172
0000035299;-2.4086;-7.2281;4.6783;0.0369;-0.0766;-0.0168
0000035311;-2.4828;-7.3454;4.6184;0.0389;-0.0887;-0.0185
0000035320;-2.4924;-7.5585;4.5466;0.0353;-0.1013;-0.0308
0000035333;-2.3703;-7.3813;4.6040;0.0213;-0.0985;-0.0354
0000035342;-2.5666;-7.5753;4.5825;0.0084;-0.0825;-0.0392
0000035351;-2.2577;-7.3430;4.6591;0.0104;-0.0834;-0.0464
0000035363;-2.2913;-7.4124;4.7549;0.0137;-0.0762;-0.0372
0000035372;-2.3655;-7.4220;4.7549;0.0177;-0.0770;-0.0252
0000035441;-2.3966;-7.1635;4.6974;0.0545;-0.1025;-0.0032
0000035450;-2.4349;-7.1323;4.7285;0.0426;-0.1037;-0.0023
0000035462;-2.3104;-7.2496;4.7812;0.0248;-0.1014;0.0063
0000035471;-2.2960;-7.3478;4.7549;0.0155;-0.1001;0.0149
0000035484;-2.1237;-7.3358;4.9344;0.0137;-0.1034;0.0105
0000035493;-2.2817;-7.3047;4.9273;0.0084;-0.0979;0.0245
0000035505;-2.4181;-7.4555;4.9608;0.0208;-0.1135;0.0141
0000035514;-2.3798;-7.4148;4.9416;0.0282;-0.1190;0.0179
0000035523;-2.1955;-7.3047;4.8459;0.0452;-0.1155;0.0187
0000035536;-2.2625;-7.2042;4.8028;0.0578;-0.1067;0.0108
0000035545;-2.1859;-7.1012;4.7908;0.0478;-0.0882;0.0080
0000035557;-2.3415;-7.3909;4.6807;0.0301;-0.0754;0.0040
0000035566;-2.2194;-7.3239;4.5897;0.0189;-0.0504;0.0108
0000035579;-2.1261;-7.2233;4.7094;-0.0011;-0.0316;0.0072
0000035588;-2.1189;-7.2520;4.7501;-0.0141;-0.0294;-0.0048
0000035600;-2.1715;-7.1635;4.7860;-0.0253;-0.0318;-0.0089
0000035609;-2.4445;-7.3909;4.7860;-0.0276;-0.0261;-0.0061
0000035618;-2.4565;-7.3382;4.8052;-0.0147;-0.0360;-0.0107
0000035631;-2.4493;-7.2281;4.8435;-0.0052;-0.0530;-0.0103
0000035640;-2.6528;-7.5130;4.9321;0.0005;-0.0552;-0.0065
0000035652;-2.5666;-7.4962;4.9177;0.0056;-0.0642;-0.0027
0000035661;-2.2386;-7.1036;4.8100;0.0124;-0.0755;-0.0081
0000035730;-2.2529;-7.3765;4.8698;0.0191;-0.0626;-0.0099
0000035739;-2.4541;-7.3598;4.8890;0.0226;-0.0620;-0.0091
0000035751;-2.4421;-7.3430;5.0063;0.0342;-0.0763;-0.0119
0000035760;-2.2482;-7.2353;4.9009;0.0476;-0.0927;-0.0153
0000035773;-2.5618;-7.3550;4.7429;0.0500;-0.0971;-0.0092
0000035782;-2.2817;-7.1635;4.8004;0.0434;-0.0829;0.0027
0000035791;-2.4110;-7.1443;4.8004;0.0344;-0.0773;0.0064
0000035803;-2.1931;-7.1275;4.8530;0.0185;-0.0758;0.0055
0000035812;-2.0925;-7.0749;4.9129;0.0120;-0.0669;0.0063
0000035825;-2.0423;-7.0246;4.8435;0.0052;-0.0646;0.0063
0000035834;-2.1787;-7.3095;4.9105;0.0008;-0.0642;0.0081
0000035846;-2.0925;-7.2137;4.7908;-0.0079;-0.0545;0.0040
0000035855;-2.0806;-7.2161;4.7884;-0.0037;-0.0501;-0.0048
0000035868;-2.2338;-7.3957;4.8123;-0.0097;-0.0372;-0.0088
0000035877;-2.2410;-7.3909;4.9440;-0.0089;-0.0302;-0.0149
0000035889;-2.2936;-7.2137;5.0230;0.0056;-0.0380;-0.0233
0000035898;-2.2625;-7.2018;4.8339;0.0016;-0.0352;-0.0151
0000035907;-2.2122;-7.1084;4.9512;-0.0007;-0.0392;-0.0132
0000035921;-2.4014;-7.2808;4.8291;-0.0169;-0.0273;-0.0147
0000035930;-2.2721;-7.1491;4.8267;-0.0306;-0.0191;-0.0176
0000035943;-2.1237;-7.0557;4.7956;-0.0472;-0.0101;-0.0171
0000035952;-2.2793;-7.2520;4.8387;-0.0392;-0.0104;-0.0144
0000036022;-2.2577;-7.3454;4.8267;-0.0244;-0.0140;-0.0204
0000036031;-2.1261;-7.2449;4.7908;-0.0320;-0.0085;-0.0132
0000036044;-2.3128;-7.3430;4.7573;-0.0330;-0.0041;-0.0115
0000036053;-2.2314;-7.3215;4.8554;-0.0378;-0.0029;-0.0107
0000036065;-2.2098;-7.3023;4.7573;-0.0444;-0.0016;-0.0133
0000036074;-2.2266;-7.2425;4.8004;-0.0466;-0.0011;-0.0152
0000036087;-2.3607;-7.2592;4.9033;-0.0556;0.0097;-0.0125
0000036096;-2.2960;-7.1491;4.8578;-0.0526;0.0001;-0.0193
0000036105;-2.3607;-7.2401;4.8507;-0.0466;-0.0079;-0.0205
0000036117;-2.3391;-7.0557;4.9847;-0.0300;-0.0207;-0.0129
0000036126;-2.4181;-7.2736;4.8459;-0.0155;-0.0382;-0.0169
0000036139;-2.1644;-7.0581;4.7669;-0.0221;-0.0398;-0.0176
0000036148;-2.0901;-7.0964;4.6831;-0.0350;-0.0250;-0.0128
0000036160;-2.0686;-7.2880;4.7285;-0.0434;-0.0136;-0.0148
0000036169;-1.9632;-7.2113;4.7549;-0.0558;0.0027;-0.0139
0000036182;-2.1141;-7.4579;4.8818;-0.0473;0.0060;-0.0250
0000036191;-2.0039;-7.1491;4.7932;-0.0512;0.0164;-0.0207
0000036203;-2.4229;-7.3813;4.8866;-0.0430;0.0115;-0.0294
0000036212;-2.3918;-7.3310;4.7956;-0.0389;0.0063;-0.0237
0000036221;-2.4038;-7.3861;4.8363;-0.0332;-0.0031;-0.0272
0000036234;-2.4205;-7.2089;4.8339;-0.0372;-0.0005;-0.0233
0000036243;-2.3032;-7.1946;4.8435;-0.0332;-0.0055;-0.0209
0000036313;-2.2338;-7.1850;4.7980;-0.0446;-0.0123;-0.0172
0000036322;-2.3391;-7.2688;4.7764;-0.0518;-0.0035;-0.0119
0000036335;-2.3391;-7.2353;4.7764;-0.0440;-0.0112;-0.0189
0000036344;-2.3343;-7.3263;4.7788;-0.0484;-0.0083;-0.0156
0000036356;-2.4038;-7.3550;4.7381;-0.0473;-0.0077;-0.0165
0000036365;-2.3080;-7.3694;4.7549;-0.0398;-0.0088;-0.0179
0000036378;-2.3559;-7.3143;4.7980;-0.0265;-0.0108;-0.0238
0000036387;-2.1859;-7.2472;4.8291;-0.0273;-0.0075;-0.0183
0000036399;-2.3655;-7.2664;4.8100;-0.0232;-0.0147;-0.0213
0000036408;-2.4876;-7.3550;4.8076;-0.0272;-0.0143;-0.0261
0000036417;-2.3080;-7.2281;4.8100;-0.0324;-0.0119;-0.0181
0000036430;-2.3080;-7.2927;4.7214;-0.0308;-0.0153;-0.0144
0000036439;-2.2817;-7.3478;4.6878;-0.0317;-0.0105;-0.0169
0000036451;-2.2649;-7.2760;4.7166;-0.0353;-0.0129;-0.0100
0000036460;-2.2697;-7.2472;4.7453;-0.0340;-0.0211;-0.0097
0000036473;-2.4373;-7.3741;4.6783;-0.0393;-0.0099;-0.0077
0000036482;-2.2003;-7.2377;4.7908;-0.0304;-0.0117;-0.0117
0000036494;-2.2841;-7.3095;4.8195;-0.0187;-0.0117;-0.0229
0000036503;-2.1739;-7.2903;4.7429;-0.0218;-0.0100;-0.0176
0000036516;-2.4229;-7.4124;4.7285;-0.0068;-0.0185;-0.0261
0000036525;-2.3128;-7.3765;4.6783;-0.0075;-0.0117;-0.0237
0000036595;-2.4086;-7.1922;4.8315;-0.0445;-0.0097;-0.0120
0000036604;-2.6911;-7.4340;4.8866;-0.0418;-0.0168;-0.0108
0000036613;-2.6288;-7.3909;4.7333;-0.0310;-0.0314;-0.0123
0000036626;-2.4277;-7.2951;4.7501;-0.0258;-0.0354;-0.0087
0000036635;-2.3822;-7.2951;4.6878;-0.0191;-0.0409;-0.0091
0000036647;-2.3559;-7.2616;4.6448;-0.0328;-0.0329;-0.0028
0000036656;-2.3367;-7.3694;4.6376;-0.0346;-0.0238;-0.0012
0000036669;-2.2218;-7.3574;4.6567;-0.0421;-0.0179;-0.0061
0000036678;-2.2075;-7.3143;4.7214;-0.0402;-0.0141;-0.0125
0000036690;-2.1715;-7.3023;4.7070;-0.0400;0.0020;-0.0124
0000036699;-2.3224;-7.3861;4.6759;-0.0341;-0.0008;-0.0245
0000036712;-2.4684;-7.3239;4.7597;-0.0336;-0.0012;-0.0242
0000036721;-2.5019;-7.3885;4.7716;-0.0372;0.0020;-0.0179
0000036730;-2.5091;-7.3071;4.7980;-0.0358;-0.0004;-0.0209
0000036742;-2.5642;-7.4388;4.8339;-0.0272;-0.0137;-0.0149
0000036751;-2.4612;-7.2544;4.7190;-0.0224;-0.0209;-0.0185
0000036764;-2.2817;-7.2832;4.6974;-0.0254;-0.0172;-0.0147
0000036773;-2.2434;-7.3382;4.5801;-0.0236;-0.0266;-0.0203
0000036785;-2.3846;-7.3478;4.6831;-0.0254;-0.0151;-0.0157
0000036794;-2.1715;-7.2425;4.6352;-0.0191;-0.0246;-0.0188
0000036807;-2.3224;-7.3694;4.7214;-0.0221;-0.0226;-0.0121
0000036816;-2.3583;-7.3334;4.6831;-0.0276;-0.0236;-0.0108
0000036886;-2.5618;-7.3741;4.6974;-0.0265;-0.0215;-0.0109
0000036893;-2.3942;-7.2760;4.6615;-0.0230;-0.0301;-0.0113
0000036905;-2.4086;-7.2664;4.7357;-0.0188;-0.0353;-0.0129
0000036913;-2.2410;-7.2137;4.7166;-0.0249;-0.0273;-0.0096
0000036921;-2.2266;-7.2018;4.6831;-0.0305;-0.0268;-0.0109
0000036932;-2.3008;-7.1826;4.5777;-0.0334;-0.0216;-0.0161
0000036940;-2.1835;-7.2137;4.7190;-0.0386;-0.0236;-0.0161
