time;acc_x;acc_y;acc_z;gyro_x;gyro_y;gyro_z
0000062435;6.8594;1.8914;-4.2665;0.0016;-0.0950;-0.0140
0000062443;6.9240;1.9321;-4.3598;0.0064;-0.0946;-0.0044
0000062450;6.9073;1.8507;-4.3503;0.0139;-0.1015;-0.0008
0000062458;7.0557;2.0279;-4.3383;0.0329;-0.1207;-0.0040
0000062466;6.7708;1.9201;-4.3574;0.0386;-0.1268;0.0020
0000062474;7.0629;2.0423;-4.3359;0.0473;-0.1428;-0.0033
0000062482;6.9145;2.0207;-4.4963;0.0509;-0.1540;-0.0039
0000062490;6.9743;2.1189;-4.4867;0.0457;-0.1608;-0.0073
0000062498;7.1180;2.1907;-4.5562;0.0337;-0.1657;-0.0079
0000062506;7.0533;2.0518;-4.6112;0.0238;-0.1659;-0.0099
0000062514;7.1611;2.1261;-4.4987;0.0052;-0.1597;-0.0036
0000062522;7.2185;2.2266;-4.5250;-0.0033;-0.1609;-0.0012
0000062530;7.2616;2.0470;-4.6136;-0.0083;-0.1651;-0.0041
0000062538;7.2472;1.9752;-4.4987;-0.0077;-0.1621;-0.0057
0000062546;7.4053;1.9345;-4.4532;-0.0032;-0.1592;0.0012
0000062554;7.4531;1.9561;-4.6160;-0.0061;-0.1491;-0.0040
0000062562;7.6351;2.0542;-4.5203;-0.0088;-0.1462;-0.0161
0000062570;7.6662;2.0111;-4.5777;-0.0088;-0.1360;-0.0241
0000062578;7.7500;1.9968;-4.6232;-0.0184;-0.1135;-0.0215
0000062586;7.8817;2.1955;-4.5657;-0.0293;-0.0851;-0.0124
0000062594;7.8889;2.0806;-4.5370;-0.0338;-0.0552;-0.0039
0000062602;7.8099;1.9297;-4.5226;-0.0386;-0.0221;0.0095
0000062610;7.8985;2.0758;-4.5610;-0.0422;-0.0041;0.0080
0000062618;7.6351;1.8411;-4.5538;-0.0393;0.0119;0.0101
0000062626;7.5537;1.7645;-4.5059;-0.0285;0.0193;0.0175
0000062634;7.0988;1.6999;-4.4748;-0.0177;0.0119;0.0187
0000062642;6.2752;1.6927;-4.0917;-0.0071;-0.0578;-0.0039
0000062650;6.3111;1.4557;-4.5657;0.0280;-0.0946;-0.0088
0000062658;6.5362;1.6855;-4.5729;0.0465;-0.1216;-0.0051
0000062666;6.8642;1.6233;-4.6376;0.0338;-0.1499;-0.0265
0000062674;7.3287;1.7789;-4.5705;0.0183;-0.1533;-0.0368
0000062682;7.7452;1.9992;-4.6328;0.0039;-0.1448;-0.0521
0000062690;7.8817;1.8531;-4.7238;0.0085;-0.1234;-0.0690
0000062698;7.8889;1.7214;-4.7309;0.0322;-0.0963;-0.0797
0000062706;7.9918;1.7047;-4.7812;0.0610;-0.0568;-0.0891
0000062714;7.9344;1.8579;-4.8914;0.0774;-0.0097;-0.0853
0000062722;7.7692;2.0470;-4.9033;0.0687;0.0292;-0.0797
0000062730;7.5010;2.1021;-4.8650;0.0516;0.0541;-0.0811
0000062738;7.3694;2.1931;-4.7645;0.0382;0.0671;-0.0773
0000062746;7.2209;2.0494;-4.7788;0.0208;0.0655;-0.0670
0000062754;6.9240;1.7597;-4.6735;0.0107;0.0614;-0.0644
0000062762;6.7708;1.5921;-4.7142;0.0160;0.0493;-0.0683
0000062770;6.6200;1.6592;-4.6400;0.0244;0.0338;-0.0737
0000062778;6.8187;1.7430;-4.7956;0.0362;0.0136;-0.0711
0000062786;6.6894;1.8292;-4.7214;0.0430;-0.0043;-0.0679
0000062794;6.8450;1.9800;-4.6759;0.0432;-0.0113;-0.0655
0000062802;6.7540;2.0614;-4.6591;0.0480;-0.0282;-0.0649
0000062810;6.6583;2.0710;-4.7453;0.0421;-0.0461;-0.0633
0000062818;6.7277;2.0446;-4.8387;0.0413;-0.0590;-0.0742
0000062826;6.9432;2.0614;-4.8483;0.0329;-0.0632;-0.0734
0000062834;7.0988;2.1452;-4.9536;0.0152;-0.0663;-0.0723
0000062842;7.1467;2.1380;-5.0015;0.0052;-0.0734;-0.0813
0000062850;7.3310;2.1715;-5.0111;-0.0145;-0.0633;-0.0785
0000062858;7.3310;2.0949;-4.8794;-0.0278;-0.0494;-0.0769
0000062866;7.3215;2.0446;-4.9249;-0.0388;-0.0396;-0.0795
0000062874;7.4484;2.0734;-4.8291;-0.0536;-0.0232;-0.0761
0000062882;7.6447;2.1763;-4.7429;-0.0686;-0.0064;-0.0825
0000062890;7.4962;2.0159;-4.6735;-0.0813;-0.0008;-0.0815
0000062898;7.3430;1.8890;-4.5897;-0.0993;0.0175;-0.0809
0000062906;7.5322;1.7980;-4.3455;-0.1017;0.0270;-0.0923
0000062914;7.4651;1.6592;-4.3910;-0.0930;0.0220;-0.1002
0000062922;7.4077;1.5945;-4.2784;-0.0826;0.0289;-0.0998
0000062930;7.3119;1.4557;-4.1827;-0.0521;0.0302;-0.1108
0000062938;7.3646;1.4988;-4.3048;-0.0140;0.0366;-0.1122
0000062946;7.1874;1.5538;-4.4724;0.0258;0.0362;-0.1118
0000062954;7.2425;1.7693;-4.4891;0.0568;0.0388;-0.1085
0000062962;7.1108;2.1380;-4.6495;0.0574;0.0401;-0.1054
0000062970;7.1251;2.5977;-4.7309;0.0401;0.0484;-0.0966
0000062978;6.9456;2.8108;-4.7812;-0.0040;0.0584;-0.0938
0000062986;6.8785;2.9832;-4.6543;-0.0637;0.0520;-0.0875
0000062994;6.5553;2.9018;-4.6208;-0.1226;0.0421;-0.0826
0000063002;6.3590;2.6001;-4.4915;-0.1697;0.0165;-0.0747
0000063085;6.8690;2.3727;-4.8626;-0.0151;-0.2345;0.0075
0000063093;7.1491;2.4181;-4.9081;-0.0482;-0.2241;0.0029
0000063101;7.3430;2.3846;-4.8459;-0.0857;-0.2038;-0.0069
0000063109;7.5154;2.2649;-4.7285;-0.1155;-0.1877;-0.0273
0000063117;7.6782;1.8603;-4.6112;-0.1366;-0.1613;-0.0334
0000063125;8.0661;1.7526;-4.5825;-0.1296;-0.1287;-0.0402
0000063133;7.9559;1.3671;-4.4580;-0.1045;-0.0934;-0.0404
0000063141;8.1403;1.2977;-4.4029;-0.0582;-0.0695;-0.0462
0000063149;7.9775;1.3527;-4.3958;-0.0073;-0.0470;-0.0438
0000063157;7.8817;1.4868;-4.4197;0.0294;-0.0140;-0.0304
0000063165;7.5920;1.6975;-4.5179;0.0449;0.0044;-0.0200
0000063173;7.8027;2.1668;-4.6807;0.0482;0.0268;-0.0101
0000063181;7.6734;2.4301;-4.7692;0.0316;0.0398;-0.0127
0000063189;7.3909;2.4469;-4.7573;-0.0041;0.0476;-0.0139
0000063197;7.3502;2.7031;-4.7142;-0.0429;0.0470;-0.0232
0000063205;7.2449;2.6671;-4.6064;-0.0811;0.0452;-0.0278
0000063213;7.0078;2.4373;-4.6088;-0.1210;0.0437;-0.0333
0000063221;6.8043;2.1356;-4.6495;-0.1407;0.0284;-0.0361
0000063229;6.7229;1.9561;-4.5179;-0.1435;0.0157;-0.0428
0000063237;6.5481;1.8244;-4.5969;-0.1343;0.0033;-0.0440
0000063245;6.3997;1.8244;-4.3934;-0.1272;-0.0103;-0.0362
0000063253;6.3111;1.9728;-4.3215;-0.1059;-0.0309;-0.0282
0000063261;6.1866;1.7142;-4.3191;-0.0849;-0.0510;-0.0147
0000063269;6.3279;1.7310;-4.3574;-0.0542;-0.0707;0.0037
0000063277;6.0310;1.7190;-4.6136;-0.0278;-0.0821;0.0201
0000063285;6.2249;1.8387;-4.5921;-0.0111;-0.0970;0.0338
0000063293;6.2680;1.9058;-4.7453;-0.0059;-0.1094;0.0344
0000063301;6.6367;2.1476;-4.7788;-0.0242;-0.1192;0.0294
0000063309;6.9384;2.3559;-4.8698;-0.0530;-0.1262;0.0089
0000063317;7.2832;2.4972;-4.7118;-0.0873;-0.1224;-0.0097
0000063325;7.3574;2.3008;-4.5394;-0.1171;-0.1071;-0.0260
0000063333;7.6160;2.1284;-4.3191;-0.1271;-0.0909;-0.0364
0000063341;7.6303;1.9154;-4.2593;-0.1138;-0.0741;-0.0498
0000063349;7.6088;1.6879;-4.2018;-0.0859;-0.0449;-0.0518
0000063357;7.3885;1.5443;-4.2306;-0.0536;-0.0248;-0.0389
0000063365;7.3454;1.7214;-4.1492;-0.0132;-0.0095;-0.0268
0000063373;7.0820;1.7957;-4.1539;0.0073;0.0129;-0.0005
0000063381;6.9815;1.8866;-4.1731;0.0119;0.0278;0.0175
0000063389;7.0701;2.0853;-4.1779;0.0077;0.0270;0.0167
0000063397;7.0126;2.2458;-4.1731;0.0063;0.0229;0.0133
0000063405;7.1060;2.2865;-4.2449;-0.0112;0.0264;0.0061
0000063413;7.2042;2.3631;-4.3646;-0.0241;0.0180;-0.0053
0000063421;7.0270;2.4134;-4.3790;-0.0405;0.0028;-0.0254
0000063429;6.7971;2.3990;-4.5035;-0.0550;-0.0197;-0.0361
0000063437;6.6056;2.4157;-4.5562;-0.0849;-0.0361;-0.0377
0000063445;6.2920;2.3056;-4.5514;-0.1104;-0.0566;-0.0317
0000063453;6.2656;2.3990;-4.6400;-0.1252;-0.0775;-0.0183
0000063461;6.1579;2.3152;-4.6088;-0.1278;-0.0951;-0.0095
0000063469;6.4284;2.4804;-4.7285;-0.1316;-0.1127;0.0067
0000063477;6.3542;2.3727;-4.8866;-0.1507;-0.1115;0.0321
0000063485;6.5505;2.4253;-4.8147;-0.1679;-0.1183;0.0374
0000063493;6.9001;2.5331;-4.9297;-0.1920;-0.1203;0.0393
0000063501;6.9456;2.3774;-4.9344;-0.2188;-0.1214;0.0286
0000063509;7.0509;2.3248;-4.8171;-0.2523;-0.1128;0.0226
0000063517;7.1491;2.1452;-4.6831;-0.2726;-0.1088;0.0085
0000063525;7.2257;2.0039;-4.4388;-0.2840;-0.0994;-0.0028
0000063533;7.3430;1.8340;-4.3551;-0.2886;-0.0854;-0.0085
0000063541;7.3478;1.5610;-4.0294;-0.2715;-0.0706;-0.0222
0000063549;7.4962;1.2594;-3.9169;-0.2341;-0.0598;-0.0277
0000063557;7.3813;1.1061;-3.7326;-0.1852;-0.0420;-0.0280
0000063565;7.3670;0.9026;-3.6416;-0.1310;-0.0226;-0.0216
0000063573;7.4005;1.0726;-3.6248;-0.0609;-0.0116;-0.0199
0000063581;7.4675;1.3647;-3.6176;0.0043;-0.0111;-0.0117
0000063589;7.3717;1.6233;-3.7828;0.0540;-0.0071;-0.0031
0000063597;6.9863;1.6927;-3.8044;0.0811;-0.0144;0.0067
0000063605;6.9408;2.0925;-3.8092;0.0877;-0.0297;0.0195
0000063613;6.8139;2.2793;-3.8379;0.0893;-0.0466;0.0257
0000063621;6.7038;2.4804;-3.7397;0.0806;-0.0698;0.0324
0000063629;6.5936;2.6264;-3.8379;0.0655;-0.0890;0.0300
0000063637;6.5577;2.4397;-3.7733;0.0556;-0.1096;0.0294
0000063645;6.7493;2.5379;-3.7661;0.0384;-0.1223;0.0228
0000063731;7.1706;2.2793;-4.2186;-0.0468;-0.0966;-0.0105
0000063739;7.0054;2.0375;-4.2449;-0.0520;-0.0909;0.0047
0000063747;7.0030;1.9154;-4.2329;-0.0550;-0.0894;0.0047
0000063755;7.0653;1.8459;-4.3814;-0.0461;-0.0967;-0.0032
0000063763;7.0557;1.9609;-4.4029;-0.0390;-0.0851;0.0009
0000063771;7.0342;2.0039;-4.4412;-0.0305;-0.0887;-0.0037
0000063779;7.2113;2.1284;-4.6567;-0.0273;-0.0837;-0.0011
0000063787;7.1251;2.1093;-4.6400;-0.0332;-0.0737;0.0085
0000063795;7.2161;2.2458;-4.6088;-0.0413;-0.0667;0.0064
0000063803;7.1754;2.3535;-4.6783;-0.0569;-0.0629;-0.0065
0000063811;7.2425;2.3774;-4.6950;-0.0703;-0.0561;-0.0218
0000063819;7.3047;2.3631;-4.7692;-0.0963;-0.0426;-0.0305
0000063827;7.1970;2.0351;-4.7932;-0.1099;-0.0354;-0.0445
0000063835;7.1539;1.9920;-4.6400;-0.1203;-0.0127;-0.0486
0000063843;7.3885;1.9537;-4.5921;-0.1175;-0.0001;-0.0590
0000063851;7.2496;1.8794;-4.5873;-0.1206;0.0289;-0.0584
0000063859;7.1946;1.8268;-4.4724;-0.0986;0.0386;-0.0699
0000063867;7.3909;2.0925;-4.4460;-0.0775;0.0580;-0.0634
0000063875;6.9288;1.9824;-4.4819;-0.0735;0.0758;-0.0568
0000063883;7.0246;2.1237;-4.5442;-0.0665;0.0841;-0.0505
0000063891;6.9623;2.1739;-4.4700;-0.0646;0.0846;-0.0489
0000063899;7.0102;2.3248;-4.4891;-0.0592;0.0810;-0.0437
0000063907;6.8809;2.3679;-4.3263;-0.0995;0.0917;-0.0425
0000063915;6.8115;2.5738;-4.0534;-0.1275;0.0759;-0.0397
0000063923;6.7684;2.8419;-4.1875;-0.1290;0.0853;-0.0505
0000063931;6.5529;2.9449;-3.9433;-0.1717;0.0931;-0.0806
0000063939;6.7900;3.1268;-3.7014;-0.2298;0.1168;-0.0927
0000063947;6.9384;2.7988;-3.5386;-0.2431;0.1577;-0.0831
0000063955;7.2449;2.2769;-3.5267;-0.2501;0.2085;-0.0706
0000063963;7.7165;1.6831;-3.4716;-0.2353;0.2218;-0.0786
0000063971;7.8171;1.3288;-3.3160;-0.1565;0.2342;-0.0597
0000063979;7.5513;1.1157;-3.3662;-0.0350;0.2466;-0.0033
0000063987;6.8570;1.0223;-3.7158;0.0513;0.2607;0.0557
0000063995;6.5457;1.0918;-4.1013;0.1155;0.2489;0.0935
0000064003;6.3039;1.4533;-4.4796;0.1124;0.2290;0.1246
0000064011;6.9097;2.3320;-4.6184;0.1030;0.1917;0.1291
0000064019;7.2353;2.7366;-4.6352;0.0710;0.1621;0.1034
0000064027;7.5705;3.1843;-4.7764;-0.0019;0.1320;0.0362
0000064035;7.2353;2.8754;-4.6783;-0.0909;0.1104;-0.0402
0000064043;6.5793;2.6312;-4.2258;-0.1444;0.1002;-0.1294
0000064051;6.3183;2.6073;-3.8810;-0.1660;0.0969;-0.1880
0000064059;6.1603;2.4373;-3.6536;-0.1338;0.1011;-0.2076
0000064067;6.4189;2.2649;-3.7781;-0.1035;0.1132;-0.1880
0000064075;6.6415;2.0494;-3.9265;-0.1039;0.1272;-0.1300
0000064083;6.8738;1.5036;-4.0534;-0.1136;0.1419;-0.0342
0000064091;7.0126;1.3910;-4.0199;-0.0947;0.1480;0.0694
0000064099;7.3717;1.0726;-3.9840;-0.0342;0.1472;0.1561
0000064107;7.4244;1.0487;-3.9025;0.0200;0.1532;0.1683
0000064115;7.3741;1.1372;-3.9480;0.0650;0.1675;0.1316
0000064123;7.3406;1.6089;-3.8499;0.1130;0.1681;0.0417
0000064131;7.1898;2.1261;-4.0294;0.1298;0.1671;-0.0442
0000064139;7.0892;2.7007;-4.2401;0.1147;0.1499;-0.1152
0000064147;6.8043;2.8443;-4.5969;0.0710;0.1318;-0.1474
0000064155;6.5027;2.9018;-4.5777;0.0141;0.1098;-0.1327
0000064163;6.1363;2.5594;-4.3646;-0.0192;0.0767;-0.0926
0000064171;6.2058;2.5546;-4.0989;-0.0141;0.0437;-0.0357
0000064179;6.5194;2.5379;-4.0414;-0.0060;0.0242;0.0250
0000064187;6.8498;2.5450;-4.0917;0.0019;0.0075;0.0581
0000064195;7.1635;2.3511;-4.0989;-0.0039;0.0031;0.0695
0000064203;7.5513;2.3942;-4.1420;-0.0298;0.0076;0.0617
0000064211;7.7692;2.4301;-4.0989;-0.0542;0.0067;0.0329
0000064219;7.6662;2.3487;-4.0725;-0.0773;0.0225;0.0100
0000064227;7.3502;2.2194;-3.9840;-0.0910;0.0305;-0.0203
0000064235;7.1539;2.1668;-3.9025;-0.0905;0.0252;-0.0364
0000064243;7.0150;1.9632;-3.9289;-0.0893;0.0313;-0.0346
0000064251;6.8019;2.0830;-3.7804;-0.0802;0.0314;-0.0285
0000064259;7.0030;2.1476;-3.6488;-0.0713;0.0254;-0.0177
0000064267;6.9743;2.2769;-3.6847;-0.0572;0.0209;-0.0115
0000064275;7.0533;2.2482;-3.7613;-0.0504;0.0155;0.0032
0000064283;7.1251;2.3272;-3.7900;-0.0458;0.0144;-0.0005
0000064291;7.1491;2.2242;-3.9049;-0.0386;0.0103;0.0011
0000064299;7.3694;2.4325;-3.9289;-0.0478;0.0104;0.0004
0000064385;7.2927;2.1859;-3.8235;-0.0238;-0.0298;-0.0140
0000064393;7.1491;2.0303;-3.8283;-0.0116;-0.0277;-0.0149
0000064401;7.2760;2.1380;-3.8738;-0.0088;-0.0172;-0.0088
0000064409;7.2305;2.0925;-3.9145;-0.0080;-0.0172;-0.0049
0000064417;7.1826;2.1907;-3.9145;-0.0175;-0.0083;-0.0047
0000064425;7.0485;2.0686;-3.8379;-0.0065;-0.0181;-0.0112
0000064433;7.0868;2.2410;-3.8954;-0.0075;-0.0181;-0.0081
0000064441;7.0222;2.2386;-3.8762;-0.0105;-0.0240;-0.0105
0000064449;6.9887;2.0087;-3.8211;0.0020;-0.0313;-0.0141
0000064457;7.0916;2.1859;-3.8547;0.0032;-0.0322;-0.0136
0000064465;7.0892;2.1045;-3.9433;0.0048;-0.0317;-0.0129
0000064473;7.1347;2.1739;-3.9480;0.0135;-0.0380;-0.0167
0000064481;7.1635;2.1404;-3.8834;0.0187;-0.0396;-0.0200
0000064489;7.2209;2.2003;-3.9935;0.0187;-0.0426;-0.0274
0000064497;7.2640;2.2242;-3.8930;0.0176;-0.0378;-0.0232
0000064505;7.1251;2.1979;-3.9863;0.0163;-0.0344;-0.0181
0000064513;7.2688;2.4253;-4.0582;0.0076;-0.0332;-0.0161
0000064521;7.2688;2.2146;-3.9792;0.0112;-0.0337;-0.0205
0000064529;7.0054;2.1141;-3.9935;0.0060;-0.0364;-0.0167
0000064537;7.1539;2.2697;-4.0270;0.0051;-0.0312;-0.0144
0000064545;7.1467;2.1452;-4.0127;0.0079;-0.0322;-0.0176
0000064553;7.1275;2.1572;-3.9935;0.0037;-0.0292;-0.0145
0000064561;7.2616;2.2338;-4.0318;0.0096;-0.0365;-0.0175
0000064569;7.1228;2.1859;-3.9792;0.0087;-0.0350;-0.0203
0000064577;7.2808;2.2170;-4.0677;0.0164;-0.0417;-0.0249
0000064585;7.2999;2.2458;-4.0294;0.0171;-0.0396;-0.0288
0000064593;7.0820;2.1189;-4.0606;0.0221;-0.0457;-0.0292
0000064601;7.3287;2.2003;-4.0965;0.0236;-0.0470;-0.0232
0000064609;7.1299;2.0614;-3.9169;0.0216;-0.0485;-0.0280
0000064617;7.1922;2.1452;-4.0725;0.0213;-0.0508;-0.0284
0000064625;6.9336;2.0638;-3.9361;0.0290;-0.0554;-0.0305
0000064633;7.1539;2.1069;-4.0510;0.0270;-0.0560;-0.0269
0000064641;7.3358;2.2505;-3.9744;0.0256;-0.0598;-0.0236
0000064649;7.2377;2.3391;-4.0725;0.0284;-0.0693;-0.0352
0000064657;7.2042;2.3008;-4.0247;0.0320;-0.0699;-0.0316
0000064665;7.1922;2.2218;-4.0270;0.0266;-0.0690;-0.0278
0000064673;7.2377;2.2410;-4.0582;0.0320;-0.0794;-0.0300
0000064681;7.1299;2.2721;-3.9983;0.0346;-0.0874;-0.0324
0000064689;7.1994;2.2386;-4.0630;0.0321;-0.0933;-0.0257
0000064697;7.1204;2.1356;-4.0127;0.0258;-0.0933;-0.0168
0000064705;7.1036;2.0470;-4.0438;0.0245;-0.1006;-0.0157
0000064713;7.1371;1.9872;-4.0079;0.0241;-0.1063;-0.0156
0000064721;7.2592;2.0853;-4.0342;0.0360;-0.1168;-0.0156
0000064729;7.3574;2.1691;-3.9935;0.0401;-0.1178;-0.0072
0000064737;7.1730;2.0542;-4.0055;0.0441;-0.1130;0.0027
0000064745;7.1299;2.1476;-4.0869;0.0457;-0.1224;0.0093
0000064753;7.2664;2.3703;-4.1779;0.0493;-0.1302;0.0199
0000064761;7.1060;2.3679;-4.2593;0.0336;-0.1303;0.0341
0000064769;7.3047;2.4924;-4.2497;0.0238;-0.1316;0.0416
0000064777;7.1802;2.3679;-4.3263;0.0131;-0.1288;0.0562
0000064785;7.4220;2.4756;-4.3574;0.0100;-0.1286;0.0614
0000064793;7.1275;2.1931;-4.3910;0.0028;-0.1195;0.0721
0000064801;7.2544;2.3032;-4.4412;-0.0059;-0.1160;0.0765
0000064809;7.2209;2.1045;-4.4388;-0.0080;-0.1037;0.0851
0000064817;7.0797;1.9896;-4.6567;-0.0128;-0.1037;0.0878
0000064825;7.1156;2.0303;-4.5035;-0.0217;-0.0894;0.0993
0000064833;6.9887;1.8914;-4.5274;-0.0362;-0.0783;0.1143
0000064841;7.1132;1.9896;-4.5322;-0.0390;-0.0762;0.1172
0000064849;7.1060;2.1189;-4.5490;-0.0430;-0.0638;0.1302
0000064857;7.1778;2.0662;-4.5873;-0.0476;-0.0556;0.1339
0000064865;7.1347;2.1691;-4.6208;-0.0577;-0.0418;0.1335
0000064873;7.0509;2.3631;-4.5346;-0.0795;-0.0284;0.1279
0000064881;7.0557;2.4948;-4.4005;-0.0901;-0.0254;0.1115
0000064889;6.9192;2.6169;-4.4580;-0.1178;-0.0225;0.1054
0000064897;6.7014;2.7773;-4.4101;-0.1434;-0.0240;0.1027
0000064905;6.8115;2.9951;-4.4556;-0.1812;-0.0278;0.1057
0000064913;6.4835;2.8132;-4.4125;-0.2208;-0.0349;0.1295
0000064921;6.6008;2.6743;-4.3646;-0.2533;-0.0464;0.1600
0000064929;6.5745;2.6839;-4.4053;-0.2832;-0.0617;0.1671
0000064937;6.5457;2.6743;-4.0534;-0.3116;-0.0693;0.1801
0000064945;6.7780;2.8299;-4.1061;-0.3461;-0.0612;0.1889
0000064953;7.0318;2.8108;-3.9193;-0.3560;-0.0581;0.1931
0000065039;7.5154;2.4349;-3.9480;-0.5028;0.1049;0.3452
0000065047;7.2472;2.3248;-3.7972;-0.5175;0.1160;0.3591
0000065055;7.4029;2.3822;-3.8235;-0.5327;0.1303;0.3655
0000065063;7.6471;2.6408;-3.7493;-0.5445;0.1415;0.3744
0000065071;7.6830;2.6959;-3.8044;-0.5553;0.1695;0.3857
0000065079;7.8721;2.8563;-4.0151;-0.5788;0.1976;0.3937
0000065087;7.8626;2.8683;-4.1108;-0.6043;0.2153;0.4088
0000065095;7.8147;2.8395;-4.1468;-0.6379;0.2466;0.4298
0000065103;7.9918;2.9042;-4.1013;-0.6772;0.2722;0.4415
0000065111;7.7524;2.7198;-4.0127;-0.7068;0.3016;0.4650
0000065119;7.8075;2.7342;-3.9863;-0.7282;0.3239;0.4876
0000065127;7.6710;2.6528;-3.7326;-0.7393;0.3504;0.5120
0000065135;7.7716;2.6576;-3.6895;-0.7461;0.3937;0.5400
0000065143;7.9320;2.6983;-3.5817;-0.7421;0.4235;0.5698
0000065151;7.9966;2.5139;-3.5793;-0.7358;0.4680;0.5995
0000065159;7.7452;2.1332;-3.6943;-0.7276;0.5205;0.6308
0000065167;8.0206;2.1069;-3.7278;-0.7260;0.5873;0.6627
0000065175;8.3366;2.0375;-3.6703;-0.7265;0.6439;0.6989
0000065183;8.5449;2.1261;-3.5913;-0.7293;0.6911;0.7348
0000065191;8.5952;2.2793;-3.4668;-0.7265;0.7246;0.7562
0000065199;8.6574;2.3750;-3.4285;-0.7089;0.7525;0.7622
0000065207;8.4156;2.3727;-3.2609;-0.7021;0.7803;0.7606
0000065215;7.9990;2.3535;-3.1125;-0.7112;0.8043;0.7526
0000065223;8.1211;2.5402;-3.0287;-0.6996;0.8147;0.7464
0000065231;7.7716;2.7509;-2.8994;-0.7216;0.8215;0.7402
0000065239;7.7931;3.0239;-2.8060;-0.7400;0.8426;0.7560
0000065247;7.8985;3.0885;-2.8419;-0.7866;0.8616;0.7730
0000065255;8.1163;3.1532;-2.6504;-0.8175;0.8924;0.8092
0000065263;8.7460;3.5099;-2.8874;-0.8700;0.9258;0.8525
0000065271;8.8825;3.4046;-2.5307;-0.9354;0.9802;0.8928
0000065279;9.2320;3.3255;-2.3487;-0.9898;1.0284;0.9439
0000065287;9.4020;3.4117;-1.9896;-1.0424;1.0761;1.0016
0000065295;9.5146;3.2705;-1.7310;-1.0541;1.1162;1.0460
0000065303;9.4236;2.9568;-1.5730;-1.0416;1.1445;1.0744
0000065311;9.1985;2.7150;-1.3934;-1.0356;1.1691;1.0878
0000065319;9.0573;2.7342;-1.1349;-1.0287;1.2044;1.1017
0000065327;8.8274;2.7007;-1.1444;-1.0227;1.2398;1.1050
0000065335;8.6431;2.7916;-0.8595;-1.0168;1.2689;1.1084
0000065343;8.4922;2.7725;-0.8140;-1.0263;1.3119;1.1219
0000065351;8.6598;2.8491;-0.8308;-1.0126;1.3295;1.1600
0000065359;8.6311;2.6408;-0.5435;-1.0305;1.3748;1.2044
0000065367;8.9998;2.6504;-0.4645;-1.0251;1.4048;1.2321
0000065375;9.2129;2.6767;-0.6416;-1.0304;1.4496;1.2728
0000065383;9.3829;2.5738;-0.6201;-0.9823;1.4646;1.3250
0000065391;9.3853;2.6169;-0.4645;-0.9750;1.4906;1.3699
0000065399;9.4260;3.0694;-0.3663;-1.0018;1.4999;1.4225
0000065407;9.3134;3.6464;-0.0694;-1.0383;1.5162;1.4579
0000065415;9.5122;4.2856;-0.0790;-1.0475;1.5340;1.4518
0000065423;9.8306;4.6352;-0.1891;-1.0401;1.5468;1.3985
0000065431;9.7396;4.5059;-0.1652;-1.0525;1.5581;1.3145
0000065439;9.6989;4.4005;-0.2251;-1.0708;1.5669;1.1960
0000065447;9.2967;4.2401;-0.1628;-1.0926;1.5641;1.0761
0000065455;8.8226;4.2832;-0.0455;-1.0916;1.5284;0.9839
0000065463;8.0038;4.1803;0.0503;-1.0754;1.4670;0.9435
0000065471;7.2568;3.6655;0.1844;-1.0996;1.3695;0.9344
0000065479;6.8857;3.1987;0.3496;-1.0708;1.2252;0.9302
0000065487;6.7876;2.9281;0.4741;-1.0215;1.0381;0.8982
0000065495;6.5170;2.7677;0.8763;-0.9795;0.8252;0.8793
0000065503;6.3638;2.1452;0.8499;-0.9208;0.6202;0.8545
0000065511;6.5362;1.9225;0.8284;-0.8535;0.4305;0.7618
0000065519;6.2920;1.8962;1.2258;-0.8864;0.2954;0.5810
0000065527;7.1563;2.4445;1.3192;-0.9024;0.1824;0.4006
0000065535;8.1044;3.0406;1.7837;-0.8885;0.1235;0.2864
0000065543;9.0812;3.2298;1.6616;-0.9078;0.0982;0.2117
0000065551;9.5337;2.7438;1.6209;-0.9573;0.1271;0.1948
0000065559;9.7564;2.1979;1.8316;-0.9975;0.1673;0.2202
0000065567;10.2113;1.5538;2.0542;-0.9754;0.2213;0.2361
0000065575;10.0413;0.7111;2.1117;-0.9114;0.2581;0.2414
0000065583;9.6319;0.4166;2.1811;-0.8420;0.3106;0.1978
0000065591;9.0166;0.2155;2.1261;-0.8080;0.3876;0.1075
0000065599;8.3175;0.3112;2.3918;-0.7774;0.4607;-0.0544
0000065607;8.0182;0.5555;2.8156;-0.7362;0.5223;-0.2361
0000065615;7.2161;0.4693;2.8539;-0.6694;0.5634;-0.4342
0000065623;6.6990;0.3543;2.6504;-0.6562;0.5800;-0.5999
0000065709;5.9568;-0.7781;3.4931;-0.6619;0.0990;-1.3444
0000065717;6.2560;-0.2993;3.2394;-0.6324;0.0906;-1.4498
0000065725;6.2704;-0.1389;3.0933;-0.6170;0.0909;-1.5743
0000065733;6.4236;-0.0718;2.7869;-0.5941;0.0899;-1.6880
0000065741;6.1794;-0.4956;2.9209;-0.5501;0.0775;-1.8153
0000065749;5.8371;-0.5171;2.9640;-0.4762;0.0133;-1.8848
0000065757;4.9225;-0.7398;2.7198;-0.3945;-0.0947;-1.9051
0000065765;4.2138;-0.8212;2.4541;-0.3631;-0.2462;-1.8706
0000065773;3.4836;-0.9122;2.6049;-0.3517;-0.4234;-1.8347
0000065781;2.8299;-0.8667;2.6863;-0.3134;-0.6378;-1.7889
0000065789;2.0494;-0.8404;2.7126;-0.3123;-0.8371;-1.7279
0000065797;1.7382;-0.3448;3.0167;-0.2883;-1.0396;-1.7385
0000065805;2.0901;-0.1508;3.2513;-0.1875;-1.2353;-1.7327
0000065813;3.0071;0.5674;3.3112;-0.0734;-1.4080;-1.7397
0000065821;3.9121;1.1516;2.8252;0.0044;-1.5549;-1.7361
0000065829;4.3311;1.6688;2.6480;0.0446;-1.6772;-1.7419
0000065837;4.9368;2.4469;2.5474;0.0726;-1.7625;-1.7696
0000065845;5.3175;3.0598;2.4612;0.1023;-1.8045;-1.7781
0000065853;5.6982;3.5243;2.2051;0.0947;-1.8547;-1.7698
0000065861;5.9711;4.0007;2.0853;0.0452;-1.8238;-1.7227
0000065869;6.3159;4.1420;2.0279;-0.0624;-1.8740;-1.6487
0000065877;6.3375;4.0151;2.0518;-0.2220;-1.8443;-1.5700
0000065885;6.1579;3.4046;2.0830;-0.4203;-1.8627;-1.4583
0000065893;6.3758;2.8156;2.3870;-0.6061;-1.8932;-1.3229
0000065901;6.0142;1.3695;2.9808;-0.7264;-1.8916;-1.1706
0000065909;6.2944;0.0000;3.1029;-0.7582;-1.8991;-1.0357
0000065917;6.1842;-1.4198;2.9712;-0.6700;-1.9489;-0.9084
0000065925;6.3494;-2.3750;2.4253;-0.5399;-1.9826;-0.7625
0000065933;6.5290;-3.0526;1.5299;-0.3668;-1.9590;-0.5796
0000065941;7.0390;-3.3016;0.7733;-0.2838;-1.9351;-0.3541
0000065949;7.3885;-3.9097;0.6393;-0.2273;-1.7960;-0.1372
0000065957;8.1547;-4.2425;0.0934;-0.1765;-1.6975;0.0472
0000065965;8.9615;-5.1308;0.1460;-0.1696;-1.5539;0.1681
0000065973;10.2089;-5.9879;0.4549;-0.1194;-1.4104;0.2340
0000065981;10.7380;-7.0701;0.7925;-0.0532;-1.2917;0.2733
0000065989;11.4012;-7.5274;0.6632;0.0843;-1.1926;0.2819
0000065997;11.4227;-7.5178;0.2897;0.2627;-1.1045;0.2813
0000066005;11.0923;-7.3167;-0.4597;0.4317;-0.9625;0.2895
0000066013;10.1538;-7.0820;-0.4788;0.5255;-0.8286;0.3507
0000066021;8.8681;-7.0677;-0.4788;0.5696;-0.7602;0.4507
0000066029;8.1666;-6.7038;-0.8643;0.6171;-0.6732;0.5644
0000066037;7.9200;-6.2513;-1.1540;0.7044;-0.6169;0.6989
0000066045;7.2951;-6.1866;-1.5778;0.8344;-0.6274;0.7397
0000066053;7.2377;-6.1028;-2.1500;0.9185;-0.6031;0.7486
0000066061;7.0174;-6.2058;-2.2936;0.9373;-0.5995;0.7669
0000066069;6.7876;-6.0525;-2.3272;0.9198;-0.6496;0.8512
0000066077;6.5625;-6.0597;-2.4373;0.8398;-0.8323;1.0347
0000066085;6.1244;-6.4069;-2.0782;0.6548;-1.1455;1.3178
0000066093;5.9951;-6.7325;-1.1851;0.4391;-1.5012;1.6430
0000066101;5.5450;-7.3933;0.9170;0.2763;-1.9405;1.8951
0000066109;5.5450;-7.9057;2.4972;0.2681;-2.4071;2.0169
0000066117;5.6144;-8.3989;3.3878;0.3649;-2.9376;1.9911
0000066125;6.0358;-8.3821;2.6336;0.5247;-3.2783;1.8575
0000066133;5.7700;-7.9128;0.6584;0.7422;-3.4968;1.7229
0000066141;6.1818;-7.8889;-1.0798;0.9232;-3.6989;1.6234
0000066149;6.9959;-8.1810;-2.0446;1.2341;-3.9704;1.4798
0000066157;10.7093;-7.6207;-2.6288;2.0006;-4.3657;1.3215
0000066165;30.2627;-4.6567;4.9440;4.3656;-4.3657;1.6417
0000066173;64.8565;14.7603;9.0477;4.3656;-4.3657;4.2611
0000066181;78.4508;32.4510;-15.3780;4.3656;-4.3657;4.3656
0000066189;61.9021;22.0123;-11.4443;4.3656;-4.3657;4.3656
0000066197;52.0787;29.4750;-20.1304;4.2822;-3.7004;4.3656
0000066205;54.0874;20.7458;-34.8979;2.9391;-2.4417;3.2349
0000066213;55.7131;22.3379;-23.5877;2.2286;-1.4332;2.4047
0000066221;48.7986;24.6651;1.8938;-0.7789;-1.2048;2.4313
0000066229;30.8828;13.1585;3.1436;-0.5640;-0.4763;2.3926
0000066237;18.4521;2.2410;1.2282;1.2068;0.3900;2.4882
0000066245;11.7292;-1.0870;-5.5641;2.1043;1.5154;2.8667
0000066253;4.9297;-1.2498;-11.8872;1.7778;2.6428;3.2014
0000066261;1.4174;1.3192;-11.2240;0.7020;2.4369;3.4739
0000066269;-1.0463;4.4963;-6.4907;-0.3194;1.9914;3.6100
0000066355;18.7418;-2.4397;-5.1356;0.4834;1.4879;2.0697
0000066363;15.7658;-5.6479;-5.0135;0.3439;1.2156;2.1344
0000066371;13.9773;-7.4316;-3.8642;0.3885;1.0184;2.1210
0000066379;15.2846;-8.2313;-3.5698;0.6002;0.8314;2.0675
0000066387;16.9869;-7.9871;-4.8291;0.7979;0.7349;2.0126
0000066395;18.0690;-7.5346;-6.8211;0.9777;0.7665;1.9319
0000066403;18.2702;-6.8738;-8.5641;1.0409;0.9161;1.8457
0000066411;16.1992;-6.5553;-9.0764;0.9699;1.1299;1.7481
0000066419;13.7858;-6.3925;-7.5489;0.8454;1.1920;1.7431
0000066427;12.1338;-6.4667;-5.7365;0.8066;1.1571;1.7970
0000066435;10.6374;-7.0366;-4.0055;0.8803;0.9705;1.9168
0000066443;9.2368;-6.6607;-2.8515;0.9334;0.6410;2.1112
0000066451;9.1722;-7.2065;-2.3320;1.0308;0.3850;2.3473
0000066459;9.5385;-6.7421;-2.1859;1.0047;0.0726;2.5608
0000066467;11.3772;-7.3981;-2.4445;1.0232;-0.1218;2.7546
0000066475;12.4858;-8.0613;-2.3559;0.9810;-0.2470;2.9222
0000066483;13.9007;-9.2105;-2.7485;0.9876;-0.3365;3.0354
0000066491;14.7842;-10.6326;-3.3591;1.0877;-0.3758;3.0832
0000066499;15.2056;-11.7555;-4.2784;1.2428;-0.3766;3.0630
0000066507;14.9159;-12.3924;-5.3367;1.3460;-0.3372;2.9617
0000066515;15.4378;-12.4858;-5.6479;1.3839;-0.3124;2.8113
0000066523;16.5320;-12.3397;-5.9544;1.3899;-0.3516;2.6582
0000066531;18.5072;-11.5879;-6.5673;1.3923;-0.3685;2.5397
0000066539;19.1656;-11.6143;-6.9599;1.4136;-0.3083;2.4668
0000066547;20.2980;-12.2416;-6.8187;1.4156;-0.2948;2.3570
0000066555;21.3156;-12.9431;-6.9599;1.3133;-0.3126;2.1562
0000066563;22.2373;-13.7379;-6.9791;1.1195;-0.3116;1.8431
0000066571;23.0155;-14.2503;-6.9767;0.8559;-0.2606;1.4528
0000066579;23.9396;-14.6094;-6.5888;0.6266;-0.0835;0.9555
0000066587;23.7672;-14.5017;-6.1172;0.4952;0.1697;0.4166
0000066595;22.4696;-14.0683;-5.3151;0.4766;0.4722;-0.0971
0000066603;18.7322;-13.3094;-4.9488;0.5329;0.6712;-0.5107
0000066611;15.8927;-12.5839;-4.9943;0.5909;0.8010;-0.7881
0000066619;14.1497;-12.0093;-5.1092;0.6484;0.9284;-0.9294
0000066627;13.6589;-12.2152;-5.3678;0.7214;1.0199;-0.9785
0000066635;12.7443;-11.8130;-5.3558;0.7990;1.1326;-0.9642
0000066643;12.3158;-11.8202;-4.7046;0.8375;1.2147;-0.9725
0000066651;11.5592;-11.9878;-4.8052;0.8529;1.1971;-0.9811
0000066659;10.9726;-11.5640;-4.8243;0.8246;1.1547;-0.9899
0000066667;10.2185;-10.8721;-4.2856;0.7651;1.0894;-0.9336
0000066675;9.6295;-10.1538;-3.2753;0.7152;1.0229;-0.8489
0000066683;9.6151;-9.3158;-2.3774;0.6743;0.9355;-0.7492
0000066691;9.5122;-8.6981;-2.0375;0.6311;0.8318;-0.6221
0000066699;9.9000;-8.1906;-1.7645;0.5698;0.7345;-0.4503
0000066707;11.3892;-7.7859;-1.2809;0.4967;0.6604;-0.2911
0000066715;13.2399;-7.9823;-0.9673;0.5011;0.6198;-0.1729
0000066723;14.4801;-8.4779;-1.0774;0.5400;0.5828;-0.0897
0000066731;15.1673;-8.8226;-0.9649;0.5684;0.5259;-0.0288
0000066739;15.6365;-9.0692;-0.8643;0.5773;0.4751;0.0003
0000066747;16.2231;-9.3996;-0.6919;0.5860;0.4426;-0.0164
0000066755;16.8767;-9.3877;-0.8045;0.5766;0.4479;-0.0529
0000066763;17.0898;-9.5720;-0.9720;0.5395;0.4924;-0.1022
0000066771;17.1161;-9.8019;-1.0558;0.5152;0.5492;-0.1588
0000066779;17.4178;-9.7133;-1.5179;0.5111;0.6197;-0.2020
0000066787;17.5040;-9.8689;-1.6616;0.5051;0.7107;-0.2459
0000066795;17.8153;-9.7612;-1.6017;0.5204;0.8186;-0.2618
0000066803;18.0020;-9.6510;-1.2474;0.5977;0.9236;-0.2936
0000066811;17.8153;-9.5744;-0.8906;0.6355;1.0074;-0.3163
0000066819;17.4849;-9.5984;-0.4788;0.6586;1.0701;-0.3151
0000066827;16.9988;-9.4451;-0.0910;0.6784;1.1042;-0.3351
0000066835;16.7618;-9.1818;0.4717;0.7113;1.1175;-0.3608
0000066843;16.0890;-8.8370;0.9553;0.7638;1.0893;-0.3713
0000066851;15.5551;-7.9847;1.5993;0.7518;1.0166;-0.3856
0000066859;14.7004;-7.0174;1.8771;0.6909;0.9004;-0.4017
0000066867;13.8050;-5.7604;1.9920;0.5654;0.7400;-0.4575
0000066875;13.1035;-4.9081;2.0375;0.3525;0.5473;-0.4991
0000066883;12.8210;-4.3455;2.2817;0.1001;0.3198;-0.4986
0000066891;13.8648;-4.6064;2.3846;-0.1458;0.1315;-0.4190
0000066899;14.7507;-5.6120;2.4134;-0.2154;-0.0322;-0.2627
0000066907;15.6150;-6.1220;1.9872;-0.1896;-0.1691;-0.1031
0000066915;15.5192;-6.9695;1.5323;-0.1761;-0.2562;0.0003
0000067006;14.7842;-8.1499;1.2522;-0.1885;-0.2657;-0.0394
0000067014;15.1433;-7.9033;1.2426;-0.1936;-0.3183;-0.0361
0000067022;15.4330;-8.0756;0.8380;-0.1952;-0.3655;-0.0161
0000067030;15.7706;-8.1834;0.4669;-0.1928;-0.3914;0.0047
0000067038;16.2566;-8.2504;0.0431;-0.1948;-0.3992;0.0141
0000067046;16.8097;-8.4851;-0.2753;-0.2032;-0.3829;0.0095
0000067054;16.6038;-8.8969;-0.5818;-0.2104;-0.3541;-0.0155
0000067062;16.9486;-8.8011;-0.6632;-0.2185;-0.2995;-0.0389
0000067070;17.1018;-8.7293;-0.9050;-0.2245;-0.2411;-0.0658
0000067078;16.7905;-8.9735;-0.8954;-0.2206;-0.1869;-0.1009
0000067086;16.7115;-8.8442;-0.9649;-0.2141;-0.1388;-0.1330
0000067094;16.6612;-8.6862;-0.8523;-0.2141;-0.0921;-0.1552
0000067102;16.3739;-8.5665;-0.8380;-0.2021;-0.0554;-0.1703
0000067110;16.5056;-8.4635;-0.7039;-0.1825;-0.0373;-0.1759
0000067118;16.4530;-8.4922;-0.6081;-0.1669;-0.0200;-0.1675
0000067126;16.5559;-8.2193;-0.5746;-0.1455;-0.0193;-0.1601
0000067134;16.4577;-8.4946;-0.4262;-0.1200;-0.0296;-0.1504
0000067142;16.5056;-8.3917;-0.4717;-0.1034;-0.0384;-0.1360
0000067150;16.4530;-8.4300;-0.4908;-0.0755;-0.0418;-0.1278
0000067158;16.5631;-8.2863;-0.5722;-0.0508;-0.0349;-0.1203
0000067166;16.5439;-8.2768;-0.7901;-0.0406;-0.0101;-0.1055
0000067174;16.6373;-8.1906;-0.7135;-0.0272;0.0145;-0.0969
0000067182;16.5128;-8.2313;-0.6369;-0.0068;0.0318;-0.0949
0000067190;16.4601;-8.2480;-0.5674;0.0131;0.0542;-0.0873
0000067198;16.2064;-8.0828;-0.5890;0.0185;0.0838;-0.0737
0000067206;16.1465;-7.9320;-0.4549;0.0269;0.1082;-0.0665
0000067214;15.9765;-8.1116;-0.2873;0.0356;0.1364;-0.0541
0000067222;15.7945;-7.9727;-0.1413;0.0397;0.1687;-0.0381
0000067230;15.7323;-7.8243;-0.0910;0.0341;0.1969;-0.0229
0000067238;15.7012;-7.8314;0.1317;0.0365;0.2086;-0.0093
0000067246;15.4043;-7.8290;0.2658;0.0344;0.2204;0.0009
0000067254;15.6293;-7.6998;0.3256;0.0290;0.2244;0.0221
0000067262;15.6677;-7.7692;0.4214;0.0312;0.2108;0.0414
0000067270;15.7179;-7.8721;0.5124;0.0374;0.1908;0.0580
0000067278;15.6700;-8.0637;0.5962;0.0346;0.1668;0.0771
0000067286;15.6581;-8.1570;0.6297;0.0309;0.1356;0.0899
0000067294;15.8712;-8.2121;0.5890;0.0282;0.0963;0.0915
0000067302;15.9837;-8.2456;0.5507;0.0266;0.0565;0.0827
0000067310;16.0364;-8.2959;0.5363;0.0173;0.0222;0.0745
0000067318;16.0962;-8.2720;0.4621;0.0137;-0.0136;0.0602
0000067326;16.1154;-8.3366;0.4381;0.0135;-0.0406;0.0516
0000067334;16.1992;-8.2624;0.4070;0.0064;-0.0521;0.0492
0000067342;16.1561;-8.2073;0.3184;-0.0032;-0.0677;0.0504
0000067350;15.8736;-8.2887;0.3376;-0.0072;-0.0757;0.0532
0000067358;15.9406;-8.0780;0.2227;-0.0085;-0.0934;0.0450
0000067366;15.9669;-8.2528;0.1460;-0.0135;-0.0946;0.0454
0000067374;15.9502;-8.2696;0.1413;-0.0230;-0.0949;0.0414
0000067382;15.8903;-8.3797;0.1101;-0.0277;-0.0915;0.0324
0000067390;15.9909;-8.4108;0.0192;-0.0300;-0.0994;0.0109
0000067398;15.7922;-8.5473;0.0934;-0.0350;-0.0966;-0.0027
0000067406;15.8975;-8.4970;0.1077;-0.0356;-0.0963;-0.0268
0000067414;15.7945;-8.4635;0.1149;-0.0344;-0.0974;-0.0432
0000067422;15.9502;-8.3031;0.0599;-0.0409;-0.0935;-0.0494
0000067430;15.9119;-8.3175;0.0072;-0.0362;-0.0913;-0.0493
0000067438;16.1082;-8.0110;-0.0431;-0.0440;-0.0802;-0.0422
0000067447;15.9358;-8.2193;0.1030;-0.0350;-0.0819;-0.0362
0000067455;16.0986;-8.1523;0.0096;-0.0368;-0.0751;-0.0229
0000067464;16.1058;-8.2720;-0.0072;-0.0340;-0.0757;-0.0177
0000067473;16.1824;-8.2959;-0.0766;-0.0292;-0.0755;-0.0240
0000067482;16.2351;-8.3606;-0.0096;-0.0336;-0.0662;-0.0217
0000067491;16.1106;-8.3941;-0.1269;-0.0297;-0.0593;-0.0270
0000067500;16.1680;-8.2744;-0.1532;-0.0310;-0.0586;-0.0345
0000067509;16.1465;-8.1738;-0.1317;-0.0305;-0.0426;-0.0340
0000067518;16.0866;-8.3007;-0.0287;-0.0292;-0.0353;-0.0308
0000067527;15.9645;-8.2504;-0.0431;-0.0197;-0.0284;-0.0344
0000067536;15.9861;-8.1930;0.0239;-0.0137;-0.0232;-0.0245
0000067545;16.1154;-8.1666;-0.0814;-0.0127;-0.0109;-0.0155
0000067554;16.0483;-8.3007;0.0766;-0.0060;-0.0096;-0.0262
0000067563;16.0340;-8.1858;0.0192;-0.0092;-0.0035;-0.0197
0000067572;15.9597;-8.2384;0.1101;-0.0156;0.0019;-0.0161
0000067716;15.8903;-8.2624;0.1772;-0.0164;-0.0195;-0.0051
0000067725;15.9645;-8.2935;0.0622;-0.0156;-0.0245;-0.0097
0000067734;16.1489;-8.2145;0.0982;-0.0161;-0.0234;-0.0097
0000067743;15.9645;-8.2313;0.0646;-0.0148;-0.0244;-0.0125
0000067752;16.0795;-8.1331;0.0742;-0.0117;-0.0236;-0.0143
0000067761;15.7945;-8.3558;0.1389;-0.0109;-0.0272;-0.0128
0000067770;15.9765;-8.2456;0.0910;-0.0125;-0.0256;-0.0197
0000067779;15.9190;-8.4324;0.0455;-0.0152;-0.0193;-0.0139
0000067788;15.9167;-8.2887;0.0622;-0.0161;-0.0232;-0.0244
0000067797;16.0268;-8.2193;0.1508;-0.0117;-0.0276;-0.0229
0000067806;15.9550;-8.4156;0.2035;-0.0140;-0.0294;-0.0284
0000067815;16.0244;-8.2911;0.1053;-0.0205;-0.0276;-0.0192
0000067824;16.1417;-8.0445;0.1724;-0.0183;-0.0256;-0.0197
0000067833;15.9981;-8.2863;0.1748;-0.0145;-0.0364;-0.0246
0000067842;16.0316;-8.2121;0.1053;-0.0179;-0.0349;-0.0165
0000067851;15.8520;-8.3079;0.1173;-0.0216;-0.0374;-0.0124
0000067860;16.0986;-8.2959;0.1341;-0.0120;-0.0436;-0.0172
0000067869;15.9574;-8.3127;0.1939;-0.0211;-0.0392;-0.0131
0000067878;16.2087;-8.1547;0.1101;-0.0165;-0.0428;-0.0177
0000067887;15.9957;-8.2600;0.1317;-0.0165;-0.0357;-0.0112
0000067896;15.9957;-8.1906;0.0670;-0.0177;-0.0297;-0.0075
0000067905;16.0268;-8.1666;0.0072;-0.0097;-0.0280;-0.0059
0000067914;16.0292;-8.1954;0.0263;-0.0073;-0.0265;-0.0064
0000067923;16.0052;-8.2265;0.0048;-0.0129;-0.0197;0.0013
0000067932;15.9238;-8.3941;0.0670;-0.0141;-0.0209;-0.0011
0000067941;16.1130;-8.1475;0.1293;-0.0085;-0.0207;-0.0051
0000067950;16.0100;-8.4396;0.1245;-0.0120;-0.0159;-0.0028
0000067959;16.0100;-8.3773;0.1652;-0.0060;-0.0201;-0.0097
0000067968;15.9765;-8.4013;0.1580;-0.0163;-0.0097;-0.0032
0000067977;16.0890;-8.1858;0.0766;-0.0135;-0.0107;-0.0084
0000067986;15.9789;-8.1834;0.0718;-0.0096;-0.0183;-0.0067
0000067995;16.1824;-8.2121;0.1101;-0.0149;-0.0108;-0.0044
0000068004;16.0100;-8.2768;0.1053;-0.0140;-0.0125;-0.0063
0000068013;15.8783;-8.2672;0.1915;-0.0085;-0.0203;-0.0115
0000068022;15.9933;-8.2145;0.1724;-0.0183;-0.0141;-0.0047
0000068031;15.9358;-8.3821;0.1006;-0.0141;-0.0216;-0.0185
0000068040;15.9214;-8.2935;0.0670;-0.0113;-0.0238;-0.0179
0000068049;15.8855;-8.2744;0.2298;-0.0163;-0.0272;-0.0207
0000068058;15.9621;-8.2911;0.1341;-0.0171;-0.0276;-0.0172
0000068067;16.0412;-8.1762;0.2107;-0.0137;-0.0289;-0.0208
0000068076;16.1106;-8.2241;0.1772;-0.0177;-0.0226;-0.0196
0000068085;15.9334;-8.4060;0.1197;-0.0208;-0.0260;-0.0185
0000068094;16.0172;-8.3055;0.1006;-0.0123;-0.0234;-0.0147
0000068103;15.9837;-8.3222;0.1939;-0.0159;-0.0310;-0.0161
0000068112;15.9119;-8.2648;0.2466;-0.0229;-0.0256;-0.0152
0000068121;15.9574;-8.2791;0.1532;-0.0171;-0.0328;-0.0192
0000068130;16.0316;-8.2887;0.2251;-0.0127;-0.0389;-0.0163
0000068139;16.0819;-8.3079;0.1891;-0.0220;-0.0341;-0.0141
0000068148;16.0699;-8.3246;0.2011;-0.0128;-0.0449;-0.0192
0000068157;16.1537;-8.2025;0.1508;-0.0144;-0.0456;-0.0175
0000068166;15.9933;-8.1882;0.0694;-0.0200;-0.0460;-0.0151
0000068175;15.8999;-8.1714;0.0694;-0.0120;-0.0422;-0.0167
0000068184;15.8137;-8.2959;0.0024;-0.0172;-0.0273;-0.0071
0000068193;16.0005;-8.2672;0.1389;-0.0079;-0.0249;-0.0049
0000068202;16.0435;-8.2049;0.1006;-0.0108;-0.0226;-0.0085
0000068211;15.9023;-8.3869;0.1700;-0.0067;-0.0193;-0.0093
0000068220;16.1537;-8.1163;0.1173;-0.0091;-0.0155;-0.0020
0000068229;16.1680;-8.2791;0.1221;-0.0119;-0.0237;-0.0009
0000068238;16.0986;-8.2911;0.1221;-0.0071;-0.0232;-0.0019
0000068247;16.0603;-8.2911;0.1269;-0.0104;-0.0234;-0.0039
0000068256;16.0459;-8.2720;0.1508;-0.0156;-0.0222;-0.0005
0000068265;15.8951;-8.4156;0.2298;-0.0115;-0.0270;-0.0079
0000068274;15.9597;-8.3989;0.1365;-0.0113;-0.0312;-0.0131
0000068283;16.0268;-8.2408;0.1915;-0.0135;-0.0321;-0.0103
0000068292;16.0579;-8.2025;0.1269;-0.0173;-0.0357;-0.0127
0000068301;15.9645;-8.3175;0.1508;-0.0112;-0.0381;-0.0204
0000068310;15.8496;-8.3031;0.1820;-0.0144;-0.0380;-0.0218
0000068319;15.9909;-8.2432;0.1652;-0.0117;-0.0378;-0.0217
0000068328;15.9861;-8.1451;0.1221;-0.0192;-0.0313;-0.0157
0000068416;15.9430;-8.2768;0.1580;-0.0177;-0.0432;-0.0139
0000068425;16.1178;-8.2097;0.1652;-0.0196;-0.0521;-0.0213
0000068434;15.9669;-8.3390;0.1269;-0.0128;-0.0466;-0.0141
0000068443;16.0531;-8.2337;0.1341;-0.0115;-0.0506;-0.0165
0000068452;15.9454;-8.3222;0.0910;-0.0147;-0.0370;-0.0119
0000068461;16.0100;-8.2600;0.1077;-0.0149;-0.0390;-0.0119
0000068470;15.9119;-8.2959;0.1556;-0.0108;-0.0334;-0.0120
0000068479;16.1249;-8.1834;0.1844;-0.0105;-0.0390;-0.0096
0000068488;15.9741;-8.3031;0.1460;-0.0099;-0.0341;-0.0083
0000068497;15.9933;-8.2049;0.1580;-0.0111;-0.0376;-0.0041
0000068506;16.0603;-8.1882;0.1101;-0.0075;-0.0396;-0.0104
0000068515;15.9143;-8.3031;0.0383;-0.0115;-0.0302;-0.0071
0000068524;16.1872;-8.1858;0.1652;-0.0117;-0.0289;-0.0071
0000068533;16.0172;-8.3199;0.1341;-0.0088;-0.0385;-0.0137
0000068542;15.9454;-8.2744;0.1891;-0.0109;-0.0353;-0.0132
0000068551;15.9214;-8.2983;0.2083;-0.0153;-0.0294;-0.0121
0000068560;15.9406;-8.2648;0.2514;-0.0105;-0.0370;-0.0149
0000068569;16.2231;-8.2241;0.1508;-0.0155;-0.0352;-0.0115
0000068578;16.0459;-8.1618;0.1508;-0.0133;-0.0374;-0.0144
0000068587;15.9502;-8.2528;0.1197;-0.0117;-0.0405;-0.0171
0000068596;15.8185;-8.3917;0.2059;-0.0155;-0.0409;-0.0113
0000068605;15.9717;-8.3007;0.1341;-0.0153;-0.0466;-0.0141
0000068614;16.0962;-8.2408;0.1939;-0.0145;-0.0490;-0.0160
0000068623;16.0771;-8.0996;0.2346;-0.0204;-0.0466;-0.0188
0000068632;15.8688;-8.3246;0.1030;-0.0151;-0.0572;-0.0229
0000068641;16.0651;-8.3175;0.1413;-0.0163;-0.0536;-0.0165
0000068650;15.9621;-8.3031;0.1317;-0.0145;-0.0544;-0.0191
0000068659;16.0388;-8.2073;0.1245;-0.0164;-0.0509;-0.0200
0000068668;16.1154;-8.1666;0.2011;-0.0137;-0.0500;-0.0175
0000068677;15.9334;-8.4324;0.1030;-0.0173;-0.0420;-0.0139
0000068686;15.9262;-8.3151;0.0646;-0.0155;-0.0500;-0.0135
0000068695;15.8185;-8.4060;0.0934;-0.0076;-0.0488;-0.0184
0000068704;16.2806;-8.1211;0.0790;-0.0183;-0.0425;-0.0101
0000068713;16.1728;-8.0996;0.1365;-0.0173;-0.0429;-0.0127
0000068722;16.0292;-8.1858;0.2274;-0.0165;-0.0414;-0.0100
0000068731;15.9406;-8.3653;0.1987;-0.0105;-0.0474;-0.0191
0000068740;15.9574;-8.2456;0.2107;-0.0147;-0.0421;-0.0104
0000068749;16.0435;-8.2887;0.1101;-0.0167;-0.0456;-0.0200
0000068758;15.9957;-8.2456;0.1125;-0.0109;-0.0549;-0.0234
0000068767;16.0052;-8.1403;0.1389;-0.0183;-0.0462;-0.0163
0000068776;16.0005;-8.1786;0.1676;-0.0153;-0.0412;-0.0120
0000068785;16.0028;-8.2528;0.0311;-0.0096;-0.0421;-0.0088
0000068794;15.9502;-8.3342;0.0431;-0.0119;-0.0324;-0.0032
0000068803;15.9693;-8.3390;0.1508;-0.0053;-0.0317;-0.0072
0000068812;16.0699;-8.0613;0.0982;-0.0048;-0.0349;-0.0088
0000068821;16.1273;-8.2049;0.1437;-0.0072;-0.0265;-0.0011
0000068830;15.9981;-8.2480;0.1245;-0.0033;-0.0341;-0.0053
0000068839;15.9310;-8.4587;0.1604;-0.0069;-0.0313;-0.0032
0000068848;16.0507;-8.4084;0.1939;-0.0149;-0.0364;-0.0063
0000068857;16.1297;-8.2145;0.1293;-0.0073;-0.0410;-0.0108
0000068866;16.0220;-8.3749;0.1891;-0.0112;-0.0430;-0.0160
0000068875;15.9286;-8.3438;0.1317;-0.0140;-0.0410;-0.0153
0000068884;15.9454;-8.2289;0.0718;-0.0140;-0.0458;-0.0183
0000068893;16.0675;-8.1810;0.0599;-0.0133;-0.0448;-0.0171
0000068902;16.0148;-8.2025;0.1293;-0.0173;-0.0385;-0.0175
0000068911;16.1249;-8.1283;0.0886;-0.0128;-0.0452;-0.0208
0000068920;16.1226;-8.2648;0.1006;-0.0117;-0.0417;-0.0183
0000068929;16.0076;-8.2648;0.1484;-0.0208;-0.0356;-0.0180
0000068938;15.9933;-8.3031;0.0383;-0.0135;-0.0418;-0.0209
0000068947;16.0651;-8.2552;0.1341;-0.0115;-0.0445;-0.0238
0000068956;16.0196;-8.1786;0.1652;-0.0215;-0.0420;-0.0203
0000068965;16.0292;-8.3366;0.1341;-0.0195;-0.0445;-0.0163
0000068974;16.0268;-8.2456;0.1269;-0.0180;-0.0424;-0.0161
0000068983;15.9813;-8.3366;0.1604;-0.0147;-0.0498;-0.0169
0000068992;15.9238;-8.3390;0.2035;-0.0145;-0.0425;-0.0137
0000069001;16.0052;-8.3270;0.2203;-0.0137;-0.0445;-0.0172
0000069010;15.9262;-8.3821;0.1532;-0.0145;-0.0465;-0.0179
0000069019;15.9310;-8.1523;0.1891;-0.0193;-0.0477;-0.0149
0000069028;15.9430;-8.2648;0.0742;-0.0136;-0.0498;-0.0169
0000069037;15.8592;-8.4420;0.0646;-0.0171;-0.0446;-0.0149
0000069123;16.1154;-8.2361;0.1341;-0.0011;-0.0369;-0.0104
0000069132;16.1082;-8.2672;0.0838;-0.0124;-0.0326;-0.0103
0000069141;16.0005;-8.2289;0.1053;-0.0112;-0.0397;-0.0164
0000069150;16.0483;-8.2289;0.1437;-0.0136;-0.0364;-0.0105
0000069159;15.9693;-8.2887;0.1844;-0.0156;-0.0348;-0.0107
0000069168;15.9693;-8.3366;0.1963;-0.0129;-0.0401;-0.0165
0000069177;15.9957;-8.2600;0.1293;-0.0149;-0.0342;-0.0101
0000069186;15.9597;-8.4348;0.1987;-0.0109;-0.0390;-0.0191
0000069195;16.0005;-8.3869;0.1149;-0.0171;-0.0388;-0.0152
0000069204;16.0220;-8.2049;0.1604;-0.0180;-0.0417;-0.0207
0000069213;16.0914;-8.1475;0.2155;-0.0125;-0.0466;-0.0183
0000069222;15.9358;-8.3175;0.0766;-0.0225;-0.0386;-0.0117
0000069231;16.1226;-8.1283;0.1604;-0.0152;-0.0433;-0.0175
0000069240;15.9454;-8.3079;0.2083;-0.0160;-0.0476;-0.0184
0000069249;15.9693;-8.3294;0.1508;-0.0136;-0.0373;-0.0145
0000069258;15.9909;-8.3534;0.1269;-0.0161;-0.0436;-0.0181
0000069267;16.0172;-8.2648;0.1293;-0.0147;-0.0436;-0.0161
0000069276;16.0699;-8.1547;0.1030;-0.0181;-0.0386;-0.0123
0000069285;16.0172;-8.2408;0.1030;-0.0151;-0.0482;-0.0183
0000069294;16.0651;-8.1666;0.0024;-0.0157;-0.0436;-0.0128
0000069303;16.0292;-8.3175;0.0072;-0.0176;-0.0422;-0.0163
0000069312;16.1824;-8.0756;0.1772;-0.0124;-0.0388;-0.0133
0000069321;15.7850;-8.3917;0.0910;-0.0161;-0.0408;-0.0135
0000069330;16.0364;-8.2720;0.1820;-0.0107;-0.0417;-0.0167
0000069339;15.9813;-8.2265;0.1317;-0.0121;-0.0338;-0.0092
0000069348;16.0435;-8.1594;0.0694;-0.0109;-0.0377;-0.0155
0000069357;16.0364;-8.1977;0.1676;-0.0169;-0.0360;-0.0127
0000069366;16.0675;-8.2720;0.1317;-0.0121;-0.0385;-0.0125
0000069375;16.1441;-8.2815;0.1221;-0.0167;-0.0320;-0.0079
0000069384;16.0196;-8.3270;0.1724;-0.0067;-0.0432;-0.0171
0000069393;15.9334;-8.3294;0.0742;-0.0147;-0.0394;-0.0184
0000069402;15.9167;-8.2815;0.0527;-0.0179;-0.0402;-0.0147
0000069411;16.1058;-8.1882;0.0958;-0.0097;-0.0420;-0.0143
0000069420;15.7922;-8.3653;-0.0168;-0.0127;-0.0357;-0.0144
0000069429;16.0172;-8.2456;0.0910;-0.0076;-0.0361;-0.0093
0000069438;16.0579;-8.1331;0.0431;-0.0132;-0.0228;-0.0087
0000069447;16.0244;-8.2576;0.1413;-0.0081;-0.0282;-0.0127
0000069456;15.9454;-8.3079;0.1796;-0.0008;-0.0328;-0.0100
0000069465;15.9693;-8.2241;0.1963;-0.0101;-0.0316;-0.0048
0000069474;16.1393;-8.1977;0.1341;-0.0016;-0.0340;-0.0032
0000069483;16.1417;-8.1618;0.1030;-0.0092;-0.0318;0.0045
0000069492;16.0244;-8.3079;0.1915;-0.0119;-0.0298;-0.0041
0000069501;16.0627;-8.2265;0.2155;-0.0105;-0.0406;-0.0113
0000069510;15.9406;-8.2839;0.0503;-0.0125;-0.0369;-0.0108
0000069519;15.9262;-8.3270;0.0383;-0.0181;-0.0304;-0.0121
0000069528;15.9334;-8.2456;0.1077;-0.0119;-0.0424;-0.0216
0000069537;15.9645;-8.2672;0.0958;-0.0164;-0.0380;-0.0151
0000069546;15.9047;-8.2313;0.1796;-0.0137;-0.0450;-0.0209
0000069555;15.9885;-8.2169;0.1844;-0.0163;-0.0392;-0.0152
0000069564;16.0723;-8.2217;0.1030;-0.0141;-0.0416;-0.0189
0000069573;16.0268;-8.2552;0.1269;-0.0163;-0.0373;-0.0141
0000069582;15.9454;-8.2983;0.1556;-0.0192;-0.0386;-0.0169
0000069591;16.0316;-8.2169;0.2059;-0.0160;-0.0414;-0.0165
0000069600;16.1800;-8.1547;0.1125;-0.0195;-0.0456;-0.0205
0000069609;15.9861;-8.2983;0.1341;-0.0137;-0.0476;-0.0189
0000069618;16.0412;-8.2025;0.2059;-0.0099;-0.0490;-0.0201
0000069627;16.0866;-8.1690;0.1269;-0.0187;-0.0477;-0.0132
0000069636;16.1848;-8.1379;0.1508;-0.0120;-0.0530;-0.0163
0000069645;15.9717;-8.2959;0.0718;-0.0152;-0.0472;-0.0171
0000069654;15.9909;-8.4803;0.1221;-0.0169;-0.0412;-0.0159
0000069663;16.1345;-8.2121;0.1484;-0.0144;-0.0464;-0.0203
0000069672;16.0459;-8.3246;0.0694;-0.0181;-0.0421;-0.0135
0000069681;16.1010;-8.1547;0.1030;-0.0107;-0.0486;-0.0195
0000069690;16.0555;-8.1427;0.0718;-0.0124;-0.0502;-0.0133
0000069699;15.9813;-8.2528;0.0215;-0.0083;-0.0456;-0.0151
0000069708;15.9454;-8.3629;0.0527;-0.0127;-0.0366;-0.0125
0000069717;16.0507;-8.2001;0.0742;-0.0105;-0.0317;-0.0065
0000069726;16.1992;-8.0709;0.2011;-0.0109;-0.0341;-0.0049
0000069735;16.0579;-8.2025;0.0646;-0.0081;-0.0352;-0.0053
0000069821;16.0842;-8.2983;0.1365;-0.0127;-0.0389;-0.0183
0000069830;15.9119;-8.2672;0.2035;-0.0132;-0.0432;-0.0164
0000069839;16.0531;-8.1642;0.1676;-0.0201;-0.0414;-0.0116
0000069848;16.0938;-8.2672;0.1101;-0.0129;-0.0426;-0.0145
0000069857;16.0076;-8.2097;0.0455;-0.0209;-0.0377;-0.0129
0000069866;16.2064;-8.1163;0.1245;-0.0133;-0.0433;-0.0177
0000069875;16.0076;-8.3151;0.1700;-0.0187;-0.0437;-0.0179
0000069884;16.1273;-8.0804;0.0670;-0.0177;-0.0398;-0.0144
0000069893;16.0483;-8.2001;0.0910;-0.0167;-0.0413;-0.0149
0000069902;15.9957;-8.3079;0.0599;-0.0137;-0.0417;-0.0185
0000069911;16.0435;-8.1068;0.1173;-0.0141;-0.0364;-0.0085
0000069920;16.1273;-8.2049;0.1915;-0.0157;-0.0388;-0.0117
0000069929;16.0531;-8.2361;0.0814;-0.0095;-0.0388;-0.0096
0000069938;15.9885;-8.1355;0.0694;-0.0108;-0.0449;-0.0135
0000069947;15.9933;-8.2576;0.1006;-0.0139;-0.0414;-0.0129
0000069956;15.7993;-8.5210;0.1772;-0.0108;-0.0460;-0.0181
0000069965;15.9262;-8.3031;0.0215;-0.0139;-0.0378;-0.0108
0000069974;15.8352;-8.4156;0.1389;-0.0153;-0.0418;-0.0172
0000069983;15.9933;-8.1379;0.0718;-0.0103;-0.0409;-0.0171
0000069992;16.0819;-8.1930;0.1197;-0.0092;-0.0381;-0.0147
0000070001;15.8807;-8.3199;0.1652;-0.0152;-0.0318;-0.0080
0000070010;16.0148;-8.2408;0.0407;-0.0141;-0.0345;-0.0103
0000070019;16.1082;-8.0828;0.0814;-0.0084;-0.0373;-0.0156
0000070028;16.0651;-8.2408;0.1245;-0.0149;-0.0316;-0.0080
0000070037;16.0268;-8.2289;0.1580;-0.0147;-0.0361;-0.0117
0000070046;15.9382;-8.2935;0.0766;-0.0167;-0.0372;-0.0125
0000070055;16.0507;-8.3151;0.1149;-0.0129;-0.0366;-0.0137
0000070064;16.2183;-8.2145;0.1604;-0.0145;-0.0356;-0.0128
0000070073;16.0196;-8.3127;0.1245;-0.0139;-0.0397;-0.0156
0000070082;15.9933;-8.2696;0.1460;-0.0199;-0.0388;-0.0167
0000070091;15.9717;-8.1379;0.2562;-0.0167;-0.0466;-0.0163
0000070100;16.1752;-8.1906;0.1437;-0.0128;-0.0424;-0.0093
0000070109;15.9358;-8.2480;0.0622;-0.0159;-0.0361;-0.0116
0000070118;15.9071;-8.5114;0.1197;-0.0068;-0.0390;-0.0145
0000070127;15.8927;-8.3175;0.1365;-0.0108;-0.0268;-0.0113
0000070136;15.8496;-8.3199;0.1173;-0.0144;-0.0316;-0.0093
0000070145;16.0675;-8.2648;0.1460;-0.0101;-0.0445;-0.0117
0000070154;15.9358;-8.2815;0.0503;-0.0065;-0.0392;-0.0025
0000070163;16.1489;-8.1714;0.0838;-0.0149;-0.0385;0.0013
0000070172;15.9238;-8.3821;0.1341;-0.0095;-0.0380;-0.0108
0000070181;16.0292;-8.3701;0.0407;-0.0111;-0.0364;-0.0075
0000070190;16.0076;-8.3486;0.0670;-0.0159;-0.0310;-0.0063
0000070199;15.9310;-8.3869;0.0503;-0.0173;-0.0322;-0.0171
0000070208;16.0507;-8.1738;0.1269;-0.0116;-0.0408;-0.0200
0000070215;16.0244;-8.2384;0.1532;-0.0119;-0.0398;-0.0183
0000070223;15.9502;-8.3270;0.0862;-0.0199;-0.0356;-0.0169
0000070231;15.8975;-8.2983;0.1460;-0.0193;-0.0408;-0.0187
0000070239;15.8927;-8.3582;0.1580;-0.0139;-0.0414;-0.0234
0000070247;16.0555;-8.2456;0.0934;-0.0185;-0.0404;-0.0220
0000070255;16.0555;-8.2863;0.1748;-0.0173;-0.0388;-0.0224
0000070263;16.2566;-8.0756;0.1748;-0.0147;-0.0458;-0.0256
0000070271;16.0435;-8.1882;0.0766;-0.0196;-0.0413;-0.0180
0000070279;16.0124;-8.2552;0.0694;-0.0155;-0.0434;-0.0188
0000070287;15.8688;-8.2935;0.1197;-0.0221;-0.0441;-0.0176
0000070295;15.9717;-8.2265;0.2298;-0.0159;-0.0501;-0.0172
0000070303;15.9861;-8.2001;0.1580;-0.0173;-0.0574;-0.0207
0000070311;16.1010;-8.2001;0.0503;-0.0203;-0.0516;-0.0148
0000070319;16.0220;-8.3246;0.0215;-0.0177;-0.0461;-0.0183
