time;acc_x;acc_y;acc_z;gyro_x;gyro_y;gyro_z
0000007121;5.6671;2.8994;-1.7238;-0.0781;-0.0266;-0.0282
0000007129;5.8754;3.0502;-1.6352;-0.0766;-0.0269;-0.0286
0000007136;5.6814;2.8778;-1.6640;-0.0814;-0.0212;-0.0189
0000007144;5.8754;2.9377;-1.6759;-0.0881;-0.0116;-0.0073
0000007152;5.6288;2.8084;-1.6568;-0.0933;-0.0104;0.0011
0000007160;5.7150;2.7246;-1.5850;-0.0811;-0.0100;0.0012
0000007168;5.8227;2.7581;-1.6233;-0.0779;-0.0029;0.0027
0000007176;5.6862;2.5714;-1.6520;-0.0633;-0.0091;0.0000
0000007184;5.6192;2.4660;-1.5969;-0.0494;-0.0039;0.0001
0000007192;5.6024;2.5618;-1.6664;-0.0398;-0.0084;-0.0016
0000007200;5.4851;2.5331;-1.6400;-0.0302;-0.0117;-0.0053
0000007208;5.4564;2.5762;-1.7526;-0.0143;-0.0155;-0.0107
0000007216;5.4588;2.6456;-1.7693;-0.0097;-0.0191;-0.0103
0000007224;5.5186;2.7102;-1.7597;-0.0112;-0.0160;-0.0012
0000007232;5.4133;2.8276;-1.8747;-0.0185;-0.0132;0.0061
0000007240;5.3343;2.8443;-1.8627;-0.0144;-0.0171;0.0105
0000007248;5.4324;2.7126;-1.7980;-0.0063;-0.0230;0.0127
0000007256;5.4971;2.7869;-1.7597;-0.0129;-0.0207;0.0200
0000007264;5.4253;2.5857;-1.7765;-0.0104;-0.0175;0.0143
0000007272;5.7150;2.6552;-1.7166;-0.0037;-0.0160;0.0036
0000007280;5.4133;2.5857;-1.7358;0.0040;-0.0207;-0.0076
0000007288;5.3702;2.6384;-1.8148;0.0140;-0.0230;-0.0147
0000007296;5.3103;2.5570;-1.7549;0.0207;-0.0163;-0.0057
0000007304;5.5689;2.7964;-1.8028;0.0389;-0.0147;-0.0072
0000007312;5.5593;2.9042;-1.8699;0.0420;-0.0071;0.0025
0000007320;5.5952;2.9113;-1.7502;0.0398;-0.0029;0.0125
0000007328;5.5426;2.9544;-1.8220;0.0365;-0.0112;0.0147
0000007336;5.5234;2.9736;-1.9130;0.0249;-0.0097;0.0278
0000007344;5.6647;2.9066;-1.8220;0.0117;-0.0128;0.0362
0000007352;5.5857;2.9137;-1.8747;0.0051;-0.0033;0.0505
0000007360;5.6814;2.8706;-1.8196;0.0077;-0.0124;0.0468
0000007368;5.8706;3.0598;-1.8675;0.0035;-0.0139;0.0544
0000007376;5.8634;2.9975;-1.8723;-0.0067;-0.0091;0.0509
0000007384;6.0382;2.9975;-1.7214;-0.0163;-0.0107;0.0421
0000007392;5.8323;2.7318;-1.7957;-0.0213;-0.0111;0.0294
0000007400;5.8275;2.9425;-1.8627;-0.0215;-0.0075;0.0242
0000007408;5.8227;2.8156;-1.7238;-0.0330;0.0063;0.0233
0000007416;5.7748;2.8276;-1.8076;-0.0370;0.0144;0.0277
0000007424;5.7700;2.7342;-1.7190;-0.0321;0.0100;0.0229
0000007432;5.7030;2.7581;-1.7262;-0.0328;0.0212;0.0296
0000007440;5.9233;2.8898;-1.8028;-0.0389;0.0322;0.0349
0000007448;5.8610;2.9664;-1.7286;-0.0353;0.0277;0.0300
0000007456;5.8586;2.8443;-1.7238;-0.0382;0.0382;0.0292
0000007464;5.8227;2.8180;-1.7669;-0.0412;0.0470;0.0328
0000007472;5.7748;2.8467;-1.6951;-0.0409;0.0465;0.0280
0000007480;5.7293;2.7845;-1.6305;-0.0385;0.0402;0.0248
0000007488;5.8969;2.7318;-1.6328;-0.0460;0.0382;0.0353
0000007496;5.8347;2.7581;-1.7166;-0.0501;0.0366;0.0350
0000007504;5.6551;2.6647;-1.6831;-0.0512;0.0301;0.0310
0000007512;5.7557;2.8012;-1.7765;-0.0529;0.0248;0.0304
0000007520;5.6264;2.7653;-1.6879;-0.0590;0.0338;0.0266
0000007528;5.5833;2.6264;-1.7382;-0.0433;0.0408;0.0205
0000007536;5.6767;2.6408;-1.7334;-0.0195;0.0345;0.0185
0000007544;5.7748;2.6121;-1.6424;-0.0067;0.0309;0.0261
0000007552;5.7868;2.7821;-1.6975;-0.0145;0.0269;0.0301
0000007560;5.6647;2.6983;-1.5395;-0.0282;0.0280;0.0342
0000007568;5.9664;2.9233;-1.7406;-0.0269;0.0378;0.0285
0000007576;5.9711;2.8132;-1.8220;-0.0005;0.0530;0.0124
0000007584;5.8131;2.5307;-1.7597;0.0132;0.0735;0.0040
0000007592;6.0071;2.4828;-1.7214;0.0137;0.0841;0.0013
0000007600;5.8395;2.6312;-1.8052;0.0440;0.0835;0.0035
0000007608;5.8371;2.7629;-1.8747;0.0480;0.0809;0.0131
0000007616;5.9161;3.0143;-1.8196;0.0249;0.0750;0.0268
0000007624;5.8059;3.1556;-1.9178;0.0029;0.0721;0.0353
0000007632;5.7437;3.1603;-1.7526;-0.0079;0.0673;0.0334
0000007640;5.7581;2.9090;-1.7071;-0.0373;0.0673;0.0332
0000007648;5.7533;2.8371;-1.7262;-0.0340;0.0594;0.0248
0000007656;5.5474;2.9113;-1.8627;0.0104;0.0530;0.0163
0000007664;5.5617;2.8347;-1.8818;0.0123;0.0502;0.0273
0000007672;5.7988;3.0191;-1.7909;-0.0048;0.0414;0.0326
0000007680;5.6719;2.8347;-1.7286;-0.0137;0.0289;0.0330
0000007688;5.6264;2.5426;-1.6664;-0.0301;0.0172;0.0349
0000007809;5.7221;2.8347;-1.8124;-0.0095;-0.0256;0.0450
0000007817;5.6264;2.9760;-1.9537;0.0129;-0.0296;0.0518
0000007825;5.6312;3.1795;-2.0710;-0.0127;-0.0374;0.0582
0000007833;5.5019;2.9951;-2.1548;-0.0493;-0.0436;0.0654
0000007841;5.7174;3.1149;-2.0710;-0.0779;-0.0456;0.0681
0000007849;5.9520;3.1508;-1.9465;-0.1002;-0.0377;0.0717
0000007857;6.1124;3.2370;-1.7980;-0.1154;-0.0237;0.0713
0000007865;6.2417;3.1580;-1.7717;-0.1163;-0.0184;0.0721
0000007873;6.0358;2.8946;-1.7813;-0.1163;-0.0205;0.0638
0000007881;5.9759;2.7773;-1.6951;-0.1110;-0.0298;0.0480
0000007889;5.7221;2.6887;-1.6999;-0.1059;-0.0412;0.0397
0000007897;5.7485;2.5714;-1.5993;-0.1031;-0.0552;0.0282
0000007905;5.6192;2.5690;-1.4844;-0.0995;-0.0731;0.0180
0000007913;5.8179;2.7246;-1.5323;-0.1065;-0.0821;0.0211
0000007921;5.9041;2.8515;-1.5299;-0.1120;-0.0926;0.0164
0000007929;6.1435;3.0215;-1.5610;-0.1164;-0.1050;0.0173
0000007937;6.1435;3.0933;-1.4892;-0.1327;-0.0983;0.0281
0000007945;6.2058;3.1053;-1.3910;-0.1507;-0.1067;0.0209
0000007953;6.1435;3.2753;-1.2929;-0.1729;-0.1010;0.0246
0000007961;5.9831;2.9880;-1.2761;-0.1966;-0.0879;0.0264
0000007969;6.1196;2.8060;-1.0558;-0.2032;-0.0837;0.0396
0000007977;6.3159;2.8611;-1.0918;-0.1809;-0.0971;0.0500
0000007985;6.3782;2.5211;-1.3527;-0.1446;-0.1224;0.0386
0000007993;6.1316;2.4469;-1.3910;-0.1029;-0.1541;0.0185
0000008001;5.7150;2.3320;-1.3096;-0.0810;-0.1835;-0.0149
0000008009;5.8442;2.4924;-1.3623;-0.0564;-0.2112;-0.0558
0000008017;5.8299;2.5163;-1.3168;-0.0336;-0.2260;-0.0999
0000008025;5.7652;2.4277;-1.4102;-0.0169;-0.2222;-0.1120
0000008033;6.1459;2.7031;-1.6759;-0.0075;-0.2085;-0.1107
0000008041;6.4452;2.6432;-1.6735;-0.0099;-0.1884;-0.0977
0000008049;6.5505;2.7390;-1.6879;-0.0124;-0.1640;-0.0624
0000008057;6.7732;2.9449;-1.6568;-0.0365;-0.1175;-0.0191
0000008065;6.9336;3.0335;-1.6759;-0.0473;-0.0671;0.0163
0000008073;6.9599;2.9975;-1.5706;-0.0582;-0.0270;0.0498
0000008081;6.8378;2.9329;-1.4988;-0.0581;0.0036;0.0517
0000008089;6.3422;2.9042;-1.4102;-0.0540;0.0201;0.0494
0000008097;6.1986;2.9137;-1.3982;-0.0490;0.0215;0.0306
0000008105;5.8730;2.9137;-1.3551;-0.0366;0.0061;0.0053
0000008113;5.7174;2.8060;-1.2426;-0.0261;-0.0107;-0.0147
0000008121;5.7916;2.9664;-1.4126;-0.0213;-0.0366;-0.0376
0000008129;5.7604;2.9975;-1.4269;-0.0213;-0.0542;-0.0560
0000008137;5.9137;2.9329;-1.4892;-0.0280;-0.0685;-0.0626
0000008145;5.7461;2.9209;-1.4078;-0.0404;-0.0618;-0.0617
0000008153;6.0071;2.9616;-1.5419;-0.0572;-0.0546;-0.0501
0000008161;5.8873;2.8443;-1.5395;-0.0646;-0.0553;-0.0384
0000008169;5.8395;3.0215;-1.5514;-0.0742;-0.0482;-0.0276
0000008177;5.9376;2.8922;-1.4533;-0.0765;-0.0489;-0.0237
0000008185;5.6695;2.8132;-1.4461;-0.0701;-0.0417;-0.0208
0000008193;5.6647;2.8946;-1.4796;-0.0620;-0.0284;-0.0101
0000008201;5.8275;2.8946;-1.5155;-0.0618;-0.0354;-0.0103
0000008209;5.5545;2.8108;-1.4413;-0.0573;-0.0441;-0.0201
0000008217;5.7892;2.8347;-1.4916;-0.0532;-0.0556;-0.0325
0000008225;5.7365;2.7821;-1.4581;-0.0590;-0.0609;-0.0396
0000008233;5.8227;2.6217;-1.4988;-0.0542;-0.0642;-0.0454
0000008241;5.9951;2.5762;-1.5323;-0.0426;-0.0569;-0.0604
0000008249;6.0645;2.5953;-1.5443;-0.0242;-0.0529;-0.0653
0000008257;6.0214;2.4876;-1.5969;-0.0137;-0.0496;-0.0711
0000008265;5.7628;2.4660;-1.5993;-0.0088;-0.0398;-0.0562
0000008273;5.9544;2.7653;-1.5610;0.0000;-0.0361;-0.0525
0000008281;5.7269;2.7054;-1.5945;0.0109;-0.0394;-0.0466
0000008289;5.8131;2.8994;-1.6592;0.0119;-0.0434;-0.0366
0000008297;5.7604;3.0287;-1.5347;0.0145;-0.0490;-0.0314
0000008305;5.8275;2.9497;-1.6113;0.0115;-0.0545;-0.0253
0000008313;5.9089;3.0215;-1.5778;0.0061;-0.0605;-0.0242
0000008321;5.9113;2.9449;-1.4485;0.0093;-0.0663;-0.0215
0000008329;5.8897;2.9592;-1.5107;0.0064;-0.0646;-0.0211
0000008337;5.8203;2.8180;-1.5060;0.0131;-0.0686;-0.0246
0000008345;5.7844;2.7892;-1.4796;0.0113;-0.0625;-0.0230
0000008353;5.9400;2.8563;-1.4820;0.0125;-0.0669;-0.0306
0000008361;5.8993;2.8850;-1.4724;0.0093;-0.0601;-0.0341
0000008369;5.6982;2.9113;-1.5754;0.0105;-0.0670;-0.0310
0000008377;5.7628;2.8683;-1.5347;0.0005;-0.0649;-0.0229
0000008407;5.7365;2.9281;-1.4557;-0.0276;-0.0726;-0.0318
0000008415;5.9711;3.0646;-1.4437;-0.0349;-0.0709;-0.0276
0000008423;5.9975;2.9592;-1.4222;-0.0392;-0.0689;-0.0226
0000008431;6.1842;3.1268;-1.4533;-0.0358;-0.0694;-0.0222
0000008439;5.9448;2.9257;-1.4605;-0.0329;-0.0762;-0.0217
0000008447;5.8107;2.7270;-1.3048;-0.0362;-0.0693;-0.0156
0000008455;5.9352;2.7414;-1.4485;-0.0332;-0.0665;-0.0195
0000008463;6.0741;2.7414;-1.4413;-0.0316;-0.0701;-0.0216
0000008471;5.9903;2.8515;-1.4341;-0.0232;-0.0741;-0.0262
0000008479;5.9975;2.7869;-1.4892;-0.0208;-0.0653;-0.0236
0000008487;5.9065;2.7054;-1.4533;-0.0218;-0.0598;-0.0168
0000008495;5.8730;2.8060;-1.4174;-0.0204;-0.0589;-0.0152
0000008503;5.9280;3.0047;-1.5514;-0.0143;-0.0585;-0.0164
0000008511;5.9448;2.9975;-1.4629;-0.0124;-0.0566;-0.0171
0000008519;5.8754;2.8204;-1.4222;-0.0185;-0.0497;-0.0124
0000008527;5.8107;2.8156;-1.4772;-0.0156;-0.0472;-0.0120
0000008535;5.9831;2.9880;-1.4078;-0.0175;-0.0521;-0.0129
0000008543;5.9400;2.9018;-1.4748;-0.0191;-0.0488;-0.0111
0000008551;5.8849;3.0095;-1.4964;-0.0241;-0.0468;-0.0103
0000008559;5.9113;2.9090;-1.5658;-0.0261;-0.0526;-0.0181
0000008567;5.9113;2.9401;-1.5395;-0.0312;-0.0536;-0.0156
0000008575;5.8227;2.7605;-1.4916;-0.0226;-0.0614;-0.0270
0000008583;5.8682;2.9185;-1.5443;-0.0245;-0.0624;-0.0280
0000008591;5.7676;2.7509;-1.5993;-0.0161;-0.0694;-0.0254
0000008599;5.8251;2.8299;-1.5299;-0.0171;-0.0636;-0.0196
0000008607;5.6790;2.7821;-1.4389;-0.0213;-0.0658;-0.0140
0000008615;5.9496;2.9712;-1.4772;-0.0258;-0.0662;-0.0128
0000008623;5.8730;2.7821;-1.5179;-0.0248;-0.0624;-0.0128
0000008631;5.8610;2.6600;-1.5227;-0.0229;-0.0626;-0.0173
0000008639;6.0717;2.7629;-1.5682;-0.0135;-0.0640;-0.0238
0000008647;5.9999;2.7366;-1.5682;-0.0071;-0.0636;-0.0248
0000008655;6.0023;2.6791;-1.5969;-0.0077;-0.0544;-0.0268
0000008663;6.1268;2.8252;-1.5203;-0.0025;-0.0553;-0.0286
0000008671;5.8538;2.7605;-1.5012;-0.0023;-0.0518;-0.0266
0000008679;5.9017;2.8132;-1.5443;-0.0033;-0.0506;-0.0246
0000008687;5.9592;2.9856;-1.5754;-0.0069;-0.0482;-0.0209
0000008695;5.8179;2.8491;-1.5874;-0.0020;-0.0517;-0.0200
0000008703;5.9448;2.9928;-1.6041;-0.0105;-0.0450;-0.0116
0000008711;5.7892;2.9161;-1.5443;-0.0137;-0.0461;-0.0108
0000008719;5.8179;2.9329;-1.5443;-0.0266;-0.0466;-0.0040
0000008727;5.8538;2.9377;-1.5658;-0.0265;-0.0494;-0.0039
0000008735;5.7102;2.8563;-1.4844;-0.0333;-0.0442;-0.0073
0000008743;5.9328;2.8347;-1.5203;-0.0393;-0.0404;-0.0079
0000008751;5.7461;2.7869;-1.5203;-0.0386;-0.0485;-0.0159
0000008759;5.6982;2.7916;-1.4389;-0.0364;-0.0505;-0.0193
0000008767;5.9161;2.8706;-1.4341;-0.0389;-0.0493;-0.0189
0000008775;5.8251;2.7749;-1.4724;-0.0420;-0.0474;-0.0203
0000008783;5.9592;2.8539;-1.4437;-0.0374;-0.0549;-0.0222
0000008791;5.9472;2.7964;-1.3838;-0.0346;-0.0474;-0.0196
0000008799;6.0956;2.8371;-1.4653;-0.0222;-0.0494;-0.0196
0000008807;5.8538;2.8683;-1.4293;-0.0208;-0.0445;-0.0113
0000008815;6.0262;3.0047;-1.3695;-0.0179;-0.0421;-0.0088
0000008823;5.8610;2.8180;-1.3695;-0.0172;-0.0384;-0.0067
0000008831;5.8706;2.7988;-1.4748;-0.0120;-0.0365;-0.0072
0000008839;5.9999;2.8180;-1.4557;-0.0113;-0.0408;-0.0131
0000008847;5.8107;2.8323;-1.5514;-0.0088;-0.0345;-0.0139
0000008855;5.8466;2.9113;-1.3886;-0.0124;-0.0292;-0.0060
0000008863;5.6862;2.7821;-1.4533;-0.0145;-0.0250;-0.0155
0000008871;5.5833;2.7102;-1.4341;-0.0121;-0.0374;-0.0123
0000008879;5.7269;2.8970;-1.4341;-0.0160;-0.0364;-0.0120
0000008887;5.6743;2.8970;-1.4581;-0.0152;-0.0418;-0.0156
0000008895;5.7245;2.8252;-1.4030;-0.0181;-0.0386;-0.0137
0000008903;5.7317;2.8156;-1.3743;-0.0241;-0.0417;-0.0131
0000008911;5.9735;2.8850;-1.3958;-0.0188;-0.0424;-0.0144
0000008919;5.7197;2.8252;-1.3479;-0.0218;-0.0434;-0.0144
0000008927;5.7413;2.6217;-1.3838;-0.0218;-0.0362;-0.0105
0000008935;5.9256;2.8778;-1.4581;-0.0286;-0.0360;-0.0127
0000008943;5.8371;2.8778;-1.4605;-0.0266;-0.0373;-0.0096
0000008951;5.7964;2.8371;-1.3862;-0.0284;-0.0405;-0.0185
0000008959;5.9065;2.8036;-1.4629;-0.0216;-0.0444;-0.0197
0000009045;5.9496;3.0526;-1.4269;-0.0532;-0.0063;-0.0163
0000009053;5.9927;2.9616;-1.4413;-0.0626;0.0000;-0.0117
0000009061;5.9520;3.1053;-1.4198;-0.0725;0.0087;-0.0200
0000009069;5.8347;2.9521;-1.3743;-0.0747;0.0091;-0.0241
0000009077;5.8490;2.8683;-1.4293;-0.0791;0.0163;-0.0297
0000009085;5.8826;3.0430;-1.4700;-0.0850;0.0226;-0.0370
0000009093;5.9089;3.1077;-1.4868;-0.0977;0.0221;-0.0488
0000009101;5.8538;3.2322;-1.5419;-0.1183;0.0313;-0.0565
0000009109;5.8347;3.1364;-1.5443;-0.1491;0.0468;-0.0618
0000009117;5.8514;3.3662;-1.7238;-0.1827;0.0490;-0.0746
0000009125;5.6264;3.4740;-1.6209;-0.2268;0.0667;-0.0893
0000009133;5.7341;3.6464;-1.5802;-0.2798;0.0811;-0.1023
0000009141;5.6312;3.6919;-1.4988;-0.3316;0.1022;-0.1079
0000009149;5.6216;3.6129;-1.2785;-0.3822;0.1116;-0.1057
0000009157;5.7628;3.5937;-1.2115;-0.4217;0.1067;-0.1120
0000009165;5.9831;3.7038;-1.2641;-0.4409;0.1079;-0.1143
0000009173;5.7365;3.2801;-1.3168;-0.4651;0.1011;-0.1358
0000009181;5.9520;3.4333;-1.4078;-0.4940;0.0987;-0.1536
0000009189;5.9065;3.4477;-1.3455;-0.5148;0.0926;-0.1721
0000009197;5.7964;3.4836;-1.3240;-0.5485;0.0831;-0.2021
0000009205;5.8993;3.3830;-1.1732;-0.5658;0.0557;-0.2309
0000009213;5.7581;3.3303;-1.0798;-0.5995;0.0228;-0.2380
0000009221;5.8059;3.1244;-1.2067;-0.6213;-0.0155;-0.2397
0000009229;5.6958;3.3112;-1.0942;-0.6431;-0.0601;-0.2530
0000009237;5.8083;3.4237;-1.1277;-0.6578;-0.1046;-0.2575
0000009245;5.6288;3.4620;-1.0942;-0.6917;-0.1520;-0.2661
0000009253;5.5545;3.5937;-1.1732;-0.7027;-0.2086;-0.2697
0000009261;5.9209;4.3000;-0.6584;-0.5910;-0.3255;-0.4537
0000009269;6.1411;4.4460;-1.1564;-0.6568;-0.3497;-0.5212
0000009277;6.1555;4.0582;-1.3360;-0.7196;-0.4163;-0.5700
0000009285;6.3973;3.8427;-1.1732;-0.7887;-0.4655;-0.5870
0000009293;6.7780;3.5219;-1.0511;-0.7847;-0.4914;-0.6215
0000009301;7.1587;3.3998;-1.2330;-0.7682;-0.5095;-0.6844
0000009309;7.1347;3.3208;-1.6903;-0.7554;-0.5392;-0.7552
0000009317;7.1874;3.2106;-1.5754;-0.8046;-0.5802;-0.7978
0000009325;6.9192;3.4860;-1.7142;-0.8487;-0.6266;-0.8372
0000009333;6.8546;3.7589;-1.3312;-0.9061;-0.6864;-0.8447
0000009341;6.3063;3.8379;-1.3024;-0.9425;-0.7590;-0.8541
0000009349;6.3805;3.7733;-1.1612;-0.9543;-0.8591;-0.8367
0000009357;6.2608;3.8499;-1.3623;-0.9538;-0.9667;-0.8114
0000009365;6.1746;3.7230;-1.1708;-0.9900;-1.0445;-0.7830
0000009373;6.4572;3.8499;-1.1037;-1.0508;-1.1381;-0.7750
0000009381;6.6439;4.1108;-0.9888;-1.1265;-1.2159;-0.7835
0000009389;6.8283;4.3670;-0.8092;-1.1539;-1.2516;-0.8271
0000009397;7.1922;4.6112;-0.5866;-1.2311;-1.2620;-0.8876
0000009405;6.9312;4.6543;-0.6393;-1.2768;-1.2220;-0.9525
0000009413;6.7062;4.4269;-0.7805;-1.3139;-1.1863;-1.0120
0000009421;6.6032;4.4293;-0.6177;-1.3852;-1.1487;-1.0071
0000009429;6.3375;4.3958;-0.6967;-1.4757;-1.1362;-1.0064
0000009437;6.2465;4.4819;-0.3663;-1.5648;-1.1034;-1.0174
0000009445;6.1651;4.6136;-0.1604;-1.6834;-1.0898;-1.0076
0000009453;6.4236;4.8961;0.4166;-1.7762;-1.0821;-1.0124
0000009461;6.2968;4.8507;0.7374;-1.8186;-1.1025;-1.0837
0000009469;6.1244;4.8315;0.5076;-1.8570;-1.1301;-1.1531
0000009477;5.6767;4.4652;0.6393;-1.8906;-1.1382;-1.2590
0000009485;5.4588;3.7541;0.5076;-1.9562;-1.1351;-1.2505
0000009493;4.9464;2.9113;0.4334;-1.9954;-1.1085;-1.1663
0000009501;4.5250;2.2266;0.4788;-1.9905;-1.0625;-1.0380
0000009509;4.3048;1.9824;0.7901;-2.0090;-0.9923;-0.9261
0000009517;4.0510;1.1181;0.8045;-1.9801;-0.9430;-0.9082
0000009525;3.8188;0.1556;1.3240;-1.9660;-0.9150;-0.8831
0000009533;3.8954;-0.7853;2.3583;-1.9871;-0.9325;-0.8219
0000009541;3.8690;-1.1612;3.3447;-1.7905;-1.0253;-0.7654
0000009549;3.6440;-0.7135;4.4915;-1.2060;-1.1643;-0.6133
0000009557;3.0837;0.1077;4.1659;-0.5716;-1.2608;-0.3974
0000009565;3.3782;0.7590;2.1045;-0.3062;-1.3113;-0.2256
0000009573;4.2306;1.9561;0.5339;-0.2674;-1.2706;-0.1126
0000009581;5.5522;2.5881;0.0311;-0.2907;-1.1656;-0.0362
0000009589;7.0054;2.8826;0.2322;-0.3196;-1.0339;0.0490
0000009597;8.1786;3.1005;0.4717;-0.2725;-0.9341;0.1088
0000009605;8.7077;3.2777;-0.0120;-0.1569;-0.8148;0.1120
0000009613;9.1147;3.8283;-0.3448;-0.0707;-0.6611;0.0966
0000009701;9.7348;1.2713;1.5514;0.1240;-0.4559;0.1812
0000009708;10.8601;2.0901;1.0175;0.0714;-0.3990;0.2449
0000009716;12.0045;2.4660;1.0798;-0.0153;-0.3164;0.3204
0000009724;13.0987;2.8108;1.4940;-0.0931;-0.2173;0.3333
0000009732;13.5727;2.5929;1.9273;-0.1788;-0.0636;0.2774
0000009740;13.0197;2.0590;1.8172;-0.2635;0.0855;0.1845
0000009748;12.6127;1.2737;2.0901;-0.3151;0.2214;0.1172
0000009756;11.5353;0.6033;2.4134;-0.3349;0.3280;0.0765
0000009764;10.7236;0.0862;3.0909;-0.3701;0.3745;0.0617
0000009772;9.3829;-0.9146;3.5219;-0.3969;0.3836;0.0609
0000009780;8.5545;-1.7214;3.7589;-0.3842;0.3533;0.0305
0000009788;7.4531;-2.3966;3.7565;-0.3633;0.3244;0.0266
0000009796;6.7756;-2.4565;3.8211;-0.3457;0.2771;0.0870
0000009804;6.6295;-2.3415;4.1324;-0.3327;0.2058;0.1727
0000009812;6.7133;-2.3559;4.2497;-0.2890;0.1671;0.2475
0000009820;7.0126;-2.0375;4.2234;-0.2714;0.1605;0.3399
0000009828;7.7452;-2.3535;4.1180;-0.2958;0.2505;0.3890
0000009836;9.2967;-2.6432;4.2904;-0.3194;0.4427;0.4329
0000009844;11.2144;-2.7007;4.5873;-0.3347;0.7169;0.4952
0000009852;12.2823;-3.1627;4.4125;-0.3788;1.0625;0.5657
0000009860;13.2304;-3.7469;4.0199;-0.4557;1.4377;0.5979
0000009868;13.9486;-4.4436;3.1244;-0.4882;1.8544;0.6189
0000009876;14.2503;-4.7764;2.9688;-0.5433;2.2200;0.6448
0000009884;13.5608;-6.0262;2.4924;-0.5367;2.5512;0.7388
0000009892;13.0867;-6.7564;2.2075;-0.4718;2.8208;0.8483
0000009900;12.4091;-7.4388;1.9609;-0.3649;3.0493;0.9928
0000009908;12.0572;-7.8530;1.5036;-0.2398;3.2253;1.1171
0000009916;10.9487;-8.0780;0.5435;-0.0751;3.4105;1.2440
0000009924;9.8881;-7.9464;-0.4429;0.0504;3.5898;1.3431
0000009932;9.4930;-8.3486;-1.2689;0.0957;3.7438;1.4517
0000009940;8.2624;-8.4827;-2.7198;0.0650;3.9014;1.5716
0000009948;7.5729;-7.9248;-4.0917;0.0513;3.9856;1.6733
0000009956;6.6559;-7.3095;-5.5234;0.1231;4.0356;1.7156
0000009964;6.2393;-6.9001;-6.7684;0.2863;4.0373;1.7131
0000009972;5.9328;-6.4141;-7.5106;0.5171;3.9574;1.6950
0000009980;5.1116;-6.5050;-7.7524;0.7081;3.7237;1.6762
0000009988;4.8530;-6.2776;-7.8099;0.8499;3.4015;1.6677
0000009996;4.4388;-6.1627;-8.3175;0.9272;2.9917;1.6229
0000010004;3.7421;-6.0454;-8.7604;0.9775;2.5034;1.5376
0000010012;3.0742;-5.6120;-8.8107;1.0613;1.9982;1.3627
0000010020;2.2505;-5.3343;-8.3222;1.2023;1.5162;1.0980
0000010028;1.3024;-4.9991;-7.3095;1.4024;1.0948;0.7306
0000010036;-1.3408;-4.6615;0.5076;1.6806;1.0098;0.2350
0000010044;-13.8074;-0.2945;47.8194;1.1554;2.4633;-0.7226
0000010052;-19.7833;1.9369;30.1598;0.6825;2.8936;-1.8443
0000010060;-11.7531;-5.3463;6.2944;1.4638;2.1637;-2.3306
0000010068;-9.0549;-6.8809;-0.9433;1.7765;1.5861;-2.3250
0000010076;-6.1986;-8.2121;-3.1627;1.5339;1.5897;-2.0586
0000010084;-1.3862;-6.4356;-2.4828;1.4905;2.4412;-2.0017
0000010092;2.3607;-5.4253;-3.6105;1.8596;3.1125;-2.1711
0000010100;4.3407;-5.4516;-5.3558;2.3521;3.7350;-2.2435
0000010108;4.7932;-5.9879;-5.6575;2.8755;4.3656;-2.2338
0000010116;5.2026;-5.2816;-6.1531;3.3247;4.3656;-2.1641
0000010124;5.9544;-4.6376;-5.2840;3.6853;4.3656;-2.0547
0000010132;6.5745;-2.7438;-1.1899;3.8312;4.3656;-1.7604
0000010140;5.7461;1.9082;4.6304;3.5831;3.1443;-1.1286
0000010148;-1.0582;5.5067;0.3855;3.2710;2.6550;-0.7400
0000010156;-29.7911;22.2900;-10.6374;4.2177;3.1541;-3.0517
0000010164;-68.1438;55.9214;-12.9790;4.3656;4.3656;-4.3657
0000010172;-51.8847;71.4861;-17.1952;4.3656;4.3656;-4.3657
0000010180;-53.5870;63.0537;-20.5303;4.3656;4.2296;-4.3657
0000010188;-45.0804;35.1469;-26.0848;2.4625;2.2267;-3.2941
0000010196;-33.5428;18.8208;-21.5502;-0.6827;-0.1984;-2.6999
0000010204;-23.7433;7.7835;-4.3239;-2.3365;-1.1347;-2.2171
0000010212;-15.1074;-3.6009;14.3293;-2.3922;-1.4072;-2.3345
0000010220;-5.8730;-9.1291;8.4420;0.6223;-1.8511;-2.8202
0000010228;-1.3647;-5.5881;-1.8100;2.0921;-1.9505;-2.9271
0000010236;1.4748;-1.4605;-6.0406;2.0254;-1.5651;-3.0178
0000010244;4.8459;1.1133;-8.6574;1.2260;-1.1086;-3.2692
0000010252;8.0134;1.6568;-7.6974;0.2503;-0.8609;-3.5345
0000010260;11.5472;2.2218;-5.9783;-0.5077;-0.7590;-3.8022
0000010346;0.0910;6.2058;-6.8498;-0.2625;-1.6823;-3.7658
0000010354;-1.3503;6.3063;-7.5369;-0.3404;-1.5244;-3.4472
0000010362;-3.6344;3.0574;-8.3462;-0.5187;-1.3495;-3.1083
0000010370;-4.9895;-1.4317;-8.6981;-0.7774;-1.1363;-2.7685
0000010378;-5.7341;-5.5833;-7.2425;-0.9395;-0.8597;-2.5882
0000010386;-6.5769;-7.8937;-4.1324;-0.7360;-0.6198;-2.4652
0000010394;-8.5904;-9.8833;-3.3710;-0.2281;-0.4964;-2.1974
0000010402;-9.0932;-9.8330;-3.1196;0.2065;-0.5332;-1.7881
0000010410;-10.3382;-9.3757;-3.2777;0.3970;-0.6440;-1.2826
0000010418;-11.2767;-8.9663;-3.3088;0.4932;-0.8307;-0.9114
0000010426;-10.3789;-8.5521;-2.4565;0.6311;-1.0708;-0.6347
0000010434;-8.5976;-8.6215;-2.1955;0.8063;-1.3125;-0.4273
0000010442;-6.2369;-8.1834;-2.1620;0.9770;-1.4526;-0.3555
0000010450;-3.8451;-7.6567;-1.7933;1.0449;-1.5136;-0.4549
0000010458;-2.4995;-7.2257;-1.5155;0.9455;-1.5254;-0.8002
0000010466;-1.7837;-7.1180;-1.0032;0.8476;-1.4344;-1.1904
0000010474;-1.4174;-7.1658;-0.0359;0.8600;-1.3284;-1.5536
0000010482;-1.2809;-7.3837;0.4501;0.8869;-1.2139;-1.7401
0000010490;-0.7159;-7.2568;0.8859;0.9273;-1.0721;-1.7994
0000010498;-0.0527;-7.9200;0.6273;0.9337;-1.0108;-1.8277
0000010506;-0.5076;-8.7293;1.2330;0.9316;-0.9114;-1.8960
0000010514;-0.3998;-8.7891;0.9697;0.9253;-0.8322;-1.9630
0000010522;-0.4262;-8.9878;0.8380;0.9395;-0.8304;-2.0303
0000010530;0.1676;-8.8418;0.9936;0.8691;-0.8561;-2.0270
0000010538;0.5411;-9.1387;1.2570;0.7926;-0.8789;-1.9785
0000010546;0.7829;-10.3166;1.2570;0.7707;-0.8612;-1.9590
0000010554;1.5490;-11.6693;1.0463;0.7809;-0.7596;-2.0017
0000010562;2.0039;-13.1514;0.9098;0.7469;-0.5725;-2.0306
0000010570;2.1021;-14.2479;0.2346;0.6210;-0.3148;-1.9994
0000010578;1.0008;-15.4929;0.0862;0.4102;0.0556;-1.8547
0000010586;-1.6113;-16.5008;-0.2298;0.2979;0.3563;-1.5192
0000010594;-4.5107;-17.1952;-1.3192;0.2042;0.6254;-1.0948
0000010602;-8.0469;-17.5782;-2.1500;0.0957;0.7486;-0.5946
0000010610;-10.5656;-17.1568;-3.0502;0.0557;0.7293;-0.0834
0000010618;-12.1625;-17.0132;-2.8754;0.0465;0.6233;0.3794
0000010626;-11.3365;-15.6772;-1.2809;0.0977;0.4451;0.7045
0000010634;-9.3206;-14.8345;-0.3759;0.2811;0.2212;0.8812
0000010642;-7.4101;-14.2718;-0.5076;0.5530;0.0681;0.8292
0000010650;-5.1044;-12.5839;-0.5746;0.8060;-0.0742;0.6503
0000010658;-4.1731;-11.6023;-0.8212;0.9932;-0.1527;0.4636
0000010666;-3.1939;-10.1873;-1.3408;1.0564;-0.2465;0.2116
0000010674;-2.4421;-9.3206;-1.5155;0.9562;-0.3492;-0.0413
0000010682;-2.0423;-8.4013;-1.2953;0.8347;-0.4105;-0.2078
0000010690;-1.1013;-8.1403;-1.2330;0.6952;-0.4410;-0.3559
0000010698;-0.1748;-8.2696;-1.3216;0.5269;-0.4185;-0.4090
0000010706;0.8643;-8.3701;-0.8906;0.3710;-0.3692;-0.4040
0000010714;1.4102;-8.5856;-0.7853;0.2651;-0.2667;-0.3741
0000010722;0.9242;-8.9711;-0.2394;0.2341;-0.1617;-0.3026
0000010730;-0.5124;-9.5433;0.0431;0.2498;-0.0898;-0.2457
0000010738;-1.4509;-10.1203;-0.1796;0.2647;-0.0394;-0.1757
0000010746;-2.3224;-10.4675;-0.3783;0.2731;-0.0153;-0.0746
0000010754;-2.7581;-10.4339;-0.3448;0.3035;-0.0157;0.0489
0000010762;-3.4213;-10.0245;-0.0455;0.3380;-0.0369;0.1537
0000010770;-3.9361;-9.6510;0.5986;0.3698;-0.0624;0.2599
0000010778;-4.5849;-9.1746;1.1133;0.3625;-0.1111;0.3303
0000010786;-5.2194;-8.9543;1.3671;0.3477;-0.1773;0.3722
0000010794;-5.7916;-8.4276;1.6041;0.3114;-0.2555;0.3926
0000010802;-6.1579;-8.0254;1.6592;0.2689;-0.3096;0.4266
0000010810;-6.4069;-7.8913;1.8771;0.2169;-0.3641;0.4545
0000010818;-6.6942;-7.8578;1.8220;0.1328;-0.3773;0.4822
0000010826;-6.6774;-7.6136;1.6783;0.0361;-0.3941;0.4886
0000010834;-6.2058;-7.8027;1.5945;-0.0577;-0.3909;0.4999
0000010842;-5.3199;-7.9464;1.4198;-0.1581;-0.3752;0.5007
0000010850;-4.4412;-7.9823;1.3264;-0.2070;-0.3463;0.5069
0000010858;-3.5027;-8.1092;1.4533;-0.2304;-0.3159;0.5061
0000010866;-3.1196;-8.1211;1.5826;-0.2284;-0.2713;0.4830
0000010874;-2.7150;-8.0278;1.5299;-0.2078;-0.1981;0.4648
0000010882;-2.3727;-7.8961;1.4772;-0.1948;-0.1318;0.4453
0000010890;-2.3128;-7.8961;1.5107;-0.1700;-0.0698;0.4227
0000010898;-2.1931;-7.6974;1.4126;-0.1701;-0.0103;0.3908
0000010906;-2.1739;-7.5824;1.4078;-0.1933;0.0562;0.3597
0000010991;-4.1707;-7.6447;1.3144;-0.1539;-0.0269;0.0329
0000010999;-4.0630;-7.5202;1.4461;-0.1262;-0.0288;-0.0120
0000011007;-3.6009;-7.5250;1.4246;-0.0970;-0.0230;-0.0430
0000011015;-3.6559;-7.5944;1.3815;-0.0915;-0.0145;-0.0554
0000011023;-3.4620;-7.6614;1.0870;-0.0845;-0.0151;-0.0671
0000011031;-3.6966;-7.7476;1.1157;-0.0622;-0.0274;-0.0765
0000011039;-3.8690;-7.8266;1.2570;-0.0425;-0.0208;-0.0878
0000011047;-4.1372;-7.6543;1.3623;-0.0221;-0.0044;-0.1140
0000011055;-4.1731;-7.6806;1.3240;-0.0116;0.0120;-0.1268
0000011063;-4.1803;-7.5322;1.1947;-0.0152;0.0253;-0.1506
0000011071;-3.9840;-7.5465;1.1013;-0.0201;0.0382;-0.1723
0000011079;-3.8403;-7.4268;1.0487;-0.0413;0.0553;-0.1847
0000011087;-3.5817;-7.4891;1.0295;-0.0630;0.0666;-0.1978
0000011095;-3.5745;-7.6902;0.8212;-0.0763;0.0727;-0.2057
0000011103;-3.7038;-8.0014;0.9673;-0.0869;0.0670;-0.2002
0000011111;-3.5410;-7.8075;0.7949;-0.0921;0.0629;-0.1965
0000011119;-3.8164;-8.0685;0.7542;-0.0842;0.0617;-0.1908
0000011127;-4.0151;-8.1906;0.8212;-0.0721;0.0490;-0.1859
0000011135;-3.9768;-8.0924;0.7278;-0.0640;0.0412;-0.1788
0000011143;-3.8355;-8.1618;0.7087;-0.0577;0.0308;-0.1721
0000011151;-3.8858;-8.1116;0.7877;-0.0537;0.0201;-0.1708
0000011159;-3.8403;-8.0421;0.8475;-0.0449;0.0067;-0.1623
0000011167;-3.9433;-8.2145;0.9074;-0.0405;-0.0015;-0.1555
0000011175;-3.8164;-8.0709;0.7494;-0.0490;-0.0011;-0.1364
0000011183;-3.9313;-8.2576;0.7997;-0.0468;-0.0051;-0.1268
0000011191;-3.8930;-8.2432;0.7638;-0.0489;-0.0236;-0.1146
0000011199;-3.9169;-8.2648;0.9266;-0.0409;-0.0381;-0.1039
0000011207;-3.8379;-8.2744;0.8882;-0.0377;-0.0406;-0.0882
0000011215;-3.4285;-8.0445;0.8811;-0.0348;-0.0432;-0.0805
0000011223;-3.6990;-8.1594;0.9792;-0.0322;-0.0553;-0.0663
0000011231;-3.8211;-8.2289;0.9313;-0.0257;-0.0553;-0.0613
0000011239;-3.7781;-8.2887;0.9026;-0.0257;-0.0586;-0.0493
0000011247;-3.5913;-8.2145;0.8260;-0.0336;-0.0548;-0.0270
0000011255;-3.7757;-8.4372;0.8978;-0.0310;-0.0537;-0.0131
0000011263;-3.7972;-8.4874;0.9290;-0.0288;-0.0506;0.0132
0000011271;-3.6105;-8.4874;0.9218;-0.0220;-0.0469;0.0288
0000011279;-3.5865;-8.2169;1.1157;-0.0027;-0.0506;0.0346
0000011287;-3.6679;-8.3534;0.9936;-0.0015;-0.0402;0.0572
0000011295;-3.6512;-8.2528;0.9936;0.0041;-0.0356;0.0685
0000011303;-3.8690;-8.3127;0.9864;0.0149;-0.0308;0.0787
0000011311;-3.8211;-8.1930;0.9433;0.0171;-0.0318;0.0881
0000011319;-3.7445;-8.0182;0.8715;0.0296;-0.0397;0.0829
0000011327;-3.7326;-7.9679;0.9649;0.0310;-0.0328;0.0867
0000011335;-3.5913;-7.8434;0.8882;0.0324;-0.0356;0.0751
0000011343;-3.6536;-7.7213;0.7949;0.0385;-0.0484;0.0572
0000011351;-3.6248;-7.6662;0.8763;0.0317;-0.0573;0.0349
0000011359;-3.6775;-7.4675;0.9840;0.0152;-0.0582;0.0236
0000011367;-3.7230;-7.6184;1.0511;-0.0065;-0.0498;0.0105
0000011375;-3.8714;-7.8099;1.1229;-0.0184;-0.0416;-0.0024
0000011383;-3.8164;-7.8410;1.2019;-0.0220;-0.0288;-0.0175
0000011391;-3.8164;-8.0493;1.0415;-0.0240;-0.0261;-0.0218
0000011399;-3.6847;-8.0469;0.9098;-0.0252;-0.0131;-0.0084
0000011407;-3.8930;-8.2528;0.9553;-0.0171;-0.0092;-0.0004
0000011415;-3.9217;-8.1116;0.8523;-0.0001;-0.0139;0.0008
0000011423;-3.9576;-8.1331;0.8595;0.0125;-0.0143;-0.0012
0000011431;-3.6176;-7.8171;0.8499;0.0200;-0.0143;-0.0056
0000011439;-3.4931;-7.7165;0.8499;0.0155;-0.0111;-0.0112
0000011447;-3.4740;-7.7213;1.0606;0.0063;-0.0091;-0.0229
0000011455;-3.4285;-7.6495;0.9122;-0.0103;-0.0119;-0.0381
0000011463;-3.4884;-7.6495;0.9697;-0.0341;0.0005;-0.0478
0000011471;-3.4548;-7.6710;0.9266;-0.0445;0.0000;-0.0617
0000011479;-3.7469;-7.7381;0.9194;-0.0509;-0.0065;-0.0735
0000011487;-4.0318;-8.1810;0.8212;-0.0464;-0.0111;-0.0762
0000011495;-3.8235;-8.0134;0.7350;-0.0437;-0.0155;-0.0785
0000011503;-3.9720;-8.2456;0.7781;-0.0306;-0.0213;-0.0834
0000011511;-3.8211;-8.0086;0.9242;-0.0292;-0.0213;-0.0773
0000011519;-3.7852;-8.2576;1.2019;-0.0225;-0.0168;-0.0690
0000011527;-3.5602;-8.1858;1.2665;-0.0204;0.0120;-0.0553
0000011535;-3.6320;-8.3558;1.2785;-0.0176;0.0400;-0.0456
0000011543;-3.6488;-8.2456;1.1827;-0.0068;0.0636;-0.0253
0000011634;-3.7134;-7.5106;0.6823;-0.0421;-0.0582;-0.0254
0000011642;-3.8642;-7.6207;0.7494;-0.0566;-0.0669;-0.0453
0000011650;-3.9456;-7.8673;0.7230;-0.0654;-0.0661;-0.0500
0000011658;-3.8403;-8.0445;0.7614;-0.0525;-0.0682;-0.0496
0000011666;-3.7613;-8.1499;0.9673;-0.0272;-0.0730;-0.0608
0000011674;-3.6512;-8.1163;0.8787;-0.0059;-0.0729;-0.0558
0000011682;-3.5171;-8.1714;0.9816;-0.0048;-0.0703;-0.0381
0000011690;-3.4596;-8.2408;1.1732;-0.0013;-0.0510;-0.0193
0000011698;-3.6919;-8.2265;1.2546;-0.0025;-0.0256;-0.0097
0000011706;-4.0270;-8.4946;1.3096;0.0068;-0.0059;0.0015
0000011714;-3.8188;-8.3606;1.0750;0.0031;0.0197;0.0237
0000011722;-3.9025;-8.3606;0.8092;-0.0041;0.0302;0.0464
0000011730;-3.8259;-8.1954;0.7422;-0.0020;0.0304;0.0626
0000011738;-4.0342;-8.0780;0.4836;0.0016;0.0047;0.0729
0000011746;-3.8834;-8.0589;0.5267;0.0099;-0.0160;0.0710
0000011754;-3.7637;-7.8937;0.7159;0.0072;-0.0305;0.0758
0000011762;-3.7182;-7.9128;0.8643;0.0125;-0.0326;0.0630
0000011770;-3.4117;-7.6423;1.0080;0.0076;-0.0177;0.0444
0000011778;-3.2058;-7.4172;0.8571;-0.0064;-0.0148;0.0200
0000011786;-3.3208;-7.3263;0.7709;-0.0257;-0.0084;-0.0008
0000011794;-3.5434;-7.4891;0.7111;-0.0440;-0.0101;-0.0274
0000011802;-3.6895;-7.6375;0.6967;-0.0576;-0.0165;-0.0480
0000011810;-3.6727;-7.6567;0.6895;-0.0741;-0.0257;-0.0618
0000011818;-3.9935;-7.8937;0.7278;-0.0801;-0.0254;-0.0705
0000011826;-3.8355;-7.9033;0.7039;-0.0707;-0.0224;-0.0827
0000011834;-3.6751;-7.9487;0.7566;-0.0465;-0.0302;-0.0991
0000011842;-3.8930;-8.0086;0.7254;-0.0300;-0.0356;-0.0955
0000011850;-4.0079;-8.1403;0.7039;-0.0341;-0.0429;-0.0970
0000011858;-4.0486;-8.2049;0.9290;-0.0358;-0.0350;-0.0875
0000011866;-4.0510;-8.1139;0.9720;-0.0430;-0.0225;-0.0790
0000011874;-4.0079;-8.4252;0.9960;-0.0464;-0.0079;-0.0618
0000011882;-3.8475;-8.2552;0.8882;-0.0333;-0.0068;-0.0520
0000011890;-3.9121;-8.3199;0.8021;-0.0301;-0.0100;-0.0309
0000011898;-3.8618;-8.3869;0.6536;-0.0237;-0.0137;-0.0028
0000011906;-3.9385;-8.3486;0.7374;-0.0047;-0.0257;0.0119
0000011914;-3.7517;-8.1092;0.7254;0.0135;-0.0388;0.0172
0000011922;-3.8690;-8.0996;0.7446;0.0176;-0.0469;0.0163
0000011930;-3.4381;-7.6950;0.7230;0.0131;-0.0504;0.0173
0000011938;-3.5745;-7.7668;0.6656;0.0001;-0.0466;0.0121
0000011946;-3.5721;-7.6878;0.8045;-0.0095;-0.0536;-0.0044
0000011954;-3.2705;-7.6638;0.8475;-0.0241;-0.0484;-0.0087
0000011962;-3.6320;-7.8099;0.9266;-0.0248;-0.0362;-0.0164
0000011970;-3.6655;-7.8338;0.8619;-0.0167;-0.0348;-0.0414
0000011978;-3.6105;-7.6758;0.8428;-0.0203;-0.0297;-0.0468
0000011986;-3.6655;-7.7524;0.8236;-0.0229;-0.0262;-0.0526
0000011994;-3.6751;-7.7931;0.8212;-0.0216;-0.0298;-0.0710
0000012002;-3.6943;-7.7788;0.7087;-0.0288;-0.0334;-0.0842
0000012010;-3.6248;-7.7692;0.7566;-0.0430;-0.0300;-0.0890
0000012018;-3.6464;-7.8338;0.8332;-0.0549;-0.0282;-0.0943
0000012026;-3.7852;-7.9918;0.8212;-0.0618;-0.0286;-0.0997
0000012034;-3.8235;-8.2528;0.9266;-0.0695;-0.0329;-0.0973
0000012042;-3.8235;-8.3342;1.0630;-0.0845;-0.0272;-0.0730
0000012050;-3.8930;-8.6143;1.1253;-0.0942;-0.0063;-0.0418
0000012058;-3.9672;-8.6024;0.9864;-0.0777;0.0047;-0.0128
0000012066;-3.9959;-8.6718;0.9337;-0.0525;0.0177;0.0183
0000012074;-3.9145;-8.5569;0.8571;-0.0221;0.0208;0.0458
0000012082;-3.7373;-8.3582;0.6153;-0.0003;0.0095;0.0662
0000012090;-3.8140;-8.2337;0.6009;0.0256;-0.0115;0.0715
0000012098;-3.8020;-7.9080;0.6823;0.0414;-0.0253;0.0640
0000012106;-3.3399;-7.6327;0.6919;0.0474;-0.0236;0.0437
0000012114;-3.2633;-7.2975;0.7494;0.0260;-0.0215;0.0169
0000012122;-3.3782;-7.3023;0.6416;-0.0049;-0.0207;-0.0149
0000012131;-3.5626;-7.4220;0.6464;-0.0450;-0.0230;-0.0498
0000012140;-3.7326;-7.6088;0.6800;-0.0801;-0.0300;-0.0734
0000012149;-3.7781;-7.8673;0.7326;-0.0942;-0.0249;-0.0818
0000012158;-3.8595;-8.1786;0.7422;-0.0814;-0.0288;-0.0814
0000012167;-3.8283;-8.3606;0.6871;-0.0592;-0.0306;-0.0815
0000012176;-3.6799;-8.2480;0.7326;-0.0308;-0.0417;-0.0801
0000012185;-3.8906;-8.4779;0.7470;-0.0215;-0.0426;-0.0566
0000012194;-3.7589;-8.1307;0.6680;-0.0101;-0.0497;-0.0509
0000012282;-3.6751;-8.0517;0.7590;-0.0125;-0.0316;-0.0087
0000012291;-3.6919;-7.9152;0.8188;-0.0055;-0.0357;-0.0117
0000012300;-3.5698;-7.8985;0.6800;-0.0179;-0.0365;-0.0144
0000012309;-3.5913;-7.9128;0.7901;-0.0272;-0.0325;-0.0161
0000012318;-3.7110;-8.1020;0.8499;-0.0244;-0.0361;-0.0218
0000012327;-3.5745;-7.9296;0.9457;-0.0430;-0.0312;-0.0272
0000012336;-3.8044;-8.0038;0.9481;-0.0534;-0.0168;-0.0165
0000012345;-3.8379;-8.1235;0.9529;-0.0652;-0.0039;-0.0120
0000012354;-3.8211;-8.2504;0.8332;-0.0562;-0.0032;-0.0147
0000012363;-3.7110;-8.1283;0.8356;-0.0502;0.0089;-0.0040
0000012372;-3.7804;-8.2624;0.7230;-0.0358;0.0008;-0.0069
0000012381;-3.8882;-8.2935;0.6728;-0.0296;0.0015;0.0029
0000012390;-3.8451;-8.1379;0.6656;-0.0203;-0.0111;0.0024
0000012399;-3.7014;-8.1020;0.7853;-0.0313;-0.0120;0.0056
0000012408;-3.8738;-8.0158;0.7781;-0.0265;-0.0137;-0.0048
0000012417;-3.6823;-7.9057;0.7183;-0.0203;-0.0179;-0.0120
0000012426;-3.6224;-8.0325;0.6800;-0.0277;-0.0084;-0.0108
0000012435;-3.7421;-8.1235;0.7254;-0.0292;-0.0147;-0.0224
0000012444;-3.7254;-8.0445;0.6345;-0.0233;-0.0277;-0.0298
0000012453;-3.7110;-8.0613;0.6057;-0.0254;-0.0296;-0.0309
0000012462;-3.9145;-8.0349;0.5243;-0.0216;-0.0494;-0.0345
0000012471;-3.8451;-8.0541;0.5698;-0.0234;-0.0580;-0.0317
0000012480;-3.9049;-8.1331;0.6321;-0.0145;-0.0731;-0.0389
0000012489;-3.8211;-8.0541;0.6536;-0.0164;-0.0694;-0.0288
0000012498;-3.8427;-8.1570;0.7278;-0.0080;-0.0743;-0.0326
0000012507;-3.9935;-8.2504;0.7254;-0.0165;-0.0715;-0.0191
0000012516;-4.0007;-8.2384;0.7446;-0.0169;-0.0774;-0.0088
0000012525;-4.0223;-8.4108;0.7614;-0.0160;-0.0761;0.0039
0000012534;-3.7972;-8.2169;1.0032;-0.0112;-0.0572;0.0199
0000012543;-3.7230;-8.2313;1.0846;-0.0035;-0.0422;0.0289
0000012552;-3.5314;-8.1930;0.8595;0.0128;-0.0441;0.0306
0000012561;-3.6823;-8.1379;0.7159;0.0139;-0.0345;0.0434
0000012570;-3.7062;-8.0445;0.7254;0.0091;-0.0354;0.0393
0000012579;-3.5267;-7.6926;0.6967;0.0185;-0.0456;0.0286
0000012588;-3.4046;-7.7165;0.8092;0.0124;-0.0418;0.0157
0000012597;-3.2394;-7.5298;0.8811;-0.0004;-0.0341;-0.0097
0000012606;-3.3495;-7.6591;0.9936;-0.0076;-0.0306;-0.0344
0000012615;-3.4022;-7.6399;0.7853;-0.0282;-0.0221;-0.0570
0000012624;-3.6488;-7.7596;0.7087;-0.0461;-0.0176;-0.0673
0000012633;-3.9744;-8.0661;0.7733;-0.0476;-0.0236;-0.0711
0000012642;-3.8116;-8.1930;0.7207;-0.0504;-0.0185;-0.0645
0000012651;-3.9097;-8.3582;0.6512;-0.0380;-0.0280;-0.0602
0000012660;-3.8092;-8.2049;0.8188;-0.0229;-0.0318;-0.0610
0000012669;-3.8690;-8.2217;0.7374;-0.0224;-0.0201;-0.0449
0000012678;-3.8068;-8.1547;0.6728;-0.0181;-0.0288;-0.0380
0000012687;-3.7804;-7.9631;0.7709;-0.0203;-0.0358;-0.0305
0000012696;-4.0055;-8.2696;0.8021;-0.0261;-0.0469;-0.0191
0000012705;-3.9935;-8.3222;0.7949;-0.0284;-0.0413;-0.0032
0000012714;-3.8068;-8.2720;0.8787;-0.0260;-0.0294;0.0085
0000012723;-3.8020;-8.5042;0.8212;-0.0117;-0.0217;0.0218
0000012732;-3.7685;-8.3486;0.9457;-0.0021;-0.0169;0.0346
0000012741;-3.7182;-8.1882;0.8547;0.0105;-0.0115;0.0402
0000012750;-3.6200;-8.0804;0.7494;0.0155;-0.0068;0.0513
0000012759;-3.5027;-7.9440;0.5650;0.0252;-0.0246;0.0394
0000012768;-3.4022;-7.7524;0.7638;0.0222;-0.0318;0.0298
0000012777;-3.4979;-7.6184;0.7805;0.0079;-0.0266;0.0129
0000012786;-3.5362;-7.4651;0.6776;-0.0148;-0.0265;-0.0132
0000012795;-3.6512;-7.6638;0.5818;-0.0288;-0.0346;-0.0413
0000012804;-3.7876;-7.9440;0.6560;-0.0445;-0.0392;-0.0546
0000012813;-3.7421;-7.8650;0.7159;-0.0472;-0.0349;-0.0549
0000012822;-3.9648;-8.2408;0.7326;-0.0401;-0.0365;-0.0580
0000012831;-3.7517;-8.1068;0.8140;-0.0261;-0.0393;-0.0585
0000012840;-3.8978;-8.2576;0.7254;-0.0253;-0.0345;-0.0442
0000012849;-3.9528;-8.1163;0.6895;-0.0187;-0.0416;-0.0425
0000012858;-3.8666;-8.1116;0.6273;-0.0173;-0.0464;-0.0324
0000012867;-3.8690;-8.0852;0.5890;-0.0260;-0.0573;-0.0352
0000012876;-3.7733;-8.0876;0.6800;-0.0253;-0.0612;-0.0282
0000012885;-3.7948;-8.1977;0.7638;-0.0329;-0.0569;-0.0148
0000012894;-3.8116;-8.3031;0.8380;-0.0203;-0.0536;-0.0132
0000012903;-3.8834;-8.4156;0.7350;-0.0180;-0.0406;0.0035
0000012991;-3.7302;-8.3079;0.8380;-0.0288;-0.0494;-0.0402
0000013000;-3.6943;-8.2768;0.8212;-0.0141;-0.0436;-0.0280
0000013009;-3.9959;-8.4994;0.6823;-0.0085;-0.0484;-0.0173
0000013018;-3.7421;-8.1523;0.7398;-0.0116;-0.0486;-0.0044
0000013027;-3.7373;-8.1618;0.8045;-0.0143;-0.0480;0.0029
0000013036;-3.8020;-8.0948;0.8021;-0.0128;-0.0416;0.0056
0000013045;-3.8140;-8.1714;0.7901;-0.0149;-0.0369;0.0101
0000013054;-3.8331;-8.0637;0.7973;-0.0087;-0.0369;0.0125
0000013063;-3.8164;-8.2552;0.7997;-0.0156;-0.0273;0.0201
0000013072;-3.7757;-8.2696;0.9122;-0.0091;-0.0268;0.0188
0000013081;-3.6129;-8.0541;0.9313;-0.0077;-0.0133;0.0238
0000013090;-3.6990;-8.1307;0.8571;0.0080;-0.0096;0.0234
0000013099;-3.7110;-8.0445;0.8619;0.0120;-0.0027;0.0241
0000013108;-3.6990;-7.9057;0.7326;0.0101;-0.0039;0.0127
0000013117;-3.7014;-7.7620;0.7901;0.0060;-0.0153;-0.0065
0000013126;-3.6847;-7.6519;0.7638;-0.0097;-0.0212;-0.0277
0000013135;-3.6583;-7.6567;0.7015;-0.0334;-0.0192;-0.0437
0000013144;-3.6464;-7.7644;0.6871;-0.0429;-0.0316;-0.0644
0000013153;-3.8906;-7.9200;0.6584;-0.0509;-0.0405;-0.0791
0000013162;-3.8595;-8.1139;0.6536;-0.0494;-0.0449;-0.0827
0000013171;-3.8930;-8.1570;0.5962;-0.0529;-0.0396;-0.0767
0000013180;-3.8475;-8.2911;0.6369;-0.0452;-0.0510;-0.0667
0000013189;-3.7038;-8.3366;0.7398;-0.0369;-0.0572;-0.0513
0000013198;-3.8355;-8.4132;0.6895;-0.0236;-0.0604;-0.0344
0000013207;-3.8523;-8.3797;0.7039;-0.0165;-0.0605;-0.0127
0000013216;-3.7541;-8.2768;0.6632;-0.0040;-0.0723;-0.0069
0000013225;-3.7637;-8.2073;0.8140;-0.0031;-0.0646;0.0107
0000013234;-3.5458;-8.1283;0.8475;0.0016;-0.0578;0.0133
0000013243;-3.5195;-8.0613;0.8428;0.0035;-0.0564;0.0164
0000013252;-3.7110;-8.1044;0.8021;0.0109;-0.0597;0.0060
0000013261;-3.7972;-8.0589;0.8140;-0.0019;-0.0532;0.0131
0000013270;-3.7804;-8.0373;0.7781;0.0031;-0.0529;0.0104
0000013279;-3.7062;-7.9655;0.8930;0.0059;-0.0544;0.0031
0000013288;-3.5985;-8.0014;0.8092;-0.0028;-0.0438;0.0028
0000013297;-3.4405;-7.9009;0.7183;-0.0028;-0.0482;-0.0135
0000013306;-3.5889;-7.8290;0.7757;-0.0068;-0.0440;-0.0220
0000013315;-3.5913;-7.7333;0.7254;-0.0250;-0.0484;-0.0329
0000013324;-3.7781;-7.8362;0.7829;-0.0321;-0.0460;-0.0470
0000013333;-3.8140;-8.0685;0.8643;-0.0409;-0.0432;-0.0562
0000013342;-3.9121;-8.1068;0.9098;-0.0438;-0.0402;-0.0589
0000013351;-3.8642;-8.1211;0.9505;-0.0468;-0.0260;-0.0593
0000013360;-3.8595;-8.2049;0.8404;-0.0344;-0.0281;-0.0572
0000013369;-3.8283;-8.2265;0.7278;-0.0342;-0.0230;-0.0469
0000013378;-3.8786;-8.1762;0.7542;-0.0282;-0.0272;-0.0400
0000013387;-3.6368;-8.2001;0.6584;-0.0222;-0.0345;-0.0334
0000013396;-3.8499;-8.2145;0.6776;-0.0308;-0.0414;-0.0309
0000013405;-3.8355;-8.0421;0.6416;-0.0261;-0.0514;-0.0298
0000013414;-3.6990;-7.9775;0.6464;-0.0358;-0.0528;-0.0241
0000013423;-3.6847;-8.1044;0.7398;-0.0374;-0.0557;-0.0286
0000013432;-3.6512;-8.1379;0.8188;-0.0234;-0.0565;-0.0236
0000013441;-3.7182;-8.1810;0.7590;-0.0201;-0.0529;-0.0131
0000013450;-3.6799;-8.2145;0.8308;-0.0093;-0.0554;-0.0084
0000013459;-3.7733;-8.1930;0.7709;-0.0016;-0.0570;0.0000
0000013468;-3.7924;-8.1547;0.7207;-0.0041;-0.0614;-0.0037
0000013477;-3.6392;-7.9703;0.7374;-0.0077;-0.0632;-0.0035
0000013486;-3.9193;-8.1139;0.7518;-0.0096;-0.0702;-0.0064
0000013495;-3.6847;-8.1499;0.7805;-0.0159;-0.0609;-0.0081
0000013504;-3.5721;-8.0948;0.7685;-0.0157;-0.0536;-0.0045
0000013513;-3.7876;-8.2001;0.9313;-0.0136;-0.0497;-0.0039
0000013522;-3.7421;-8.1427;0.8859;-0.0064;-0.0449;-0.0031
0000013531;-3.7637;-8.1977;0.9337;0.0007;-0.0416;0.0047
0000013540;-3.6751;-7.9392;0.8164;0.0095;-0.0445;0.0020
0000013549;-3.7493;-8.0158;0.8045;-0.0015;-0.0434;0.0003
0000013558;-3.7517;-7.8793;0.7973;-0.0119;-0.0450;-0.0100
0000013567;-3.7397;-8.0158;0.7733;-0.0208;-0.0520;-0.0306
0000013576;-3.8451;-8.1570;0.8452;-0.0349;-0.0444;-0.0277
0000013585;-3.7637;-8.1570;0.8380;-0.0304;-0.0445;-0.0356
0000013594;-3.9193;-8.3534;0.9242;-0.0285;-0.0362;-0.0284
0000013603;-3.7972;-8.3390;0.8643;-0.0149;-0.0244;-0.0234
0000013612;-3.5602;-8.1451;0.8356;-0.0099;-0.0136;-0.0128
0000013700;-3.9337;-8.2791;0.8715;-0.0037;-0.0468;-0.0085
0000013709;-3.8044;-8.2241;0.8092;0.0021;-0.0430;0.0012
0000013718;-3.8020;-8.1786;0.7973;-0.0053;-0.0518;-0.0001
0000013727;-3.6655;-8.0325;0.7829;-0.0200;-0.0462;-0.0017
0000013736;-3.7685;-8.0589;0.7709;-0.0229;-0.0536;-0.0107
0000013745;-3.6464;-8.0972;0.8667;-0.0338;-0.0470;-0.0039
0000013754;-3.7565;-8.1594;0.9290;-0.0230;-0.0421;-0.0008
0000013763;-3.5817;-8.1235;0.9361;-0.0151;-0.0374;0.0032
0000013772;-3.7565;-8.0948;0.7829;0.0004;-0.0342;0.0123
0000013781;-3.7326;-8.1307;0.7207;-0.0001;-0.0372;0.0116
0000013790;-3.9265;-8.0804;0.7159;-0.0079;-0.0520;0.0045
0000013799;-3.8020;-7.8554;0.7063;-0.0153;-0.0590;-0.0021
0000013808;-3.7326;-7.9080;0.8188;-0.0278;-0.0626;-0.0177
0000013817;-3.5865;-7.9200;0.9601;-0.0241;-0.0616;-0.0288
0000013826;-3.6583;-8.0948;0.9505;-0.0293;-0.0440;-0.0278
0000013835;-3.5913;-8.0972;0.8859;-0.0240;-0.0424;-0.0334
0000013844;-3.8714;-8.3582;0.7925;-0.0229;-0.0372;-0.0228
0000013853;-3.9073;-8.3582;0.8475;-0.0108;-0.0300;-0.0103
0000013862;-3.6607;-8.1618;0.8930;-0.0009;-0.0305;-0.0067
0000013871;-3.6799;-8.0421;0.7661;0.0115;-0.0388;-0.0120
0000013880;-3.6847;-7.9272;0.7901;-0.0060;-0.0366;-0.0128
0000013889;-3.6943;-7.9847;0.6919;-0.0189;-0.0466;-0.0197
0000013898;-3.7804;-8.0637;0.8092;-0.0252;-0.0461;-0.0286
0000013907;-3.7278;-8.1331;0.9194;-0.0265;-0.0354;-0.0216
0000013916;-3.6966;-8.2073;0.8835;-0.0095;-0.0449;-0.0248
0000013925;-3.8499;-8.1642;0.8930;-0.0091;-0.0329;-0.0151
0000013934;-3.8116;-8.0996;0.8428;-0.0025;-0.0430;-0.0168
0000013943;-3.8451;-8.2480;0.6680;-0.0076;-0.0454;-0.0096
0000013952;-3.8475;-8.0397;0.8164;-0.0212;-0.0412;-0.0103
0000013961;-3.8044;-8.0302;0.8475;-0.0220;-0.0450;-0.0140
0000013970;-3.6416;-8.1594;0.8835;-0.0240;-0.0316;-0.0104
0000013979;-3.5003;-7.9583;0.8212;-0.0149;-0.0309;-0.0112
0000013988;-3.6751;-8.0876;0.9218;0.0013;-0.0385;-0.0144
0000013997;-3.7661;-8.0852;0.8116;-0.0040;-0.0404;-0.0125
0000014006;-3.6440;-7.9344;0.7302;-0.0069;-0.0461;-0.0103
0000014015;-3.8044;-7.9727;0.6823;-0.0159;-0.0566;-0.0200
0000014024;-3.8547;-8.0206;0.6967;-0.0298;-0.0658;-0.0193
0000014033;-3.7373;-8.0397;0.6728;-0.0203;-0.0758;-0.0289
0000014042;-3.6919;-8.1954;0.8811;-0.0221;-0.0596;-0.0269
0000014051;-3.5817;-8.1858;0.8164;-0.0212;-0.0528;-0.0257
0000014060;-3.9289;-8.2744;0.8954;-0.0068;-0.0534;-0.0208
0000014069;-3.9696;-8.3366;0.8882;-0.0051;-0.0448;-0.0103
0000014078;-3.7613;-8.1331;0.8643;0.0031;-0.0533;-0.0123
0000014087;-3.5051;-7.9009;0.8643;-0.0065;-0.0532;-0.0064
0000014096;-3.9121;-8.1211;0.6847;-0.0132;-0.0665;-0.0071
0000014105;-3.8475;-8.1618;0.7111;-0.0192;-0.0625;-0.0037
0000014114;-3.7254;-8.0302;0.8930;-0.0173;-0.0682;-0.0103
0000014123;-3.6583;-8.2001;0.9864;-0.0218;-0.0508;-0.0047
0000014132;-3.8068;-8.2241;0.9553;-0.0129;-0.0410;-0.0104
0000014141;-3.6081;-8.0493;0.8380;-0.0104;-0.0324;-0.0087
0000014150;-3.6607;-8.0302;0.8547;-0.0044;-0.0337;-0.0077
0000014159;-3.6368;-8.0756;0.8835;-0.0013;-0.0396;-0.0127
0000014168;-3.6871;-7.9655;0.7422;-0.0133;-0.0462;-0.0144
0000014177;-3.9313;-8.1283;0.6800;-0.0165;-0.0528;-0.0266
0000014186;-3.8188;-8.1451;0.7661;-0.0269;-0.0521;-0.0264
0000014195;-3.8858;-8.2361;0.8930;-0.0308;-0.0429;-0.0260
0000014204;-3.8379;-8.2073;0.9385;-0.0238;-0.0377;-0.0292
0000014213;-3.7134;-8.3701;0.8715;-0.0215;-0.0270;-0.0152
0000014222;-3.7948;-8.3175;0.9194;-0.0149;-0.0241;-0.0073
0000014231;-3.8666;-8.3893;0.9098;-0.0061;-0.0240;0.0099
0000014240;-3.7445;-8.1475;0.8380;0.0063;-0.0224;0.0073
0000014249;-3.7373;-7.9871;0.7446;0.0017;-0.0268;0.0064
0000014258;-3.6966;-7.8721;0.7063;-0.0012;-0.0450;-0.0151
0000014267;-3.5674;-7.6184;0.6057;-0.0213;-0.0494;-0.0273
0000014276;-3.8882;-7.8673;0.5602;-0.0412;-0.0593;-0.0433
0000014285;-4.0677;-8.0972;0.9122;-0.0466;-0.0681;-0.0556
0000014294;-3.7014;-8.1187;0.9936;-0.0490;-0.0569;-0.0485
0000014303;-3.7565;-8.4539;1.0678;-0.0381;-0.0468;-0.0396
0000014312;-3.7565;-8.5712;1.0247;-0.0179;-0.0314;-0.0204
0000014321;-3.6368;-8.4013;0.8978;0.0029;-0.0281;-0.0016
0000014463;-4.0462;-8.3342;0.8619;-0.0532;-0.0418;-0.0502
0000014470;-4.0462;-8.5449;0.9960;-0.0492;-0.0356;-0.0438
0000014478;-3.7397;-8.4060;0.8954;-0.0376;-0.0314;-0.0276
0000014486;-3.9217;-8.5928;0.8763;-0.0205;-0.0230;-0.0047
0000014494;-3.9840;-8.6335;0.9601;-0.0013;-0.0237;0.0041
0000014502;-3.4692;-8.2696;0.8667;0.0160;-0.0288;0.0081
0000014510;-3.7110;-8.0948;0.7470;0.0204;-0.0282;0.0140
