time;acc_x;acc_y;acc_z;gyro_x;gyro_y;gyro_z
0001136911;6.0334;2.1428;3.9361;-0.0364;-0.0553;-0.0005
0001136920;6.1627;2.2027;3.9504;-0.0366;-0.0530;-0.0060
0001136927;6.0501;2.0303;3.8666;-0.0372;-0.0466;-0.0039
0001136935;6.0741;2.0135;3.8930;-0.0350;-0.0460;-0.0047
0001136944;6.3758;2.1428;3.8954;-0.0294;-0.0465;-0.0127
0001136952;6.1363;2.0901;3.9576;-0.0304;-0.0381;-0.0109
0001136964;6.0908;2.1452;3.9169;-0.0276;-0.0354;-0.0077
0001136972;5.8802;2.0423;3.9361;-0.0254;-0.0381;-0.0163
0001136980;5.9999;2.2841;3.9145;-0.0205;-0.0425;-0.0201
0001136991;5.8466;2.1189;3.9361;-0.0262;-0.0480;-0.0192
0001136999;6.0956;2.1237;3.8523;-0.0240;-0.0544;-0.0226
0001137011;5.8323;2.1715;3.8738;-0.0310;-0.0596;-0.0215
0001137019;5.8227;1.9728;3.9193;-0.0270;-0.0671;-0.0224
0001137030;5.8466;2.1787;3.8020;-0.0244;-0.0741;-0.0254
0001137038;5.9999;2.1739;3.8930;-0.0261;-0.0717;-0.0281
0001137050;5.9807;1.9656;3.9816;-0.0248;-0.0713;-0.0310
0001137058;6.1723;2.1261;3.8379;-0.0281;-0.0677;-0.0410
0001137066;6.0525;2.0949;3.8283;-0.0322;-0.0557;-0.0404
0001137133;5.9711;2.2242;3.9624;-0.0280;0.0345;-0.0678
0001137141;5.8323;2.1620;3.9217;-0.0316;0.0445;-0.0625
0001137153;5.8466;2.2721;3.9480;-0.0329;0.0546;-0.0617
0001137161;5.5522;2.0135;3.9097;-0.0278;0.0470;-0.0698
0001137172;5.5905;2.0590;3.8666;-0.0368;0.0458;-0.0665
0001137180;5.5857;2.2314;3.8379;-0.0305;0.0386;-0.0686
0001137188;5.7197;2.2218;3.8714;-0.0246;0.0334;-0.0590
0001137200;5.3989;1.9058;3.8930;-0.0089;0.0357;-0.0468
0001137208;5.5162;2.0111;3.8092;0.0037;0.0340;-0.0478
0001137219;5.6360;2.0423;3.6727;0.0168;0.0409;-0.0261
0001137227;5.7365;2.4014;3.6679;0.0298;0.0388;-0.0183
0001137239;5.8754;2.4253;3.5745;0.0333;0.0489;-0.0040
0001137247;6.0478;2.4924;3.5626;0.0357;0.0481;0.0064
0001137258;6.0214;2.4708;3.5338;0.0257;0.0602;0.0133
0001137266;5.8778;2.3774;3.6152;0.0169;0.0609;0.0103
0001137274;5.7700;2.2146;3.5841;0.0080;0.0663;0.0168
0001137286;5.9424;2.2697;3.5937;0.0003;0.0662;0.0204
0001137294;5.8490;2.2913;3.4931;-0.0096;0.0693;0.0309
0001137305;5.7772;2.2051;3.5865;-0.0085;0.0514;0.0384
0001137313;5.8490;2.1668;3.5698;-0.0095;0.0454;0.0532
0001137321;5.5306;2.1811;3.5674;-0.0103;0.0304;0.0525
0001137333;5.4588;2.0782;3.6224;-0.0075;0.0057;0.0573
0001137341;5.6383;2.3415;3.7038;-0.0184;-0.0032;0.0694
0001137408;6.1411;2.2553;3.8882;-0.0516;-0.0361;0.0556
0001137416;5.9472;2.0638;3.9504;-0.0592;-0.0344;0.0552
0001137428;6.0454;2.1380;3.8690;-0.0552;-0.0350;0.0469
0001137436;5.8706;2.1979;3.8690;-0.0560;-0.0349;0.0476
0001137447;5.7940;1.9824;3.8188;-0.0508;-0.0384;0.0445
0001137455;5.7772;1.9513;3.8259;-0.0509;-0.0356;0.0440
0001137463;5.7820;2.1668;3.7924;-0.0502;-0.0408;0.0386
0001137475;5.7628;1.9872;3.7709;-0.0468;-0.0542;0.0329
0001137483;5.8275;2.0638;3.8259;-0.0565;-0.0553;0.0281
0001137494;5.6623;2.0327;3.7804;-0.0561;-0.0594;0.0077
0001137502;5.8993;2.0686;3.8235;-0.0538;-0.0477;0.0036
0001137514;5.8873;2.1308;3.8259;-0.0410;-0.0548;-0.0141
0001137522;5.8754;2.0638;3.7014;-0.0314;-0.0482;-0.0172
0001137530;5.8586;1.9393;3.7781;-0.0276;-0.0408;-0.0144
0001137541;5.7030;1.9154;3.8140;-0.0112;-0.0420;-0.0233
0001137549;5.6144;1.9656;3.7828;-0.0051;-0.0346;-0.0196
0001137561;5.6455;2.1404;3.7254;-0.0028;-0.0282;-0.0221
0001137569;5.6144;2.1213;3.7014;0.0004;-0.0253;-0.0246
0001137580;5.6407;2.1332;3.7038;0.0079;-0.0163;-0.0346
0001137588;5.6671;2.2122;3.6512;0.0041;-0.0081;-0.0340
0001137600;5.6910;2.2482;3.6464;0.0119;-0.0011;-0.0393
0001137608;5.5857;2.1811;3.6344;0.0171;0.0083;-0.0282
0001137616;5.5809;2.2242;3.5817;0.0281;0.0112;-0.0273
0001137683;5.7700;2.3128;3.6727;0.0706;-0.0004;0.0648
0001137691;5.9424;2.4732;3.6751;0.0638;-0.0007;0.0805
0001137703;5.9328;2.5355;3.7613;0.0554;-0.0051;0.0934
0001137711;5.9975;2.4493;3.7254;0.0472;0.0060;0.1057
0001137722;5.8682;2.2386;3.7757;0.0528;0.0021;0.1167
0001137730;6.0214;2.2338;3.7996;0.0490;0.0088;0.1372
0001137738;6.2058;2.3415;3.7158;0.0496;0.0172;0.1563
0001137750;6.1794;2.0877;3.7350;0.0576;0.0064;0.1716
0001137758;6.1962;2.1979;3.7230;0.0580;0.0057;0.1855
0001137769;6.0334;2.1524;3.9696;0.0805;-0.0097;0.1933
0001137777;5.8275;2.0255;4.0869;0.0902;-0.0181;0.2041
0001137789;6.0023;2.2817;4.1851;0.0999;-0.0614;0.2248
0001137797;5.7724;2.3822;4.1037;0.0930;-0.1115;0.2462
0001137805;5.8155;2.6121;4.1515;0.0823;-0.1609;0.2611
0001137816;5.7317;2.5857;4.2569;0.0588;-0.2411;0.2715
0001137824;5.6551;2.4349;4.2952;0.0505;-0.3026;0.2655
0001137836;5.7293;2.0997;4.4077;0.0402;-0.3901;0.2439
0001137844;5.8131;1.7957;4.4101;0.0270;-0.4447;0.2205
0001137855;5.9640;1.3719;4.2952;0.0290;-0.5244;0.1631
0001137863;5.8873;1.0678;4.2545;0.0370;-0.5706;0.0995
0001137871;6.0525;1.0726;4.1611;0.0477;-0.6029;0.0266
0001137883;6.0501;1.1779;3.8714;0.0620;-0.6253;-0.0842
0001137891;6.2201;1.3048;3.8666;0.0648;-0.6225;-0.1364
0001137958;7.4364;3.1915;2.9951;0.0955;-0.2037;-0.1042
0001137966;7.4771;3.1101;2.9951;0.1088;-0.1447;-0.0552
0001137978;7.8003;2.9521;3.0335;0.1267;-0.0482;0.0233
0001137986;7.6064;2.7821;3.0406;0.1483;0.0059;0.0725
0001137994;7.4436;2.6695;3.1244;0.1775;0.0508;0.1183
0001138005;7.1156;2.6791;3.1891;0.2193;0.1041;0.1868
0001138013;7.0078;2.7150;3.2513;0.2293;0.1260;0.2490
0001138025;6.9001;2.7940;3.3615;0.2427;0.1411;0.3230
0001138033;6.5721;2.6767;3.2896;0.2344;0.1498;0.3652
0001138044;6.8067;2.9544;3.1651;0.1933;0.1427;0.3854
0001138052;6.5481;2.7964;3.1388;0.1555;0.1280;0.3760
0001138060;6.6463;3.1436;3.2944;0.1268;0.1196;0.3647
0001138072;6.4763;2.8922;3.1412;0.0793;0.0901;0.3329
0001138080;6.4643;2.8587;3.1149;0.0445;0.0785;0.3084
0001138091;6.5003;2.8276;3.0981;0.0301;0.0670;0.2650
0001138099;6.6104;2.7246;2.9832;0.0248;0.0484;0.2310
0001138111;6.3829;2.4373;2.9185;0.0234;0.0224;0.1964
0001138119;6.4979;2.3224;3.0023;0.0408;-0.0028;0.1769
0001138127;6.7253;2.4780;2.9688;0.0570;-0.0195;0.1641
0001138138;6.6990;2.2146;3.1268;0.0850;-0.0382;0.1428
0001138146;6.9719;2.3894;3.1795;0.0945;-0.0478;0.1315
0001138158;7.0653;2.3463;3.2657;0.0977;-0.0621;0.1111
0001138166;7.1611;2.5857;3.3926;0.0933;-0.0706;0.1005
0001138233;7.3263;2.3080;3.1484;-0.1615;-0.0817;0.1404
0001138241;7.2784;2.1883;3.1963;-0.1620;-0.0662;0.1332
0001138249;7.1036;1.8699;3.1723;-0.1487;-0.0569;0.1170
0001138261;6.8307;1.7573;2.9688;-0.1116;-0.0565;0.0986
0001138269;6.7852;1.6688;2.8108;-0.0794;-0.0494;0.0989
0001138280;6.6152;1.6903;2.8180;-0.0397;-0.0562;0.1156
0001138288;6.6511;1.8172;2.7031;-0.0125;-0.0610;0.1323
0001138300;6.9887;1.9680;2.5043;0.0103;-0.0719;0.1532
0001138308;7.1874;2.1979;2.4780;0.0079;-0.0718;0.1528
0001138316;7.2401;2.2027;2.6049;-0.0088;-0.0634;0.1466
0001138328;7.4220;2.3439;2.7390;-0.0205;-0.0270;0.1222
0001138336;7.5705;2.3391;2.7629;-0.0369;-0.0031;0.0863
0001138347;7.6088;2.5259;2.6312;-0.0726;0.0302;0.0450
0001138355;7.5322;2.5019;2.7102;-0.1081;0.0521;0.0316
0001138367;7.1970;2.3511;2.6719;-0.1456;0.0809;0.0264
0001138375;7.0557;2.0614;2.6456;-0.1593;0.0906;0.0306
0001138383;7.2616;2.0614;2.6887;-0.1637;0.1124;0.0406
0001138394;7.0461;1.8244;2.6767;-0.1511;0.1271;0.0529
0001138402;7.2018;1.9010;2.7078;-0.1424;0.1420;0.0561
0001138414;7.3478;2.0758;2.8587;-0.1268;0.1491;0.0410
0001138422;7.0940;2.0662;2.8156;-0.1218;0.1529;0.0249
0001138434;6.9576;2.2553;2.9113;-0.1206;0.1472;0.0004
0001138442;6.7229;2.3583;3.0047;-0.1176;0.1426;-0.0127
0001138450;6.8211;2.6001;2.8874;-0.1095;0.1380;-0.0325
0001138518;7.5944;2.7845;2.6767;-0.0454;0.3002;0.0095
0001138526;7.5800;2.8874;2.4804;-0.0410;0.3289;0.0229
0001138537;7.4484;3.0598;2.4421;-0.0269;0.3627;0.0252
0001138545;7.3478;3.0167;2.3631;-0.0171;0.3770;0.0306
0001138557;7.1802;3.0382;2.3176;0.0113;0.3912;0.0389
0001138565;7.2329;2.7557;2.3152;0.0344;0.3990;0.0416
0001138573;7.3789;2.8132;2.2769;0.0526;0.4049;0.0502
0001138584;7.4555;2.9521;2.2458;0.0814;0.3890;0.0629
0001138592;7.2640;2.9401;2.3152;0.0858;0.3757;0.0838
0001138604;7.0054;2.9377;2.6288;0.0977;0.3401;0.1006
0001138612;6.8331;3.0981;2.9784;0.1116;0.3055;0.1131
0001138623;6.5817;3.4046;3.2250;0.1374;0.2282;0.1270
0001138631;6.4165;3.4836;3.5314;0.1528;0.1877;0.1250
0001138639;6.3542;3.3232;3.5602;0.1669;0.1484;0.1062
0001138651;6.4332;3.4524;3.5243;0.1777;0.0991;0.0373
0001138659;6.5721;3.4788;3.3232;0.1649;0.0702;-0.0211
0001138670;6.5434;3.0598;3.1867;0.1362;0.0541;-0.0962
0001138678;6.7325;2.9640;3.0861;0.1156;0.0578;-0.1515
0001138690;6.7540;2.5690;2.9975;0.0959;0.0771;-0.2129
0001138698;6.8283;2.5115;2.9401;0.1070;0.0925;-0.2415
0001138706;6.9767;2.3032;3.1556;0.1327;0.1130;-0.2418
0001138718;7.0773;2.0997;3.1364;0.1944;0.1384;-0.2344
0001138726;7.1850;1.9489;3.2370;0.2236;0.1655;-0.2305
0001138794;6.0645;1.7023;4.6878;0.1083;0.0799;-0.0053
0001138802;5.8682;1.4557;4.6567;0.0709;0.0346;0.0135
0001138813;5.7652;1.0942;4.4532;0.0129;-0.0217;0.0265
0001138821;5.7461;0.9720;4.4149;0.0013;-0.0751;0.0222
0001138829;5.8371;0.9385;4.3311;0.0036;-0.1226;0.0205
0001138841;5.8419;0.7326;4.3718;0.0413;-0.1915;0.0061
0001138849;6.0813;0.8452;4.3814;0.0929;-0.2181;-0.0095
0001138860;6.8091;1.2450;4.5849;0.1957;-0.2517;-0.0416
0001138868;6.6463;1.2641;4.5849;0.2769;-0.2526;-0.0650
0001138880;7.1323;2.1859;4.6256;0.3945;-0.2482;-0.1158
0001138888;6.7732;2.2817;4.3407;0.4274;-0.2256;-0.1394
0001138896;6.8450;2.8802;4.2641;0.4211;-0.1931;-0.1629
0001138907;6.8019;3.3495;4.0270;0.3741;-0.1584;-0.1860
0001138915;6.4380;3.4716;4.0318;0.3111;-0.1384;-0.1871
0001138927;6.3039;3.5985;4.0414;0.2134;-0.1138;-0.1765
0001138935;6.2417;3.4788;3.8882;0.1504;-0.0981;-0.1767
0001138946;6.3805;3.3543;3.8738;0.0877;-0.0879;-0.1968
0001138954;6.4380;3.2202;3.8307;0.0498;-0.0749;-0.2180
0001138966;6.3015;2.8276;3.9241;0.0218;-0.0637;-0.2729
0001138974;6.2249;2.5977;4.0199;0.0225;-0.0642;-0.3075
0001138982;6.0358;2.3559;3.8954;0.0336;-0.0655;-0.3199
0001138994;5.7820;2.1835;3.7421;0.0422;-0.0869;-0.3258
0001139002;5.6910;2.0063;3.7685;0.0569;-0.1091;-0.3268
0001139070;6.3590;2.5355;3.2154;-0.0570;-0.1474;-0.2417
0001139078;6.2728;2.3152;3.2106;-0.0835;-0.1372;-0.2357
0001139089;6.4069;2.2769;3.2465;-0.0963;-0.1290;-0.2314
0001139097;6.3087;2.1620;3.2082;-0.0887;-0.1210;-0.2282
0001139109;6.2704;1.9920;3.2106;-0.0695;-0.1074;-0.2185
0001139117;5.9592;1.6855;3.1580;-0.0440;-0.0923;-0.2138
0001139125;5.8490;1.6664;3.1891;-0.0144;-0.0826;-0.2100
0001139136;6.1746;1.7262;3.0095;0.0273;-0.0723;-0.1925
0001139144;6.0693;1.6616;3.1053;0.0581;-0.0602;-0.1879
0001139156;6.1794;2.0303;2.9377;0.0978;-0.0520;-0.1856
0001139164;6.2225;2.0925;2.8252;0.1144;-0.0337;-0.1804
0001139175;6.1675;2.1691;2.8730;0.1343;-0.0297;-0.1721
0001139183;6.0334;2.2434;2.8539;0.1346;-0.0164;-0.1580
0001139191;6.2130;2.4493;2.9113;0.1396;-0.0087;-0.1541
0001139203;6.0789;2.5714;2.8778;0.1291;0.0119;-0.1406
0001139211;6.2058;2.7677;2.7892;0.1292;0.0261;-0.1343
0001139222;5.8730;2.6863;2.7222;0.1112;0.0333;-0.1094
0001139230;5.7102;2.5642;2.5857;0.0907;0.0466;-0.0850
0001139242;5.8490;2.5905;2.5379;0.0747;0.0482;-0.0659
0001139250;5.8323;2.4541;2.5211;0.0600;0.0629;-0.0421
0001139258;5.9352;2.2577;2.4205;0.0550;0.0698;-0.0308
0001139270;5.9520;2.1141;2.3990;0.0783;0.0741;-0.0244
0001139278;6.0765;2.2003;2.5067;0.1057;0.0766;-0.0228
0001139346;5.6240;2.3463;2.5618;0.1139;0.0458;0.0805
0001139354;5.7772;2.3798;2.5115;0.1006;0.0361;0.0950
0001139365;5.8323;2.1452;2.5474;0.0962;0.0390;0.1219
0001139373;6.0166;2.1045;2.6049;0.1179;0.0329;0.1316
0001139381;6.1818;2.1428;2.6097;0.1266;0.0482;0.1464
0001139393;6.3255;2.1787;2.7031;0.1415;0.0593;0.1494
0001139401;6.1627;2.1189;2.6432;0.1522;0.0811;0.1617
0001139412;6.0166;2.1213;2.6288;0.1575;0.0954;0.1767
0001139420;6.1555;2.0399;2.5498;0.1512;0.0965;0.1808
0001139432;5.9783;2.0063;2.5618;0.1350;0.1070;0.1945
0001139440;5.8658;2.0039;2.4134;0.1262;0.1045;0.1976
0001139448;5.8059;1.9728;2.3894;0.1211;0.1055;0.2030
0001139459;5.7748;2.2913;2.2314;0.1030;0.1163;0.2110
0001139467;5.8969;2.5929;2.1165;0.0863;0.1343;0.2186
0001139479;5.4420;2.5235;2.1931;0.0661;0.1363;0.2292
0001139487;5.4396;2.4900;2.0877;0.0564;0.1302;0.2217
0001139498;5.4133;2.9688;2.1093;0.0569;0.1304;0.2265
0001139506;5.3774;2.8371;2.2194;0.0513;0.1252;0.2238
0001139514;5.6192;3.0598;2.4253;0.0448;0.1115;0.2196
0001139526;5.9256;3.2178;2.6145;-0.0115;0.1144;0.2041
0001139534;6.0334;3.3232;2.7533;-0.0509;0.1226;0.1761
0001139546;6.1076;3.3471;3.0694;-0.1143;0.1635;0.1263
0001139554;6.0047;3.2705;3.2082;-0.1403;0.2117;0.0882
0001139620;5.4660;2.9664;1.8890;-0.0971;0.3128;-0.0258
0001139628;4.8219;2.6624;1.9920;-0.1104;0.2417;-0.0238
0001139636;4.5107;2.8180;2.2075;-0.1243;0.1732;-0.0254
0001139647;4.1875;2.8491;2.4972;-0.1487;0.0737;-0.0224
0001139655;4.3862;3.0981;2.8443;-0.1748;0.0069;-0.0147
0001139667;4.6855;3.0813;3.2561;-0.2353;-0.0663;-0.0135
0001139675;5.0494;3.1149;3.5386;-0.2879;-0.0737;-0.0109
0001139686;5.6336;2.6887;3.2154;-0.3713;-0.0546;-0.0167
0001139694;5.8945;2.5809;2.9161;-0.4334;-0.0119;-0.0035
0001139702;6.6367;2.2386;2.7940;-0.4706;0.0410;0.0217
0001139714;7.3765;1.5562;3.0861;-0.4293;0.0933;0.0620
0001139722;8.0014;1.2665;3.2585;-0.3527;0.1300;0.0829
0001139734;8.1475;1.0534;3.3878;-0.2090;0.1948;0.0894
0001139742;8.1068;1.0989;3.4069;-0.1183;0.2622;0.0683
0001139753;7.3454;1.3838;3.4189;-0.0111;0.3364;0.0148
0001139761;7.0198;1.8531;3.3375;0.0360;0.3619;-0.0310
0001139769;6.4093;2.2865;3.3303;0.0573;0.3599;-0.0593
0001139781;5.6407;2.5857;3.6224;0.0658;0.3222;-0.1172
0001139789;5.3606;2.9281;3.5602;0.0650;0.2766;-0.1613
0001139800;4.7645;3.1149;3.7206;0.0320;0.1977;-0.1948
0001139808;4.6615;3.0550;3.5674;-0.0136;0.1448;-0.1903
0001139820;5.4636;3.1220;3.4979;-0.0862;0.0542;-0.1656
0001139828;5.9041;2.9137;3.3998;-0.1220;0.0080;-0.1434
0001139895;7.2808;2.4780;2.7390;0.1873;0.1055;-0.1888
0001139903;6.8905;2.5953;2.8252;0.2038;0.1116;-0.2034
0001139911;6.3805;2.6887;2.9688;0.2017;0.1095;-0.2054
0001139923;5.8275;2.7677;3.1196;0.1781;0.0826;-0.1705
0001139931;5.6886;2.9185;3.1005;0.1519;0.0504;-0.1251
0001139942;5.7126;2.7964;3.1029;0.1359;0.0057;-0.0814
0001139950;5.5402;2.6600;3.1580;0.1346;-0.0179;-0.0604
0001139962;5.6312;2.5666;3.1915;0.1659;-0.0548;-0.0432
0001139970;5.6479;2.2601;3.0335;0.1920;-0.0798;-0.0373
0001139978;5.8203;2.1620;3.0263;0.2153;-0.0899;-0.0272
0001139989;6.0837;2.1189;3.0071;0.2455;-0.1011;-0.0240
0001139997;6.3973;2.0183;2.8371;0.2594;-0.0937;-0.0281
0001140009;6.6056;1.9920;2.7414;0.2761;-0.0735;-0.0365
0001140017;6.6248;2.0853;2.6552;0.2898;-0.0638;-0.0474
0001140028;6.7133;2.3296;2.6959;0.3072;-0.0546;-0.0678
0001140036;6.7229;2.3439;2.7916;0.3156;-0.0445;-0.0818
0001140044;6.5601;2.3535;2.7629;0.3003;-0.0338;-0.0921
0001140056;6.5721;2.6240;2.5929;0.2867;-0.0320;-0.0966
0001140064;6.4787;2.6983;2.6600;0.2918;-0.0369;-0.0998
0001140075;6.1770;2.5762;2.9090;0.2964;-0.0453;-0.0919
0001140083;5.8897;2.4612;2.8826;0.3007;-0.0512;-0.0791
0001140095;5.8083;2.7797;2.6528;0.2894;-0.0867;-0.0434
0001140103;5.7317;2.8084;2.4349;0.2645;-0.1239;-0.0213
0001140170;6.0932;2.4325;1.6448;0.1632;-0.3496;-0.0037
0001140178;6.1052;2.2290;1.7190;0.2089;-0.3447;-0.0116
0001140186;6.2058;2.1093;1.7478;0.2589;-0.3268;-0.0180
0001140198;5.9687;2.1069;1.6328;0.3255;-0.3214;-0.0107
0001140206;5.7820;2.1404;1.6568;0.3702;-0.3223;0.0117
0001140217;5.6312;2.3415;1.5490;0.3988;-0.3267;0.0464
0001140225;5.7796;2.6863;1.3982;0.4074;-0.3459;0.0561
0001140237;5.8682;3.0335;1.3767;0.3584;-0.3722;0.0645
0001140245;5.9137;3.2561;1.4054;0.3092;-0.3772;0.0541
0001140253;5.7916;3.0694;1.3384;0.2631;-0.3922;0.0317
0001140264;5.9328;2.9497;1.3288;0.2154;-0.4038;-0.0057
0001140272;5.9448;2.8395;1.4916;0.2044;-0.4062;-0.0272
0001140284;5.7676;2.2960;1.4653;0.2124;-0.4102;-0.0632
0001140292;5.8706;2.1308;1.3671;0.2268;-0.4012;-0.0753
0001140303;5.8945;1.8771;1.3599;0.2635;-0.3920;-0.0913
0001140311;6.0071;1.8292;1.4078;0.2850;-0.3717;-0.1023
0001140319;6.0094;1.7382;1.2857;0.2964;-0.3659;-0.1120
0001140331;6.1866;1.6735;1.0630;0.3039;-0.3645;-0.1519
0001140339;6.1076;1.7262;1.0463;0.3112;-0.3651;-0.1911
0001140350;6.1076;1.8986;1.2474;0.3368;-0.3669;-0.2458
0001140358;6.1363;1.9297;1.2833;0.3476;-0.3539;-0.2699
0001140370;6.2489;2.0255;1.3408;0.3684;-0.3329;-0.2975
0001140378;6.0358;1.9992;1.3144;0.3744;-0.3166;-0.2983
0001140445;6.3853;2.4924;1.2641;0.2726;-0.1599;-0.1757
0001140453;6.5577;2.4181;1.1660;0.2474;-0.1487;-0.1564
0001140461;6.7636;2.4157;1.1325;0.2292;-0.1467;-0.1467
0001140473;6.7301;2.5546;1.0606;0.2124;-0.1336;-0.1316
0001140481;6.6822;2.6217;1.1013;0.2265;-0.1250;-0.1330
0001140492;6.3255;2.6169;1.2163;0.2402;-0.0967;-0.1242
0001140500;6.3398;2.9042;1.3168;0.2622;-0.0915;-0.1150
0001140512;6.0238;3.1580;1.5467;0.2729;-0.0913;-0.0871
0001140520;5.8897;3.3208;1.6137;0.2482;-0.0890;-0.0550
0001140528;5.8873;3.5051;1.4389;0.2058;-0.0899;-0.0313
0001140539;5.9185;3.7302;1.2474;0.1079;-0.0758;0.0048
0001140547;5.5593;3.3064;1.2163;0.0473;-0.0774;0.0191
0001140559;5.8658;3.2274;1.1923;0.0055;-0.0803;0.0234
0001140567;5.9903;3.2274;1.1564;0.0016;-0.0766;0.0272
0001140578;6.0765;3.1556;1.1109;0.0268;-0.0801;0.0179
0001140586;6.0621;3.0837;1.1588;0.0490;-0.0806;-0.0035
0001140598;6.1435;3.3591;1.1420;0.0429;-0.0810;-0.0272
0001140606;5.8802;3.5602;0.9936;0.0135;-0.0897;-0.0369
0001140614;5.6383;3.6368;0.9098;-0.0216;-0.0947;-0.0437
0001140625;5.3367;3.6464;0.6991;-0.0801;-0.1126;-0.0389
0001140633;5.0781;3.4381;0.7877;-0.0939;-0.1352;-0.0414
0001140645;5.0589;3.2489;0.7326;-0.0857;-0.1692;-0.0514
0001140653;5.1811;3.3303;0.6297;-0.0517;-0.1908;-0.0710
0001140720;6.0525;4.0965;0.3448;-0.1532;-0.2360;-0.0470
0001140728;6.5745;4.2210;0.3783;-0.1998;-0.2221;-0.0237
0001140740;6.7780;3.8307;0.4381;-0.2638;-0.1783;-0.0117
0001140748;6.6559;3.5626;0.5052;-0.2781;-0.1552;-0.0160
0001140756;6.5649;3.3998;0.6369;-0.2795;-0.1274;-0.0197
0001140767;6.6367;3.2178;0.8140;-0.2625;-0.0946;-0.0250
0001140775;6.1459;2.8563;0.9936;-0.2451;-0.0766;-0.0273
0001140787;5.8682;2.7892;1.4222;-0.2345;-0.0464;-0.0220
0001140795;5.7916;3.0358;1.3479;-0.2345;-0.0426;-0.0004
0001140806;5.4420;3.1244;1.5251;-0.2553;-0.0554;0.0390
0001140814;5.4851;3.3064;1.4916;-0.2831;-0.0633;0.0769
0001140822;5.6336;3.3830;1.6233;-0.3276;-0.0802;0.1062
0001140834;6.0238;3.5698;1.6496;-0.3990;-0.0967;0.1342
0001140842;6.2130;3.7781;1.4653;-0.4407;-0.1116;0.1355
0001140853;6.1459;4.0294;1.3575;-0.4671;-0.1508;0.1057
0001140861;5.8562;3.9696;1.3958;-0.4634;-0.1695;0.0695
0001140873;5.3391;3.9576;1.5682;-0.3982;-0.1911;0.0041
0001140881;5.1858;4.0654;1.7142;-0.3325;-0.1936;-0.0294
0001140892;5.0446;3.7613;2.1715;-0.2210;-0.2005;-0.0674
0001140900;5.4324;3.4046;2.4684;-0.1659;-0.1897;-0.0657
0001140908;5.9233;3.0239;2.2434;-0.1435;-0.1703;-0.0658
0001140920;6.4452;2.5402;1.4174;-0.1556;-0.1226;-0.0448
0001140928;7.2042;2.5426;0.7638;-0.1580;-0.1033;-0.0341
0001140995;3.2872;6.8738;4.5969;0.1695;-0.4471;0.2056
0001141003;4.3096;6.6415;4.5250;0.0405;-0.4251;0.1631
0001141015;6.1770;5.7102;4.1300;-0.1988;-0.3738;0.0739
0001141023;7.2640;4.7812;3.9528;-0.3565;-0.3611;0.0181
0001141034;8.2887;3.2561;3.8188;-0.5409;-0.3289;-0.0337
0001141042;8.7221;2.2673;3.6847;-0.6191;-0.3064;-0.0570
0001141050;8.9088;1.3743;3.4860;-0.6646;-0.2745;-0.0738
0001141062;8.1331;0.2298;3.4333;-0.6157;-0.2357;-0.1122
0001141070;7.3813;-0.0503;3.3088;-0.5040;-0.2118;-0.1243
0001141082;5.8227;-0.3903;3.1101;-0.2890;-0.2144;-0.1158
0001141090;5.0566;-0.4214;2.9928;-0.1200;-0.2478;-0.0971
0001141101;4.5011;-0.0742;2.6887;0.0943;-0.3226;-0.0907
0001141109;4.4436;0.6680;2.6384;0.2070;-0.3764;-0.1006
0001141121;4.3167;1.3431;2.4469;0.2883;-0.4587;-0.1388
0001141129;4.1515;1.5610;2.4373;0.2794;-0.5076;-0.1460
0001141137;4.4221;2.2889;2.6935;0.3070;-0.5633;-0.1571
0001141148;4.7645;2.7773;2.4756;0.3206;-0.5712;-0.1677
0001141156;4.8267;2.8180;2.5546;0.2653;-0.5784;-0.1556
0001141168;5.9137;3.1508;2.8347;0.1751;-0.5616;-0.1138
0001141176;6.4045;3.0023;2.7653;0.1605;-0.5225;-0.0922
0001141243;5.8371;1.5921;2.5331;0.0648;-0.2806;-0.2783
0001141251;5.3439;1.7789;2.5139;0.0842;-0.2988;-0.2847
0001141259;4.5873;1.7861;2.5570;0.1222;-0.3226;-0.2751
0001141271;4.1396;2.0925;2.3750;0.1811;-0.3593;-0.2114
0001141279;4.1587;2.3703;2.3056;0.2053;-0.3978;-0.1672
0001141290;4.8578;2.6552;2.1189;0.2285;-0.4313;-0.1055
0001141298;5.2409;2.9353;2.0830;0.2525;-0.4395;-0.0863
0001141310;5.8730;3.3016;1.9297;0.2843;-0.4289;-0.0987
0001141318;6.0980;3.5506;1.8962;0.2866;-0.3976;-0.1207
0001141329;6.3231;3.6583;1.6424;0.2703;-0.3487;-0.1492
0001141337;6.5888;3.8331;1.4892;0.2257;-0.2992;-0.1573
0001141345;6.5481;3.7445;1.3384;0.1677;-0.2653;-0.1543
0001141357;6.5027;3.5650;1.1684;0.0725;-0.2213;-0.1231
0001141365;6.3327;3.3088;1.2474;0.0318;-0.1988;-0.0942
0001141377;6.3279;3.1388;1.2857;0.0222;-0.1815;-0.0675
0001141385;6.5146;2.8587;1.1444;0.0221;-0.1696;-0.0608
0001141397;6.2872;2.7414;1.2833;0.0125;-0.1486;-0.0576
0001141405;6.2417;2.5953;1.1660;0.0048;-0.1351;-0.0561
0001141413;6.1794;2.4517;1.0582;-0.0152;-0.1187;-0.0462
0001141424;6.1962;2.3463;0.8811;-0.0274;-0.0927;-0.0518
0001141432;6.2441;2.2625;0.9098;-0.0187;-0.0759;-0.0413
0001141444;6.2489;2.3272;1.0678;-0.0076;-0.0434;-0.0208
0001141452;6.3159;2.4277;1.1301;0.0001;-0.0172;-0.0011
0001141519;6.7181;2.0566;0.2155;-0.0528;0.3127;0.0288
0001141527;6.4332;1.9920;0.3472;-0.0289;0.3440;0.0237
0001141539;6.0573;1.8794;0.6464;0.0237;0.3818;0.0374
0001141547;5.9400;1.9609;0.8380;0.0600;0.3969;0.0541
0001141555;5.7820;2.0375;0.8045;0.0830;0.4098;0.0721
0001141567;5.6647;2.0207;0.7949;0.0746;0.4125;0.0950
0001141575;5.6336;1.9968;0.8021;0.0634;0.4101;0.0935
0001141587;5.9185;2.0853;0.6991;0.0172;0.3949;0.1069
0001141595;5.6910;2.2721;0.6943;0.0011;0.3801;0.1236
0001141607;5.7700;2.3535;0.9649;-0.0064;0.3547;0.1545
0001141615;5.5593;2.3535;1.1349;0.0084;0.3359;0.1725
0001141623;5.5306;2.6121;1.1181;0.0207;0.3312;0.1908
0001141635;5.1140;2.5498;1.0750;0.0132;0.3082;0.1976
0001141643;5.0853;2.7414;1.1372;0.0011;0.2761;0.1915
0001141654;4.8602;2.7557;1.3264;-0.0346;0.2345;0.1908
0001141662;4.9512;2.8012;1.4868;-0.0453;0.1978;0.1717
0001141670;5.0422;2.8252;1.7669;-0.0478;0.1564;0.1531
0001141682;4.8507;2.6791;1.9656;-0.0570;0.1218;0.1367
0001141690;5.0111;2.8204;1.9417;-0.0586;0.1069;0.1335
0001141701;5.1212;2.7725;1.6065;-0.0737;0.0957;0.1504
0001141709;5.2241;2.6935;1.4246;-0.0939;0.0873;0.1643
0001141721;5.5689;2.9521;1.3647;-0.1013;0.0727;0.1864
0001141729;5.6695;2.7940;1.4269;-0.0834;0.0556;0.1889
0001141796;5.8012;2.7892;1.9034;-0.0946;-0.0787;0.0663
0001141804;6.2058;2.8611;1.5778;-0.1358;-0.0568;0.0548
0001141812;6.4763;2.9090;1.4485;-0.1569;-0.0215;0.0750
0001141824;6.6990;2.8563;1.4605;-0.1363;0.0024;0.1248
0001141832;6.9552;3.1699;1.7933;-0.0902;0.0075;0.1817
0001141844;6.9623;3.3806;2.1572;-0.0132;-0.0097;0.2356
0001141852;6.7828;3.4405;2.1284;0.0147;-0.0125;0.2393
0001141864;6.2968;3.6105;1.9034;-0.0195;0.0217;0.2008
0001141872;5.8227;3.4764;1.7406;-0.0634;0.0437;0.1700
0001141880;5.5809;3.5506;1.6424;-0.1106;0.0553;0.1456
0001141891;5.7126;3.7038;1.7238;-0.1350;0.0305;0.1192
0001141899;5.6623;3.6033;1.8292;-0.1306;-0.0027;0.1067
0001141911;5.7916;3.5889;2.2075;-0.1074;-0.0641;0.1067
0001141919;5.8754;3.5602;2.2793;-0.0866;-0.1009;0.1164
0001141931;5.9879;3.7445;2.0973;-0.1003;-0.1248;0.1098
0001141940;6.0645;3.8379;1.9273;-0.1443;-0.1140;0.0847
0001141949;6.0693;3.8188;1.8818;-0.1849;-0.0977;0.0629
0001141962;6.3997;3.8762;1.8771;-0.2057;-0.1019;0.0305
0001141971;6.3566;3.7733;1.8076;-0.1896;-0.1200;-0.0019
0001141983;5.9951;3.4381;1.8507;-0.1796;-0.1282;-0.0418
0001141992;5.9472;3.4836;1.8292;-0.1876;-0.1268;-0.0662
0001142005;5.7964;3.5123;1.8148;-0.1973;-0.1280;-0.0817
0001142014;5.9137;3.5243;1.8986;-0.2133;-0.1238;-0.0644
0001142082;6.4907;3.1675;1.6783;-0.1130;-0.1665;0.0193
0001142091;6.5673;3.0694;1.8124;-0.1158;-0.1665;0.0405
0001142100;6.7229;3.0119;1.8340;-0.1398;-0.1454;0.0474
0001142113;6.9599;3.0406;1.6783;-0.1879;-0.0882;0.0306
0001142122;6.7756;2.7988;1.5251;-0.2140;-0.0649;0.0248
0001142134;6.6607;2.9688;1.3719;-0.2122;-0.0569;0.0292
0001142143;6.5290;3.0358;1.7286;-0.1880;-0.0608;0.0362
0001142156;6.3135;3.1053;2.0327;-0.1411;-0.0705;0.0558
0001142165;6.3686;3.4357;2.0303;-0.1326;-0.0713;0.0629
0001142174;5.7796;3.2322;2.1428;-0.1491;-0.0726;0.0657
0001142186;5.7772;3.2777;2.0542;-0.2130;-0.0703;0.0558
0001142195;5.6910;3.0670;1.7885;-0.2789;-0.0626;0.0630
0001142208;5.5258;2.5426;1.6376;-0.3461;-0.0682;0.0659
0001142217;5.7964;2.4445;1.5467;-0.3543;-0.0681;0.0751
0001142229;5.9328;2.2098;1.5610;-0.3191;-0.0834;0.0870
0001142238;6.1890;1.9728;1.7310;-0.2606;-0.1086;0.0955
0001142251;6.3255;2.0111;2.1931;-0.1514;-0.1491;0.0758
0001142260;6.3279;2.1284;2.3296;-0.1135;-0.1492;0.0478
0001142269;6.0501;2.1787;2.4900;-0.1010;-0.1529;0.0023
0001142281;5.6144;2.2075;2.3056;-0.1251;-0.1680;-0.0533
0001142290;5.5043;2.3487;2.1572;-0.1640;-0.1672;-0.0690
0001142303;5.4803;2.2865;1.8531;-0.1945;-0.1851;-0.0677
0001142312;5.5737;2.2170;1.8579;-0.1907;-0.1981;-0.0418
0001142380;5.5785;2.3224;1.9130;-0.1508;-0.1952;-0.1769
0001142389;5.5115;2.6025;1.5155;-0.1580;-0.1747;-0.1704
0001142402;5.8658;2.8994;1.5419;-0.1021;-0.1879;-0.0770
0001142411;6.4596;2.9329;2.1261;-0.0289;-0.2252;-0.0013
0001142420;7.1778;3.3423;2.6887;0.0224;-0.2272;0.0408
0001142433;7.5034;3.3567;3.2633;0.0250;-0.2022;0.0257
0001142442;7.5561;3.4429;3.3471;-0.0264;-0.1667;-0.0163
0001142455;7.3095;3.1149;2.9544;-0.1486;-0.1183;-0.0925
0001142464;6.8259;2.9856;2.6480;-0.2138;-0.0867;-0.1304
0001142477;6.3231;2.5738;2.2601;-0.2044;-0.0609;-0.1204
0001142486;6.1387;2.5450;2.2841;-0.1231;-0.0638;-0.0729
0001142499;6.1363;2.8922;2.4828;0.0492;-0.0616;0.0096
0001142508;6.4715;3.2370;2.6384;0.1499;-0.0525;0.0496
0001142517;6.8618;3.5889;2.8371;0.2053;-0.0422;0.0445
0001142533;7.4460;3.8738;3.0861;0.1964;-0.0112;-0.0373
0001142542;7.3598;3.6775;2.9137;0.1549;0.0159;-0.1096
0001142555;6.8498;3.0071;2.7150;0.0938;0.0562;-0.1856
0001142564;6.7253;2.8084;2.5067;0.0699;0.0790;-0.1977
0001142576;6.3518;2.3200;2.2865;0.0698;0.0862;-0.1769
0001142585;6.5817;2.1332;2.3487;0.0814;0.0935;-0.1556
0001142594;6.6056;1.7190;2.2649;0.1062;0.1126;-0.1428
0001142663;6.9001;3.1675;2.3822;0.2801;0.2482;0.0457
0001142672;6.5242;3.6679;2.4612;0.2578;0.2278;0.0156
0001142684;5.8921;3.9241;2.5379;0.1933;0.1805;-0.0213
0001142693;5.5689;4.0486;2.4565;0.1295;0.1248;-0.0470
0001142706;5.5522;3.9025;2.4660;0.0241;0.0257;-0.0678
0001142715;5.6599;3.7852;2.6384;-0.0284;-0.0468;-0.0726
0001142724;5.8466;3.4907;2.6456;-0.0570;-0.1174;-0.0853
0001142736;6.2058;3.0981;2.6863;-0.0738;-0.1893;-0.1019
0001142745;5.9448;2.7869;2.5546;-0.0695;-0.2253;-0.1078
0001142758;6.0573;2.5833;2.3439;-0.0157;-0.2581;-0.1167
0001142767;5.8993;2.4325;2.3966;0.0609;-0.2701;-0.1108
0001142779;6.0908;2.5833;2.3727;0.1478;-0.2789;-0.0777
0001142788;6.0310;2.6671;2.5187;0.2000;-0.2954;-0.0476
0001142797;6.4189;2.9664;2.4421;0.2045;-0.3020;-0.0089
0001142810;6.9336;3.2298;2.0159;0.1511;-0.3038;0.0127
0001142819;7.3670;3.2417;2.1093;0.0915;-0.3023;-0.0077
0001142831;7.1706;2.9113;1.9345;0.0171;-0.2629;-0.0152
0001142840;7.2113;2.6264;1.8699;0.0021;-0.2423;-0.0080
0001142853;7.3071;2.3655;1.6616;0.0063;-0.1941;0.0172
0001142862;7.3287;2.2194;1.5467;0.0200;-0.1420;0.0418
0001142874;7.4005;1.8723;1.5658;0.0573;-0.0785;0.0612
0001142883;7.4747;1.9154;1.5131;0.1003;-0.0297;0.0600
0001142892;7.1922;1.6424;1.4653;0.1379;0.0215;0.0737
0001142961;7.2377;1.2139;1.3455;0.3067;0.1763;0.1459
0001142970;7.3574;1.2713;1.1061;0.3088;0.1965;0.1492
0001142982;7.4005;1.3312;1.0798;0.3046;0.2193;0.1291
0001142991;7.2449;1.3791;1.2450;0.3099;0.2437;0.0903
0001143000;7.1730;1.7166;1.5131;0.3151;0.2851;0.0514
0001143013;6.3997;2.0327;2.0686;0.3147;0.3368;0.0148
0001143022;6.3135;2.3367;2.1524;0.2890;0.3713;0.0333
0001143034;5.8658;2.6719;2.0255;0.2017;0.3860;0.0930
0001143043;6.0956;3.1292;1.9513;0.1053;0.3924;0.1511
0001143056;5.9280;2.9473;1.3647;-0.0394;0.3712;0.2261
0001143065;5.8275;2.5857;1.2378;-0.0966;0.3495;0.2403
0001143074;5.7748;2.2098;1.3384;-0.1037;0.3277;0.2146
0001143086;6.0956;2.0830;1.5706;-0.0461;0.3158;0.1621
0001143095;6.1148;1.9896;1.8387;0.0168;0.3099;0.1100
0001143108;5.9161;1.6927;2.0686;0.0947;0.2842;0.0430
0001143117;6.3925;2.1308;1.9321;0.1077;0.2689;0.0159
0001143129;6.3734;2.4038;1.3815;0.0497;0.2449;-0.0031
0001143138;6.1603;2.4756;1.1851;-0.0139;0.2074;-0.0173
0001143147;6.4284;2.8132;1.1205;-0.0641;0.1824;-0.0242
0001143160;6.0214;2.7294;1.4198;-0.0675;0.1560;-0.0488
0001143169;5.9903;2.8204;1.5012;-0.0297;0.1398;-0.0592
0001143181;5.7820;3.1196;1.5706;-0.0007;0.1164;-0.0482
0001143190;5.7533;3.3591;1.6448;0.0124;0.0858;-0.0312
0001143259;6.4141;2.9664;1.4198;-0.1267;-0.0059;-0.0454
0001143268;6.3375;2.8802;1.4174;-0.0757;-0.0045;-0.0889
0001143280;6.3446;2.9066;1.3216;-0.0241;-0.0204;-0.1316
0001143289;5.9879;3.0550;1.2163;-0.0171;-0.0317;-0.1279
0001143298;5.6312;2.9425;1.0463;-0.0116;-0.0616;-0.1219
0001143311;5.5809;3.2417;0.8595;-0.0061;-0.1151;-0.1092
0001143320;5.5809;3.2346;1.0247;-0.0040;-0.1376;-0.1124
0001143332;5.7293;3.6272;1.0534;-0.0096;-0.1792;-0.1577
0001143341;5.6240;3.6679;1.2594;-0.0337;-0.2050;-0.1921
0001143354;5.8993;4.0462;1.5778;-0.0969;-0.2373;-0.2188
0001143363;6.1914;4.2880;1.7286;-0.1514;-0.2603;-0.2278
0001143375;6.5338;4.3622;1.6448;-0.2421;-0.2798;-0.2008
0001143384;6.8043;4.3407;1.5514;-0.3020;-0.2880;-0.1891
0001143393;7.0701;4.1635;1.3623;-0.3495;-0.2799;-0.1605
0001143406;7.3430;3.7637;1.3144;-0.3720;-0.2381;-0.1535
0001143415;7.6854;3.6464;1.3384;-0.3585;-0.1787;-0.1632
0001143427;7.7548;3.3447;1.8771;-0.3296;-0.0913;-0.1577
0001143436;7.8817;3.3902;2.3511;-0.2871;-0.0309;-0.1438
0001143449;7.6926;3.4548;2.3224;-0.2517;0.0602;-0.0974
0001143458;7.7069;3.6392;2.3487;-0.2695;0.1083;-0.0585
0001143470;7.2568;3.6966;2.2338;-0.3256;0.1299;-0.0349
0001143479;6.8426;3.6679;2.2936;-0.3736;0.1440;-0.0274
0001143488;6.5434;3.5913;2.2122;-0.4143;0.1414;-0.0229
0001143557;5.8083;3.4860;2.3463;-0.2054;-0.0723;0.0761
0001143566;6.3351;3.7278;1.9656;-0.2282;-0.1146;0.0845
0001143578;6.3734;3.7493;1.7430;-0.2292;-0.1753;0.0429
0001143587;6.1172;3.6990;1.7526;-0.2112;-0.2112;-0.0117
0001143600;5.7724;3.6224;1.8531;-0.1923;-0.2711;-0.0858
0001143609;5.4420;3.5027;2.0925;-0.1756;-0.3200;-0.1271
0001143618;5.1044;3.3878;2.5666;-0.1679;-0.3613;-0.1537
0001143630;4.8746;3.2920;2.9999;-0.1484;-0.4149;-0.1691
0001143639;4.9871;3.2322;3.2106;-0.1287;-0.4614;-0.1593
0001143652;5.3965;3.0311;3.1220;-0.0915;-0.4984;-0.1140
0001143661;5.7461;2.8012;2.8419;-0.0706;-0.5325;-0.0927
0001143673;6.2896;2.5929;2.4517;-0.0566;-0.5393;-0.0863
0001143682;6.7038;2.6456;2.4732;-0.0245;-0.5343;-0.0858
0001143695;7.3981;2.7773;2.4445;0.0261;-0.5163;-0.1166
0001143704;7.1874;2.4900;2.5139;0.0418;-0.4880;-0.1292
0001143713;7.0749;2.4445;2.5738;0.0481;-0.4634;-0.1400
0001143725;6.6008;2.4349;2.7102;0.0241;-0.4331;-0.1571
0001143734;6.5050;2.5426;2.7749;-0.0025;-0.4030;-0.1548
0001143747;6.2417;2.4828;3.0287;0.0003;-0.3728;-0.1596
0001143756;6.1339;2.3679;3.1987;0.0064;-0.3476;-0.1547
0001143768;6.2249;2.6695;3.2465;0.0264;-0.3280;-0.1320
0001143777;6.2273;2.6528;3.1603;0.0400;-0.3230;-0.1247
0001143846;6.0549;2.0231;2.8371;0.1428;-0.1855;-0.2268
0001143855;6.0214;2.0853;2.7892;0.1775;-0.1628;-0.2214
0001143864;5.9687;2.1835;2.7031;0.2114;-0.1468;-0.2085
0001143876;5.8826;2.1524;2.7054;0.2357;-0.1320;-0.1743
0001143885;6.2489;2.5498;2.8299;0.2443;-0.1311;-0.1611
0001143898;6.3303;2.8826;2.6767;0.2332;-0.1082;-0.1334
0001143907;6.4212;3.0382;2.7461;0.2042;-0.0795;-0.1206
0001143919;6.1339;3.1843;2.8347;0.1855;-0.0446;-0.1131
0001143928;5.9999;3.0861;2.7749;0.1571;-0.0159;-0.1186
0001143937;5.8921;2.9760;2.6647;0.1287;0.0125;-0.1192
0001143950;5.9807;2.9664;2.5043;0.0797;0.0377;-0.1266
0001143959;5.9783;2.7270;2.4612;0.0557;0.0394;-0.1283
0001143971;6.0478;2.5283;2.2817;0.0518;0.0442;-0.1319
0001143980;5.7796;2.2889;2.2146;0.0714;0.0336;-0.1424
0001143993;5.5881;2.1284;2.1691;0.1094;0.0200;-0.1474
0001144002;5.4324;2.0327;2.2122;0.1444;0.0005;-0.1463
0001144011;5.4253;2.1811;2.0542;0.1661;-0.0064;-0.1419
0001144022;5.5258;2.3511;2.0973;0.2101;-0.0305;-0.1483
0001144031;5.5282;2.2936;2.1189;0.2318;-0.0341;-0.1430
0001144045;5.8921;2.7725;2.0901;0.2463;-0.0608;-0.1414
0001144054;5.7581;2.6743;2.1165;0.2346;-0.0735;-0.1472
0001144123;6.3566;2.1524;1.8340;-0.0115;0.0226;-0.1951
0001144132;6.0813;1.7334;1.8771;0.0159;0.0432;-0.2033
0001144144;5.6383;1.5395;1.7765;0.0604;0.0622;-0.1962
0001144153;5.5641;1.5778;1.4317;0.0771;0.0835;-0.1699
0001144162;5.4420;1.3838;1.3862;0.0897;0.0923;-0.1410
0001144175;5.5306;1.2833;1.3216;0.0878;0.0930;-0.0853
0001144184;5.7413;1.2929;1.2258;0.1037;0.0869;-0.0594
0001144196;5.9855;1.4365;1.1516;0.1474;0.0644;-0.0414
0001144205;6.1890;1.5993;1.3503;0.1905;0.0454;-0.0526
0001144218;6.1052;1.8866;1.6376;0.2309;0.0314;-0.0953
0001144227;5.6599;1.8747;1.5514;0.2290;0.0381;-0.1443
0001144236;5.3415;1.9680;1.5706;0.2022;0.0542;-0.1684
0001144248;5.3654;2.2362;1.7526;0.1360;0.0625;-0.1780
0001144257;5.3032;2.1859;1.6999;0.0661;0.0614;-0.1447
0001144270;5.5761;2.5474;1.5179;-0.0417;0.0633;-0.0785
0001144279;5.5737;2.4852;1.5802;-0.1079;0.0580;-0.0288
0001144291;5.8323;2.6743;1.6472;-0.1649;0.0498;0.0344
0001144300;5.9520;2.6264;1.6472;-0.1849;0.0558;0.0718
0001144309;6.0478;2.5642;1.6903;-0.1895;0.0550;0.0997
0001144322;5.7126;2.2817;1.8076;-0.1668;0.0585;0.1115
0001144331;5.8586;2.4636;1.7789;-0.1407;0.0682;0.1054
0001144343;5.7174;2.7318;1.8244;-0.0938;0.0790;0.0873
0001144352;5.6431;2.7414;1.9010;-0.0644;0.0699;0.0632
0001144419;5.5713;3.2226;1.8124;-0.0882;0.0364;0.1431
0001144428;5.7652;3.2154;1.7573;-0.0782;0.0426;0.1416
0001144437;5.7652;3.0526;1.8651;-0.0791;0.0636;0.1383
0001144449;6.0789;3.1484;1.8076;-0.0891;0.0895;0.1203
0001144458;5.8227;3.0670;1.4653;-0.1027;0.1123;0.1123
0001144471;5.9161;3.2417;1.5131;-0.1207;0.1336;0.1154
0001144480;5.7126;3.2537;1.5634;-0.1320;0.1419;0.1219
0001144492;5.5952;3.1987;1.7478;-0.1310;0.1355;0.1314
0001144501;5.6934;3.2417;1.8723;-0.1287;0.1386;0.1363
0001144510;5.8227;3.2010;1.8555;-0.1346;0.1617;0.1435
0001144523;5.9448;2.9497;1.8340;-0.1532;0.1907;0.1372
0001144532;5.8993;2.8946;1.7813;-0.1613;0.2262;0.1494
0001144544;6.1387;3.1029;1.7549;-0.1648;0.2626;0.1803
0001144553;6.3877;3.4261;1.7693;-0.1543;0.2778;0.2174
0001144566;6.2393;3.1508;2.0087;-0.1292;0.2734;0.2831
0001144575;6.3159;3.1747;2.2218;-0.1005;0.2697;0.3058
0001144584;6.2225;3.1795;2.2505;-0.0979;0.2713;0.3256
0001144596;6.3997;3.0885;2.1715;-0.1246;0.2850;0.2874
0001144605;6.2082;2.7725;1.9824;-0.1604;0.3062;0.2439
0001144618;6.1028;2.6671;1.7717;-0.1904;0.3432;0.1807
0001144627;6.1004;2.8778;1.4078;-0.2062;0.3652;0.1635
0001144639;5.6982;2.8276;1.2498;-0.2033;0.3661;0.1764
0001144648;5.5809;2.8683;1.4676;-0.1865;0.3469;0.2274
0001144657;5.5761;3.0191;1.7214;-0.1608;0.3146;0.2799
0001144726;5.0542;3.0406;1.8004;-0.2395;0.0596;0.1135
0001144735;5.1954;3.1771;1.7454;-0.2080;0.0410;0.1200
0001144747;5.5402;3.1053;1.9441;-0.1183;-0.0204;0.1460
0001144756;5.9041;3.1675;2.1739;-0.0513;-0.0805;0.1471
0001144769;6.3446;3.3758;2.2889;-0.0389;-0.1431;0.1226
0001144778;6.2608;3.4524;2.2314;-0.0801;-0.1708;0.0757
0001144790;5.7197;3.0909;2.0039;-0.1905;-0.1609;0.0252
0001144799;5.8035;3.1101;1.6831;-0.2783;-0.1431;0.0077
0001144808;5.7868;2.7869;1.5850;-0.3303;-0.1275;0.0123
0001144821;6.0717;2.6264;1.8268;-0.3492;-0.0878;0.0819
0001144830;6.5841;2.6624;2.0494;-0.3128;-0.0605;0.1347
0001144842;7.3310;2.8252;2.4612;-0.2617;-0.0097;0.1777
0001144851;7.5872;2.8922;2.6552;-0.2341;0.0199;0.1799
0001144864;7.3167;3.0861;3.0861;-0.2162;0.0874;0.1483
0001144873;6.8809;3.2537;3.1867;-0.2066;0.1326;0.1187
0001144882;6.2608;3.1268;2.8587;-0.2217;0.1844;0.0861
0001144894;5.7461;3.3351;2.3032;-0.2526;0.2313;0.0701
0001144903;5.7006;3.4165;1.9345;-0.2562;0.2395;0.0866
0001144916;5.6312;3.3088;1.8914;-0.2356;0.2190;0.1379
0001144925;5.9352;3.3758;2.3152;-0.1821;0.1891;0.1809
0001144937;6.0956;3.2250;2.7892;-0.1184;0.1388;0.2070
0001144946;6.2058;3.0861;3.0526;-0.0917;0.1075;0.1904
0001144955;6.1196;2.8635;3.3447;-0.1015;0.0947;0.1463
0001145024;5.5881;2.7270;2.8515;-0.2654;0.0250;-0.2054
0001145033;6.1651;2.8108;3.0765;-0.1924;0.0285;-0.1789
0001145045;6.6559;2.5714;2.9904;-0.0797;0.0504;-0.1327
0001145054;7.1611;2.6288;2.9521;-0.0021;0.0857;-0.0835
0001145067;7.7668;2.5738;3.0047;0.1107;0.1320;-0.0516
0001145076;7.7285;2.4780;2.9736;0.1633;0.1651;-0.0226
0001145085;7.6974;2.5235;2.8204;0.2016;0.1962;-0.0080
0001145097;7.2065;2.4732;2.7605;0.2599;0.2470;0.0001
0001145106;6.9647;2.7342;2.5953;0.3106;0.2642;-0.0053
0001145119;6.5817;2.8754;2.7509;0.3381;0.2793;-0.0049
0001145128;6.3662;3.0957;2.8611;0.3421;0.2631;-0.0043
0001145140;5.8012;3.0311;2.9257;0.3038;0.2336;0.0165
0001145149;5.5785;3.2944;3.1436;0.2643;0.1921;0.0306
0001145158;5.6360;3.3591;3.2705;0.2153;0.1383;0.0292
0001145171;5.6503;3.2154;3.1173;0.1260;0.0620;0.0241
0001145180;5.7748;3.2106;3.1915;0.0609;0.0181;0.0123
0001145192;6.3063;3.0430;3.0933;0.0035;-0.0266;-0.0096
0001145201;6.6200;2.7270;3.0071;-0.0308;-0.0425;-0.0195
0001145214;6.8594;2.3176;2.9497;-0.0280;-0.0565;-0.0220
0001145223;7.0940;2.2314;2.8252;0.0035;-0.0569;-0.0209
0001145232;7.0030;2.1500;2.8108;0.0278;-0.0512;-0.0228
0001145244;6.6870;2.0255;2.9137;0.0713;-0.0505;-0.0290
0001145253;6.4715;2.1021;2.9808;0.0967;-0.0632;-0.0417
0001145322;6.4715;2.6671;2.7701;0.1308;-0.1692;-0.0504
0001145331;6.6631;2.5546;2.8563;0.1054;-0.1592;-0.0406
0001145343;6.7732;2.5307;2.8539;0.0817;-0.1450;-0.0306
0001145352;6.7301;2.5379;2.7773;0.0663;-0.1390;-0.0230
0001145365;6.6702;2.2649;2.7869;0.0505;-0.1296;0.0044
0001145374;6.7780;2.1835;2.8539;0.0633;-0.1268;0.0092
0001145383;6.8235;1.9824;2.6911;0.0807;-0.1090;0.0137
0001145395;6.6894;1.8890;2.5546;0.1247;-0.0878;0.0123
0001145404;6.6511;1.8794;2.5977;0.1648;-0.0801;0.0064
0001145417;6.3279;1.7693;2.4110;0.1997;-0.0679;0.0245
0001145426;6.3782;1.8531;2.4373;0.2132;-0.0622;0.0496
0001145438;6.5481;1.9632;2.3511;0.2269;-0.0581;0.0829
0001145447;6.4380;1.8723;2.3080;0.2266;-0.0633;0.0994
0001145456;6.5888;1.8196;2.2027;0.2310;-0.0695;0.1159
0001145469;6.5960;1.8316;2.0375;0.2330;-0.0691;0.1252
0001145478;6.6056;1.8004;1.8555;0.2489;-0.0851;0.1230
0001145490;6.5841;1.6113;1.9896;0.2573;-0.0869;0.1315
0001145499;6.5481;1.3815;1.9273;0.2822;-0.0999;0.1336
0001145513;6.4739;1.3743;1.8124;0.3187;-0.1029;0.1400
0001145522;6.4883;1.3144;1.7717;0.3364;-0.0893;0.1370
0001145531;6.5912;1.5514;1.4820;0.3287;-0.0663;0.1239
0001145544;6.6319;1.9010;1.0989;0.2883;-0.0480;0.0910
0001145553;6.8738;2.2745;1.1277;0.2411;-0.0466;0.0763
0001145622;6.8163;2.3391;1.4772;0.3230;-0.0292;0.0322
0001145631;6.6631;2.2218;1.4820;0.2986;-0.0085;0.0336
0001145644;6.8714;2.7485;1.2139;0.2554;0.0156;0.0222
0001145653;7.0246;2.8060;1.2378;0.2172;0.0261;-0.0019
0001145662;7.2257;2.9688;1.1229;0.1625;0.0510;-0.0183
0001145674;6.9959;2.7964;1.0558;0.0887;0.0710;-0.0430
0001145683;6.9528;2.8635;1.1732;0.0242;0.0777;-0.0477
0001145696;6.7397;2.7031;1.2785;-0.0273;0.0644;-0.0381
0001145705;6.5912;2.5953;1.2977;-0.0497;0.0465;-0.0173
0001145717;6.2944;2.4517;1.4317;-0.0741;0.0216;0.0085
0001145726;6.1196;2.3846;1.5993;-0.0771;0.0000;0.0061
0001145735;5.7820;2.3822;1.6209;-0.0829;-0.0133;0.0095
0001145748;5.7509;2.5833;1.5538;-0.0857;-0.0621;-0.0144
0001145757;5.6455;2.5402;1.7957;-0.0893;-0.0954;-0.0353
0001145769;5.6096;2.6049;1.6328;-0.1126;-0.1320;-0.0426
0001145778;5.6623;2.4445;1.6520;-0.1442;-0.1581;-0.0493
0001145791;6.1172;2.6145;1.5251;-0.1683;-0.2069;-0.0669
0001145800;6.3997;2.5618;1.5610;-0.1691;-0.2437;-0.0961
0001145812;6.4236;2.6169;1.8483;-0.1511;-0.2646;-0.1294
0001145821;6.5434;2.8419;1.9249;-0.1236;-0.2693;-0.1619
0001145830;6.6463;2.7054;1.9513;-0.1187;-0.2597;-0.1901
0001145843;6.6463;2.8395;1.6209;-0.1292;-0.2531;-0.2353
0001145852;6.7732;3.1771;1.5036;-0.1511;-0.2582;-0.2603
0001145921;6.4165;3.3303;1.8507;-0.0454;-0.2510;-0.2791
0001145930;6.3877;3.4644;2.0063;-0.0282;-0.2430;-0.2402
0001145943;6.8546;3.4979;2.1404;-0.0454;-0.2342;-0.1428
0001145952;6.9839;3.2441;1.7957;-0.0934;-0.2208;-0.0778
0001145964;7.4196;3.0215;1.4605;-0.1468;-0.1940;-0.0264
0001145973;7.6471;2.7845;1.4653;-0.1572;-0.1660;-0.0121
0001145982;7.8051;2.6240;1.6089;-0.1284;-0.1258;-0.0077
0001145995;7.8027;2.5929;1.8340;-0.0469;-0.0625;0.0131
0001146004;7.6662;2.8491;1.9393;0.0081;-0.0181;0.0314
0001146016;7.5034;3.5410;2.2051;0.0893;0.0422;0.0388
0001146025;7.0964;4.0414;2.4086;0.1336;0.0754;0.0320
0001146038;6.6870;4.2856;2.5666;0.1228;0.1303;0.0314
0001146047;6.5769;4.4819;2.3607;0.0494;0.1536;0.0449
0001146056;6.6032;4.4628;2.1261;-0.0393;0.1667;0.0663
0001146068;6.5745;4.6160;1.8220;-0.1563;0.1940;0.0837
0001146077;6.4476;4.4939;1.8555;-0.1998;0.2226;0.0774
0001146090;6.2656;4.5945;1.9920;-0.2214;0.2699;0.0823
0001146099;6.3973;4.6256;1.9441;-0.2146;0.2926;0.0751
0001146111;6.1268;4.6855;2.0901;-0.1897;0.3151;0.0735
0001146120;6.0693;4.4460;2.2338;-0.1444;0.3184;0.0755
0001146129;5.9735;4.1324;2.4062;-0.0886;0.3151;0.0711
0001146142;5.9424;3.8307;1.9297;-0.0552;0.3103;0.0585
0001146151;5.6982;3.5745;1.4605;-0.0553;0.3067;0.0365
0001146220;4.4125;4.5083;2.7677;0.0534;-0.1219;0.0032
0001146229;4.9488;4.3886;2.8898;0.0184;-0.1821;0.0233
0001146242;5.7748;4.0677;2.6097;-0.0602;-0.2161;0.0248
0001146251;6.3015;3.7948;2.4636;-0.1070;-0.2250;-0.0075
0001146260;6.9887;3.7613;2.3774;-0.1520;-0.2100;-0.0316
0001146272;7.3239;3.2513;2.3655;-0.1752;-0.1651;-0.0617
0001146281;7.6471;3.1771;2.4684;-0.1761;-0.1212;-0.0798
0001146294;7.2975;2.9664;2.5474;-0.1688;-0.0465;-0.0685
0001146303;7.0030;2.6097;2.3990;-0.1523;-0.0096;-0.0686
0001146315;6.5290;2.4924;2.5139;-0.1240;0.0229;-0.0580
0001146324;6.2680;2.4086;2.6288;-0.0763;0.0220;-0.0588
0001146337;5.7628;2.1500;2.4277;-0.0124;0.0067;-0.0586
0001146346;5.4971;1.9848;2.5331;0.0350;-0.0225;-0.0799
0001146355;5.3415;1.9896;2.3870;0.0725;-0.0461;-0.1001
0001146367;5.2433;2.2889;2.4325;0.1200;-0.1096;-0.1108
0001146376;5.1020;2.2505;2.3870;0.1544;-0.1583;-0.1065
0001146389;5.2601;2.4684;2.2410;0.1801;-0.2236;-0.1078
0001146398;5.3917;2.6312;2.2146;0.2040;-0.2602;-0.1235
0001146410;5.7197;2.7916;2.0542;0.2022;-0.2902;-0.1406
0001146419;5.8873;2.8635;2.0494;0.1852;-0.3038;-0.1522
0001146432;6.0071;2.8802;1.9704;0.1709;-0.3086;-0.1680
0001146441;6.0382;2.9042;1.9824;0.1695;-0.3092;-0.1693
0001146450;6.0885;2.9712;2.1332;0.1573;-0.3012;-0.1661
0001146519;6.2848;3.0143;2.4948;0.0897;-0.1923;-0.1487
0001146528;6.4452;2.9329;2.4636;0.0537;-0.1753;-0.1555
0001146541;6.2848;2.6576;2.3080;0.0160;-0.1581;-0.1713
0001146550;6.1100;2.4565;2.2338;-0.0051;-0.1468;-0.1721
0001146562;6.0310;2.5187;2.1308;-0.0036;-0.1548;-0.1751
0001146571;5.8514;2.3056;2.1237;-0.0079;-0.1560;-0.1612
0001146580;5.8826;2.3367;2.3032;0.0009;-0.1747;-0.1584
0001146593;5.8371;2.2673;2.3727;0.0148;-0.2069;-0.1483
0001146602;5.7772;2.3152;2.3391;0.0192;-0.2320;-0.1500
0001146614;5.6982;2.2529;2.2051;0.0072;-0.2333;-0.1557
0001146623;6.0262;2.2745;2.1308;-0.0037;-0.2280;-0.1623
0001146636;5.8730;1.9393;2.0423;-0.0236;-0.2269;-0.1748
0001146645;6.2369;1.9537;1.9800;-0.0218;-0.2273;-0.1948
0001146657;6.0693;1.8555;1.8627;-0.0083;-0.2122;-0.2158
0001146666;5.9879;1.7813;1.8771;0.0179;-0.2017;-0.2406
0001146675;6.1244;2.0686;1.6472;0.0316;-0.1704;-0.2419
0001146688;6.0286;2.1428;1.5299;0.0710;-0.1527;-0.2305
0001146697;6.0406;2.3559;1.5155;0.0910;-0.1520;-0.2101
0001146709;6.0334;2.4612;1.4293;0.0863;-0.1358;-0.1749
0001146718;5.9448;2.4038;1.4150;0.0867;-0.1323;-0.1645
0001146731;5.8993;2.2362;1.3934;0.0759;-0.1053;-0.1616
0001146740;5.7509;2.2242;1.2163;0.0785;-0.0983;-0.1628
0001146809;5.6743;1.9082;0.9984;0.1552;-0.1140;-0.0666
0001146818;5.5737;1.8818;0.9385;0.1476;-0.1110;-0.0588
0001146827;5.7676;1.8316;0.8978;0.1271;-0.1014;-0.0529
0001146840;5.7533;1.9369;0.8691;0.1140;-0.0897;-0.0452
0001146849;5.8083;2.0016;0.9720;0.1100;-0.0799;-0.0424
0001146861;6.0214;2.2482;1.0415;0.1065;-0.0650;-0.0465
0001146870;5.9400;2.2553;1.1923;0.1159;-0.0588;-0.0549
0001146883;5.8682;2.3942;1.2378;0.0986;-0.0444;-0.0649
0001146892;5.8610;2.5355;1.1396;0.0605;-0.0320;-0.0735
0001146901;5.6862;2.5786;1.1109;0.0125;-0.0337;-0.0885
0001146913;5.4516;2.8347;1.1444;-0.0450;-0.0428;-0.0825
0001146922;5.2912;2.6264;1.2210;-0.0685;-0.0723;-0.0843
0001146935;5.1044;2.7031;1.3791;-0.0687;-0.0971;-0.0705
0001146944;5.1547;2.6408;1.6352;-0.0454;-0.1330;-0.0701
0001146956;5.0111;2.5139;1.8387;-0.0165;-0.1791;-0.0735
0001146965;5.0111;2.2745;1.7621;-0.0248;-0.1925;-0.0767
0001146978;5.1858;2.4229;1.4365;-0.0636;-0.1978;-0.1102
0001146987;5.1906;2.4612;1.1995;-0.1027;-0.2029;-0.1267
0001146996;5.1882;2.4038;1.0032;-0.1416;-0.1977;-0.1175
0001147008;5.3726;2.5211;1.2354;-0.1404;-0.2058;-0.0650
0001147017;5.6360;2.7509;1.4964;-0.1070;-0.2164;-0.0132
0001147031;6.0573;2.7821;1.8555;-0.0384;-0.2350;0.0485
0001147040;6.2704;3.0382;1.9058;-0.0119;-0.2491;0.0540
0001147109;5.5737;3.5147;1.3575;-0.0618;-0.0585;0.0750
0001147118;5.6575;3.6416;1.4820;-0.0573;-0.0525;0.1130
0001147130;5.9233;3.9983;1.6903;-0.0659;-0.0570;0.1467
0001147139;5.9352;3.9935;1.8052;-0.0827;-0.0674;0.1544
0001147148;6.0023;3.9887;1.9034;-0.1267;-0.0481;0.1555
0001147161;5.9879;3.7924;1.6831;-0.2044;-0.0095;0.1315
0001147170;5.8634;3.5051;1.6400;-0.2477;0.0143;0.1038
0001147182;5.7126;3.1987;1.4605;-0.2966;0.0590;0.1026
0001147191;5.5545;2.8754;1.2139;-0.3132;0.0717;0.1031
0001147204;5.4875;2.8587;1.2306;-0.3008;0.0990;0.1351
0001147213;5.5282;2.9185;1.2641;-0.2615;0.1013;0.1667
0001147222;5.2864;2.8204;1.4198;-0.2102;0.0846;0.1923
0001147234;5.7413;3.1149;1.7310;-0.1507;0.0650;0.2300
0001147243;5.6120;3.0909;1.8316;-0.1270;0.0432;0.2414
0001147256;5.6072;3.2561;1.8675;-0.1279;0.0165;0.2052
0001147265;5.4181;3.0502;1.9058;-0.1633;0.0141;0.1696
0001147277;5.3295;2.8347;1.4892;-0.2160;0.0191;0.0986
0001147286;4.8937;2.5019;1.1947;-0.2415;0.0512;0.0614
0001147295;4.8554;2.2051;0.9266;-0.2353;0.0847;0.0460
0001147308;5.1930;2.1093;1.2761;-0.1464;0.1092;0.1031
0001147317;5.4109;2.2027;1.5897;-0.0225;0.1175;0.1808
0001147329;6.0310;2.3200;1.6927;0.1529;0.1095;0.2475
0001147338;6.1651;2.7342;1.5993;0.2241;0.1138;0.2629
0001147407;5.0350;3.7541;1.6688;-0.0801;0.1256;0.1419
0001147416;5.6599;3.7661;1.9680;-0.0449;0.1262;0.1845
0001147425;6.4572;3.8379;2.2721;-0.0133;0.1376;0.2098
0001147437;6.7684;3.7230;2.7054;0.0171;0.1492;0.1857
0001147446;6.7828;3.7900;2.9233;0.0175;0.1809;0.1443
0001147459;6.2872;3.6152;2.7725;-0.0159;0.2288;0.0685
0001147468;5.6647;3.4453;2.2865;-0.0374;0.2561;0.0409
0001147480;5.3893;3.3998;1.7286;-0.0397;0.2801;0.0847
0001147489;5.5186;3.4500;1.7454;-0.0250;0.2762;0.1492
0001147498;6.0573;3.4141;1.8028;0.0179;0.2425;0.2036
0001147511;6.5290;3.4213;2.1668;0.0897;0.2134;0.2266
0001147520;6.6846;3.4884;2.6145;0.1376;0.1921;0.2058
0001147532;6.3446;3.4716;3.2417;0.1553;0.1712;0.1559
0001147541;6.2106;3.4668;3.4524;0.1322;0.1596;0.1058
0001147554;5.7437;3.1149;2.9688;0.0552;0.1344;0.0360
0001147563;5.4899;2.9090;2.4349;-0.0056;0.1199;-0.0047
0001147572;5.3391;2.6528;2.0710;-0.0687;0.1180;-0.0176
0001147584;5.4827;2.3559;1.8675;-0.0865;0.1025;-0.0005
0001147593;5.9185;2.2817;1.7909;-0.0501;0.0794;0.0183
0001147606;6.4260;2.2146;1.6927;0.0096;0.0524;0.0321
0001147615;6.9959;2.4732;1.8842;0.0556;0.0500;0.0256
0001147627;7.2353;2.6336;2.3320;0.1188;0.0509;-0.0222
0001147636;7.0557;2.6959;2.5187;0.1528;0.0444;-0.0594
0001147645;6.8115;3.0191;2.7414;0.1688;0.0378;-0.0942
0001147714;6.8738;3.1723;1.9417;-0.0159;-0.0939;-0.0558
0001147723;7.0725;2.9113;1.7861;-0.0374;-0.0698;-0.0384
0001147735;7.4077;2.7438;2.0279;-0.0409;-0.0454;-0.0191
0001147744;7.3741;2.4708;2.3080;-0.0244;-0.0310;0.0113
0001147757;7.2209;2.3535;2.6695;0.0317;-0.0136;0.0428
0001147766;7.3119;2.4373;2.6959;0.0596;0.0031;0.0590
0001147775;7.2257;2.5091;2.6719;0.0662;0.0258;0.0795
0001147787;6.9959;2.6815;2.4397;0.0390;0.0376;0.1138
0001147796;6.9767;2.8563;2.2553;0.0179;0.0313;0.1414
0001147809;6.8618;2.9497;2.2075;-0.0184;0.0253;0.1900
0001147818;6.6511;2.8419;2.2290;-0.0494;0.0193;0.2289
0001147830;6.4907;2.6743;2.3679;-0.0666;-0.0172;0.2561
0001147839;6.4380;2.6983;2.4110;-0.0831;-0.0324;0.2586
0001147848;6.2680;2.3032;2.2003;-0.0973;-0.0584;0.2378
0001147861;6.3327;2.1835;2.0016;-0.1537;-0.0886;0.2101
0001147870;6.3255;1.9992;2.0039;-0.1800;-0.0987;0.1961
0001147882;6.3901;1.7382;2.0494;-0.1865;-0.1148;0.1478
0001147891;6.2513;1.4174;2.2170;-0.1716;-0.1216;0.1212
0001147904;6.1866;1.3695;2.2889;-0.1577;-0.1126;0.1063
0001147913;6.1459;1.2354;2.0327;-0.1545;-0.1291;0.1081
0001147925;6.2273;1.1396;1.4820;-0.1649;-0.1560;0.1227
0001147934;6.4380;1.1253;1.3575;-0.1488;-0.1793;0.1018
0001147943;6.8235;1.3503;1.3240;-0.1367;-0.1783;0.0670
0001148012;7.1491;1.6185;1.5395;0.0085;-0.0464;0.0312
0001148021;6.9264;1.2354;1.0534;0.0055;-0.0164;0.1115
0001148033;6.5745;0.6512;0.3687;0.0301;0.0145;0.2368
0001148042;6.2345;0.3807;0.1867;0.0899;0.0113;0.3128
0001148055;5.9400;0.4214;0.2945;0.2205;0.0008;0.3605
0001148064;5.8873;0.5794;0.5866;0.3479;-0.0132;0.3416
0001148073;5.9400;1.0175;0.9266;0.4635;-0.0232;0.2935
0001148085;5.6527;1.4964;1.2857;0.5816;-0.0625;0.1951
0001148094;5.8610;2.3296;1.5179;0.6198;-0.1006;0.1092
0001148107;6.2584;3.3471;1.5275;0.5600;-0.1303;0.0091
0001148116;6.4787;3.9241;1.3336;0.4642;-0.1494;-0.0510
0001148128;6.9576;4.1324;0.8787;0.2846;-0.1619;-0.0809
0001148137;7.1275;4.1994;0.5387;0.1519;-0.1624;-0.0801
0001148146;7.3646;3.9169;0.6057;0.0398;-0.1649;-0.0854
0001148159;7.5657;3.6248;0.7973;-0.0474;-0.1410;-0.1050
0001148168;7.5585;3.3854;1.0846;-0.0694;-0.0842;-0.1078
0001148180;7.2496;2.9161;1.2019;-0.0556;-0.0277;-0.0994
0001148189;7.2233;2.6887;1.1564;-0.0368;0.0080;-0.0863
0001148202;6.7397;2.3391;0.8859;-0.0148;0.0433;-0.0480
0001148211;6.3159;2.2649;0.8715;0.0003;0.0727;-0.0113
0001148223;6.1723;2.1739;1.1732;0.0553;0.1045;0.0119
0001148232;6.1675;2.2027;1.2570;0.0994;0.1271;0.0322
0001148241;6.2537;2.2362;1.4437;0.1597;0.1414;0.0376
0001148310;6.8259;3.6607;0.8356;0.0886;0.1849;-0.0957
0001148319;6.8378;3.7373;0.8236;0.0886;0.1986;-0.1062
0001148331;6.8187;3.7996;0.8667;0.0995;0.2194;-0.1158
0001148340;6.6367;3.7948;1.0798;0.0949;0.2394;-0.1027
0001148349;6.6487;3.7421;1.1372;0.1041;0.2449;-0.0930
0001148362;6.7995;3.7230;1.0918;0.1132;0.2499;-0.0674
0001148371;6.7780;3.9265;1.0942;0.1046;0.2439;-0.0486
0001148383;6.8690;4.2329;0.9385;0.0769;0.2431;-0.0189
0001148392;6.9073;4.0438;1.0008;0.0353;0.2490;-0.0047
0001148405;7.0461;4.0390;0.8116;-0.0432;0.2550;0.0172
0001148414;7.0006;3.6559;0.6991;-0.0902;0.2489;0.0083
0001148426;7.1108;3.3471;0.6800;-0.1332;0.2577;-0.0103
0001148435;6.8738;2.9856;0.6201;-0.1231;0.2623;-0.0278
0001148444;6.5434;2.9904;0.7805;-0.0785;0.2665;-0.0421
0001148457;6.6822;3.1556;0.9601;-0.0067;0.2906;-0.0490
0001148466;6.7277;3.4237;0.8404;0.0306;0.2940;-0.0698
0001148478;6.6463;3.6727;0.6728;0.0179;0.3040;-0.0663
0001148487;6.7253;3.8906;0.7159;-0.0149;0.2911;-0.0536
0001148501;6.4739;4.0486;0.6009;-0.0745;0.2529;-0.0333
0001148510;6.4907;3.9528;0.6823;-0.0961;0.2001;-0.0201
0001148519;6.5888;3.8834;0.6895;-0.1156;0.1522;-0.0073
0001148588;7.1419;3.0239;0.3448;-0.0878;0.0416;-0.0719
0001148597;6.8307;3.1699;0.4860;-0.0901;0.0481;-0.0966
0001148609;6.6679;3.6152;0.8523;-0.0805;0.0316;-0.1187
0001148618;6.2920;3.8666;1.2450;-0.0857;0.0136;-0.1037
0001148631;5.7437;3.9792;1.6616;-0.1142;-0.0498;-0.0537
0001148640;5.7700;4.2090;1.7047;-0.1531;-0.0855;-0.0125
0001148652;5.9328;3.9385;1.4054;-0.1869;-0.1456;0.0112
0001148661;6.1148;3.7757;1.2426;-0.2072;-0.1824;0.0149
0001148670;6.3518;3.8211;1.0846;-0.2128;-0.2013;-0.0248
0001148683;6.5553;3.6799;0.8356;-0.2076;-0.2004;-0.1011
0001148692;6.4428;3.6512;1.0463;-0.2046;-0.1797;-0.1459
0001148704;6.6319;3.4405;1.3575;-0.1972;-0.1696;-0.1688
0001148713;6.5481;3.4357;1.5514;-0.1889;-0.1600;-0.1515
0001148726;6.3638;3.6081;1.7047;-0.1695;-0.1751;-0.0777
0001148735;6.4548;3.6799;1.7190;-0.1535;-0.1927;-0.0234
0001148744;6.3782;3.8834;1.5371;-0.1275;-0.2230;0.0080
0001148756;5.9256;3.9792;1.4533;-0.0477;-0.2827;0.0111
0001148765;5.7868;4.0318;1.6257;0.0177;-0.3151;-0.0107
0001148778;5.3271;4.0821;1.5921;0.1108;-0.3368;-0.0861
0001148787;5.1547;4.1228;1.7382;0.1523;-0.3441;-0.1391
0001148799;5.5115;4.1539;1.8747;0.1535;-0.3519;-0.1789
0001148808;5.8586;4.0749;2.1452;0.1025;-0.3555;-0.1653
0001148877;7.0677;1.9034;2.0542;-0.2134;-0.2337;-0.0632
0001148886;6.4548;1.8507;2.1500;-0.1661;-0.2395;-0.0695
0001148895;5.7700;1.9249;2.3463;-0.0977;-0.2586;-0.0841
0001148907;5.0949;2.2769;2.4253;-0.0316;-0.2895;-0.0853
0001148916;4.8985;2.6456;2.4780;0.0029;-0.3194;-0.0859
0001148929;4.3479;2.7605;2.5139;0.0207;-0.3772;-0.1015
0001148938;4.4819;2.7318;2.4325;0.0115;-0.4109;-0.1114
0001148950;5.0733;2.8778;2.2984;0.0025;-0.4600;-0.1343
0001148959;5.2553;2.8778;2.2242;-0.0172;-0.4742;-0.1411
0001148972;5.9711;2.6911;2.1356;-0.0209;-0.4783;-0.1661
0001148981;6.1387;2.3750;2.0973;0.0015;-0.4716;-0.1808
0001148990;6.3494;2.3080;1.9848;0.0374;-0.4682;-0.2085
0001149002;6.7421;2.2194;1.8292;0.0918;-0.4455;-0.2411
0001149011;6.9121;2.3631;1.7358;0.1290;-0.4173;-0.2663
0001149024;7.1419;2.6576;1.8675;0.1958;-0.3854;-0.2931
0001149033;6.7828;2.7007;1.8699;0.2218;-0.3595;-0.2912
0001149045;6.5697;3.0454;1.8579;0.2261;-0.3464;-0.2719
0001149054;6.5122;3.3758;1.9728;0.1892;-0.3331;-0.2411
0001149063;6.2632;3.5769;1.9106;0.1399;-0.3198;-0.2136
0001149076;5.8730;3.4453;1.8818;0.0513;-0.2918;-0.1752
0001149085;6.1148;3.5841;1.9441;-0.0172;-0.2835;-0.1506
0001149097;5.7150;3.1651;1.9130;-0.0753;-0.2727;-0.1194
0001149106;5.9831;3.0861;1.8531;-0.0955;-0.2745;-0.1148
0001149175;6.7924;2.4110;1.4988;-0.0890;-0.1821;-0.1440
0001149184;6.9240;2.2290;1.3431;-0.1147;-0.1588;-0.1350
0001149196;6.9623;2.0255;1.4054;-0.1187;-0.1436;-0.1322
0001149205;6.7157;1.8699;1.4317;-0.1115;-0.1296;-0.1334
0001149214;6.7014;1.8914;1.5251;-0.0954;-0.1050;-0.1224
0001149227;6.4069;2.1021;1.6520;-0.0484;-0.0827;-0.0890
0001149236;6.2321;2.1931;1.6544;-0.0256;-0.0613;-0.0637
0001149248;6.2297;2.4517;1.6233;-0.0016;-0.0465;-0.0625
0001149257;6.2632;2.6360;1.6352;0.0047;-0.0309;-0.0557
0001149270;6.1986;2.5881;1.4916;0.0053;-0.0107;-0.0564
0001149279;5.8299;2.2841;1.3336;0.0067;-0.0089;-0.0553
0001149291;5.9520;2.1476;1.4222;0.0155;-0.0108;-0.0614
0001149300;6.1555;2.0303;1.1971;0.0317;-0.0153;-0.0652
0001149309;6.0525;1.7765;1.1253;0.0366;-0.0081;-0.0521
0001149322;6.2441;1.7741;1.3288;0.0540;-0.0101;-0.0490
0001149331;6.2800;1.6759;1.2450;0.0798;-0.0123;-0.0585
0001149343;6.2130;1.6999;1.3288;0.1151;-0.0119;-0.0648
0001149352;6.0334;1.6712;1.4054;0.1247;-0.0096;-0.0695
0001149365;5.8586;1.7502;1.2330;0.1318;-0.0184;-0.0913
0001149374;5.9233;1.9465;1.2402;0.1134;-0.0096;-0.1081
0001149386;5.9424;2.1213;1.2833;0.0625;0.0052;-0.1194
0001149395;5.9137;2.2146;1.2929;0.0131;0.0044;-0.1334
0001149404;5.7485;2.3296;1.3072;-0.0508;0.0081;-0.1287
0001149471;5.6120;2.4780;1.2186;-0.1893;-0.1519;0.0033
0001149480;6.0166;2.7126;1.2019;-0.1792;-0.1518;-0.0185
0001149492;5.9472;2.5881;1.1995;-0.1756;-0.1444;-0.0406
0001149501;5.8251;2.5666;1.2402;-0.1771;-0.1502;-0.0652
0001149514;5.9185;2.7845;1.3096;-0.1723;-0.1454;-0.0617
0001149523;5.6838;2.6624;1.5155;-0.1544;-0.1443;-0.0402
0001149532;5.7892;2.8778;1.5395;-0.1267;-0.1498;-0.0069
0001149544;5.6599;2.8874;1.7262;-0.0945;-0.1599;0.0541
0001149553;5.8969;2.9784;1.8292;-0.0898;-0.1514;0.0841
0001149566;5.8897;2.6504;1.8842;-0.0887;-0.1444;0.0819
0001149575;6.1723;2.5977;1.7334;-0.1188;-0.1191;0.0581
0001149587;6.2369;2.6743;1.3767;-0.1583;-0.0778;0.0041
0001149596;6.0023;2.4756;1.0678;-0.1847;-0.0540;-0.0294
0001149609;5.8802;2.4181;1.1851;-0.2076;-0.0236;-0.0264
0001149618;5.7509;2.6504;1.5730;-0.1912;-0.0353;-0.0113
0001149627;5.7126;2.7318;1.7023;-0.1504;-0.0568;0.0294
0001149639;5.3965;2.7821;1.7741;-0.1013;-0.0863;0.0843
0001149648;5.2984;2.9521;1.7023;-0.1019;-0.0855;0.1267
0001149661;5.3965;3.1125;1.5778;-0.1130;-0.0758;0.1672
0001149670;5.5665;3.2130;1.5323;-0.1155;-0.0582;0.1843
0001149682;6.0238;3.4213;1.4916;-0.1037;-0.0329;0.1881
0001149691;6.1411;3.3303;1.5083;-0.0906;-0.0011;0.1907
0001149700;6.4141;3.2801;1.4988;-0.0823;0.0185;0.1825
0001149769;5.4875;2.9736;1.2043;-0.1328;0.1688;0.2085
0001149778;5.6000;3.2202;1.1803;-0.1541;0.1693;0.2104
0001149790;5.4851;2.8922;1.3144;-0.1455;0.1592;0.1857
0001149799;5.4181;2.8156;1.4293;-0.1364;0.1442;0.1612
0001149812;5.5354;2.8347;1.3791;-0.1374;0.1231;0.1126
0001149821;5.6312;2.8802;1.4509;-0.1533;0.1247;0.0935
0001149835;5.3582;2.8347;1.5371;-0.1669;0.1303;0.0901
0001149844;5.6000;2.8036;1.3455;-0.1588;0.1266;0.1190
0001149853;5.6096;2.6863;1.3815;-0.1378;0.1146;0.1415
0001149866;6.1483;2.9784;1.5036;-0.0881;0.1029;0.1492
0001149875;6.0286;2.8228;1.8052;-0.0604;0.1026;0.1358
0001149887;6.1076;3.2034;2.1021;-0.0410;0.1211;0.0775
0001149896;6.1268;3.3495;2.3248;-0.0348;0.1400;0.0228
0001149909;5.9161;3.4692;2.2098;-0.0530;0.1673;-0.0398
0001149918;5.6144;3.4572;1.9872;-0.0691;0.1883;-0.0590
0001149927;5.6192;3.6536;1.7957;-0.0642;0.1982;-0.0456
0001149939;5.7700;3.7182;1.9728;-0.0199;0.1973;0.0236
0001149948;5.9927;3.7637;2.3966;0.0390;0.1881;0.0862
0001149961;6.5194;3.9983;2.9353;0.1033;0.1752;0.1503
0001149970;6.5984;3.7397;3.1340;0.0961;0.1660;0.1380
0001150039;5.9975;3.1747;2.0973;-0.0091;0.0388;0.0105
0001150048;6.0430;3.1843;2.3056;0.0297;-0.0085;0.0221
0001150057;6.0885;3.0311;2.6360;0.0572;-0.0538;0.0240
0001150071;6.0789;2.7390;2.8563;0.0430;-0.0953;-0.0286
0001150080;5.8873;2.6336;2.7797;0.0127;-0.1050;-0.0870
0001150093;6.1004;2.7605;2.4684;-0.0284;-0.0789;-0.1656
0001150102;6.1962;2.7845;2.2745;-0.0268;-0.0645;-0.2065
0001150114;6.7684;3.0718;2.1931;0.0063;-0.0490;-0.2094
0001150123;6.7995;3.0813;2.1691;0.0663;-0.0368;-0.1769
0001150132;7.0461;3.3040;2.2338;0.1151;-0.0195;-0.1303
0001150145;7.5824;3.3567;2.2721;0.1548;-0.0060;-0.0710
0001150154;7.6375;3.3878;2.2841;0.1539;0.0053;-0.0452
0001150166;7.2736;3.3926;2.3631;0.1244;0.0200;-0.0211
0001150175;6.9863;3.3303;2.4062;0.0862;0.0157;-0.0201
0001150188;6.3590;3.0167;2.3535;0.0480;0.0061;-0.0201
0001150197;6.3183;3.0239;2.3104;0.0357;0.0008;-0.0260
0001150206;6.0094;2.6408;2.3224;0.0477;-0.0051;-0.0207
0001150218;6.2824;2.8204;2.2051;0.1102;-0.0168;-0.0237
0001150227;6.4356;2.8946;2.1093;0.1498;-0.0155;-0.0180
0001150240;6.6631;3.1220;1.9776;0.1996;-0.0244;-0.0230
0001150249;6.6224;3.3279;1.9872;0.2018;-0.0278;-0.0274
0001150261;6.5362;3.4165;2.1500;0.1675;-0.0181;-0.0211
0001150270;6.6152;3.6464;2.3032;0.1472;-0.0175;-0.0200
0001150339;6.6631;2.4301;2.1811;-0.0729;-0.1215;0.0192
0001150348;6.8881;2.3008;2.2027;-0.0437;-0.1171;0.0215
0001150357;6.9719;2.2889;2.2170;-0.0163;-0.1034;0.0188
0001150369;6.9815;2.1428;2.1117;0.0172;-0.0786;0.0208
0001150378;6.8881;2.2960;2.0614;0.0293;-0.0552;0.0232
0001150391;6.8402;2.4541;2.1356;0.0517;-0.0296;0.0416
0001150400;6.6176;2.3032;2.0901;0.0592;-0.0125;0.0517
0001150412;6.4524;2.3391;2.1117;0.0766;-0.0029;0.0581
0001150421;6.5410;2.2649;1.9656;0.0869;0.0105;0.0526
0001150430;6.5050;2.3822;2.0016;0.1092;0.0205;0.0452
0001150443;6.5697;2.4134;2.0327;0.1198;0.0497;0.0368
0001150452;6.7253;2.5905;1.8531;0.1239;0.0601;0.0354
0001150464;6.7995;2.6121;1.8052;0.1002;0.0842;0.0573
0001150473;6.7421;2.4612;1.7214;0.0862;0.0930;0.0689
0001150486;6.7109;2.5450;1.5634;0.0421;0.1139;0.0961
0001150495;6.6942;2.4349;1.4964;0.0250;0.1268;0.1116
0001150504;6.4284;2.1787;1.5490;0.0248;0.1291;0.1172
0001150516;6.2632;1.9465;1.4629;0.0505;0.1400;0.1218
0001150525;6.0166;1.7286;1.3503;0.0985;0.1307;0.0938
0001150538;5.8347;1.4581;1.5227;0.1729;0.1308;0.0562
0001150547;5.9879;1.6185;1.4676;0.2156;0.1327;0.0404
0001150556;5.9975;1.6209;1.4892;0.2423;0.1208;0.0225
0001150568;5.9879;1.6855;1.3551;0.2615;0.0959;0.0205
0001150577;5.8730;1.6328;1.2450;0.2611;0.0702;0.0201
0001150646;6.5434;1.6065;0.8116;0.1537;0.0811;0.0330
0001150655;6.6559;1.8052;0.7949;0.1478;0.1092;0.0051
0001150667;6.5625;1.9465;0.8882;0.1266;0.1404;-0.0208
0001150676;6.6511;2.3224;0.7901;0.0891;0.1470;-0.0297
0001150685;6.5003;2.5043;0.6416;0.0409;0.1440;-0.0167
0001150698;6.1746;2.5762;0.6608;-0.0334;0.1548;0.0153
0001150707;6.2896;2.4277;0.8667;-0.0513;0.1591;0.0147
0001150719;6.4907;2.4277;1.0463;-0.0612;0.1721;0.0064
0001150728;6.4452;2.2003;1.0391;-0.0380;0.1729;-0.0149
0001150741;6.4596;2.3104;1.1349;0.0025;0.1763;-0.0504
0001150750;6.0932;2.2386;1.2737;0.0205;0.1969;-0.0629
0001150759;6.2800;2.2889;1.2570;0.0285;0.2153;-0.0663
0001150771;6.3327;2.1572;0.8882;0.0179;0.2024;-0.0349
0001150780;6.6104;2.3296;0.9337;0.0071;0.1857;-0.0112
0001150793;6.5936;1.9968;0.9697;0.0032;0.1691;0.0310
0001150802;6.5601;2.2170;0.7542;0.0049;0.1483;0.0541
0001150814;6.3590;2.5067;0.5794;0.0334;0.1063;0.0613
0001150823;6.4260;2.9544;0.7590;0.0773;0.0882;0.0320
0001150832;6.2082;3.0981;1.0439;0.1204;0.0877;-0.0068
0001150845;6.1579;3.6775;1.4964;0.1783;0.0837;-0.0761
0001150854;5.9376;3.9002;1.7957;0.1917;0.0889;-0.1042
0001150866;6.1579;4.0630;1.5083;0.1360;0.0873;-0.0987
0001150875;6.3111;4.2258;0.9266;0.0518;0.0677;-0.0697
0001150944;6.3231;4.1061;0.9098;-0.0075;0.0894;-0.0757
0001150953;6.1555;4.2114;0.8140;-0.0349;0.0954;-0.0750
0001150962;6.2872;4.4005;0.6919;-0.0779;0.0893;-0.0653
0001150974;6.3207;4.4580;0.4956;-0.1475;0.0754;-0.0637
0001150983;6.4332;4.2042;0.5315;-0.1939;0.0806;-0.0649
0001150996;6.4883;3.9911;0.7446;-0.2368;0.0646;-0.0845
0001151005;6.4380;3.7804;0.7614;-0.2505;0.0540;-0.0825
0001151017;6.1842;3.2896;0.8691;-0.2527;0.0430;-0.0679
0001151026;6.3877;3.3591;0.7446;-0.2441;0.0321;-0.0509
0001151039;6.5721;3.0382;0.8188;-0.2423;0.0393;-0.0163
0001151048;6.7373;3.1484;0.8356;-0.2280;0.0425;0.0053
0001151057;6.7253;2.9592;0.7781;-0.2125;0.0557;0.0228
0001151069;6.9719;2.9113;0.8667;-0.2049;0.0770;0.0380
0001151078;7.1994;2.8587;0.9840;-0.2170;0.1041;0.0342
0001151091;7.0964;2.8802;1.1612;-0.2081;0.1194;0.0107
0001151100;6.9935;3.0167;1.1516;-0.1884;0.1262;-0.0167
0001151112;6.7469;3.2178;1.3719;-0.1669;0.1410;-0.0232
0001151121;6.4907;3.0646;1.3072;-0.1494;0.1454;-0.0128
0001151130;6.6750;3.2130;1.3743;-0.1495;0.1362;0.0072
0001151143;6.2417;3.2370;1.5874;-0.1282;0.0890;0.0193
0001151152;6.4428;3.5027;1.6065;-0.1178;0.0617;0.0269
0001151164;6.0717;3.7589;1.9082;-0.0757;0.0064;0.0286
0001151173;5.8012;3.9169;1.8962;-0.0406;-0.0385;0.0288
0001151241;6.3590;4.3383;2.0542;0.0990;-0.1927;0.0292
0001151250;6.7612;4.0390;1.9225;0.0719;-0.1833;0.0280
0001151259;7.2496;3.7948;1.7717;0.0497;-0.1651;0.0029
0001151271;7.4220;3.3830;1.6544;0.0071;-0.1299;-0.0389
0001151280;7.4819;3.1651;1.8890;-0.0084;-0.0971;-0.0669
0001151293;7.4627;2.7461;1.9369;-0.0211;-0.0481;-0.0717
0001151302;7.0126;2.2841;2.1356;-0.0273;-0.0254;-0.0500
0001151314;6.7469;2.1883;2.3272;-0.0246;-0.0117;-0.0129
0001151323;6.4667;2.1668;2.2817;-0.0336;0.0065;0.0324
0001151336;5.9711;2.4565;2.3343;-0.0408;-0.0040;0.0819
0001151345;5.8849;2.6600;2.4038;-0.0585;-0.0185;0.1055
0001151354;5.3654;2.7821;2.4828;-0.0810;-0.0297;0.1211
0001151366;5.0254;3.0191;2.7102;-0.0929;-0.0580;0.1234
0001151375;4.9033;3.0311;2.7390;-0.0866;-0.0902;0.1168
0001151388;5.1858;3.2250;2.8730;-0.0747;-0.1150;0.0914
0001151397;5.3415;3.2705;2.8180;-0.0472;-0.1226;0.0578
0001151409;5.4109;2.9784;2.5786;-0.0238;-0.1380;-0.0089
0001151418;5.5474;2.8132;2.5067;-0.0007;-0.1492;-0.0614
0001151427;5.6503;2.7222;2.3080;0.0308;-0.1672;-0.1096
0001151440;5.6575;2.5115;2.1380;0.0585;-0.1881;-0.1679
0001151449;5.7102;2.4253;1.9704;0.0693;-0.2036;-0.1978
0001151461;6.0525;2.6001;1.9130;0.0822;-0.2132;-0.2328
0001151470;5.9185;2.5235;1.9369;0.0915;-0.2193;-0.2381
0001151539;6.0118;2.8659;1.9201;-0.0123;-0.1617;-0.0787
0001151548;5.9592;2.8850;1.8747;-0.0248;-0.1524;-0.0646
0001151559;5.8155;2.8706;1.8818;-0.0209;-0.1567;-0.0605
0001151568;5.8131;2.7797;1.9201;-0.0218;-0.1475;-0.0576
0001151577;6.0885;2.7485;1.9082;-0.0087;-0.1467;-0.0616
0001151591;6.2297;2.8563;1.7573;0.0004;-0.1351;-0.0667
0001151600;6.1124;2.6456;1.6903;0.0068;-0.1315;-0.0711
0001151613;6.4572;2.5474;1.6448;0.0241;-0.1376;-0.0775
0001151622;6.5242;2.5235;1.6041;0.0209;-0.1346;-0.0794
0001151634;6.5457;2.3679;1.6640;0.0136;-0.1368;-0.0963
0001151643;6.6056;2.4277;1.7047;0.0099;-0.1338;-0.1053
0001151656;6.5027;2.5977;1.7047;0.0021;-0.1258;-0.1196
0001151665;6.4931;2.6719;1.8531;0.0021;-0.1222;-0.1391
0001151674;6.3087;2.7509;1.9441;-0.0040;-0.1116;-0.1372
0001151686;6.1507;2.6025;1.7238;-0.0151;-0.1026;-0.1336
0001151695;6.2441;2.5786;1.6472;-0.0369;-0.0949;-0.1310
0001151708;5.9304;2.3104;1.4246;-0.0446;-0.0951;-0.1334
0001151717;5.8227;1.9154;1.3623;-0.0393;-0.0871;-0.1114
0001151729;5.8012;1.9130;1.1372;-0.0001;-0.0939;-0.0875
0001151738;5.8490;1.7310;1.3240;0.0412;-0.1054;-0.0793
0001151747;5.7892;1.5203;1.1923;0.0891;-0.1172;-0.0703
0001151816;5.8993;2.4756;0.9936;0.0137;-0.1471;-0.0853
0001151825;6.0454;2.6360;1.0822;-0.0093;-0.1629;-0.0488
0001151837;5.7700;2.4588;1.1277;-0.0528;-0.1769;0.0024
0001151846;5.7389;2.3798;1.2091;-0.0874;-0.1955;0.0085
0001151859;6.0094;2.3343;1.2785;-0.1448;-0.1943;-0.0081
0001151868;6.0047;2.1141;1.2665;-0.1872;-0.1803;-0.0281
0001151880;5.9711;1.8603;1.3527;-0.2282;-0.1683;-0.0634
0001151889;5.9568;1.7669;1.2857;-0.2571;-0.1504;-0.0790
0001151898;5.9807;1.6281;0.9649;-0.2914;-0.1438;-0.0938
0001151911;5.9711;1.7358;0.9649;-0.3200;-0.1363;-0.0866
0001151920;5.9975;1.8579;0.9098;-0.3195;-0.1407;-0.0726
0001151932;6.0837;2.0470;1.0439;-0.2831;-0.1636;-0.0470
0001151941;6.0478;2.2027;1.1037;-0.2378;-0.1705;-0.0079
0001151954;6.1292;2.4373;1.3408;-0.1549;-0.1903;0.0292
0001151963;6.0549;2.4014;1.5682;-0.1103;-0.1978;0.0324
0001151975;6.4260;2.3679;1.4892;-0.1073;-0.1791;-0.0009
0001151984;6.6128;2.4301;1.3647;-0.1415;-0.1440;-0.0332
0001151993;6.3949;2.3391;1.2402;-0.1661;-0.1183;-0.0805
0001152006;6.3422;2.5187;0.9002;-0.1851;-0.0713;-0.0945
0001152015;6.0334;2.3487;0.7997;-0.1649;-0.0510;-0.0866
0001152027;6.0885;2.5498;1.0271;-0.0901;-0.0414;-0.0282
0001152036;6.0501;2.8299;1.2857;0.0040;-0.0655;0.0262
0001152105;4.9871;3.4046;1.0702;-0.2394;-0.0886;-0.0593
0001152114;4.8985;3.0813;1.0463;-0.2669;-0.0939;-0.0324
0001152126;5.2505;2.8084;1.2163;-0.2117;-0.1134;0.0100
0001152135;5.7413;2.8467;1.4485;-0.1270;-0.1307;0.0433
0001152144;5.9759;3.0167;1.5850;-0.0316;-0.1527;0.0498
0001152157;6.0334;3.1340;1.4269;0.0167;-0.1478;0.0458
0001152166;6.1746;3.3375;1.2546;-0.0031;-0.1191;0.0201
0001152178;5.7724;3.4189;1.0918;-0.0324;-0.0737;-0.0209
0001152187;5.6527;3.4596;0.9170;-0.0211;-0.0337;-0.0097
0001152200;5.7389;3.6536;0.7638;0.0369;-0.0013;0.0481
0001152209;5.8586;3.6512;0.7087;0.0774;0.0025;0.0911
0001152218;6.3303;3.8523;0.9385;0.1098;-0.0087;0.1025
0001152230;6.2345;3.7924;1.3264;0.0853;0.0041;0.0785
0001152239;6.0956;3.8283;1.5778;0.0113;0.0250;0.0464
0001152252;5.5641;3.6176;1.9321;-0.0738;0.0694;-0.0152
0001152261;5.2648;3.3423;1.8818;-0.1059;0.1244;-0.0496
0001152273;5.3271;3.3734;1.7909;-0.1250;0.1969;-0.0645
0001152282;5.2960;3.4836;1.5802;-0.1276;0.2336;-0.0378
0001152295;5.5282;3.4620;1.6496;-0.1042;0.2373;0.0145
0001152304;5.5234;3.2561;2.0183;-0.0674;0.2344;0.0382
0001152313;5.6144;3.1220;2.5546;-0.0417;0.2341;0.0432
0001152325;5.7437;3.0861;2.8180;-0.0144;0.2209;-0.0105
0001152334;5.7293;3.0023;2.9353;-0.0124;0.2052;-0.0777
0001152403;5.1068;2.2984;2.8299;-0.0484;-0.1576;-0.2960
0001152412;5.5354;2.6983;2.8036;-0.0119;-0.1659;-0.3143
0001152424;6.0310;3.2441;2.8180;0.0063;-0.1511;-0.2843
0001152433;6.6535;3.6631;2.9233;0.0165;-0.1368;-0.2273
0001152442;7.1730;4.1803;2.8036;0.0398;-0.1219;-0.1611
0001152455;7.7237;4.3048;2.4134;0.0691;-0.1030;-0.0625
0001152464;8.1259;4.4077;2.1021;0.0713;-0.0866;0.0061
0001152476;7.9679;4.2162;1.7693;0.0770;-0.0646;0.0496
0001152485;7.7500;4.0462;1.7238;0.0918;-0.0317;0.0679
0001152498;7.2113;3.8858;1.8507;0.1478;-0.0024;0.0973
0001152507;6.5098;3.7182;2.1668;0.2045;0.0121;0.1155
0001152516;6.1363;3.7924;2.3391;0.2535;0.0124;0.1250
0001152528;5.8275;3.7996;2.4828;0.2649;0.0029;0.1403
0001152537;5.5234;3.7158;2.5522;0.2322;-0.0203;0.1295
0001152550;5.5282;3.9768;2.6647;0.1456;-0.0670;0.1111
0001152559;5.2457;3.6224;2.5211;0.0529;-0.1104;0.1163
0001152571;5.3846;3.6248;2.4157;-0.0610;-0.1735;0.1057
0001152580;5.6934;3.4931;2.2410;-0.1187;-0.2085;0.1035
0001152589;5.9855;3.1747;2.2218;-0.1424;-0.2397;0.0778
0001152602;6.4500;2.8778;2.2290;-0.1338;-0.2438;0.0613
0001152611;6.7516;2.6456;2.2362;-0.1099;-0.2238;0.0621
0001152623;6.9336;2.5714;2.2529;-0.0586;-0.1892;0.0608
0001152632;7.2712;2.4253;2.2673;-0.0181;-0.1627;0.0620
0001152701;6.3375;1.5203;1.3743;0.1006;0.0951;0.1192
0001152710;6.0741;1.5347;1.3551;0.1403;0.1007;0.0877
0001152719;6.0789;1.6257;1.5514;0.1868;0.0957;0.0701
0001152731;5.8897;1.4054;1.5155;0.2148;0.0985;0.0855
0001152740;5.9472;1.3216;1.3838;0.2174;0.0838;0.1188
0001152753;6.0358;1.2019;1.1827;0.1997;0.0521;0.1679
0001152762;6.2632;1.1684;1.1468;0.1659;0.0440;0.2024
0001152774;6.4260;1.1468;1.1181;0.1187;0.0568;0.2201
0001152783;6.7397;1.2546;1.2210;0.1156;0.0782;0.2062
0001152792;7.3263;1.9034;1.0511;0.1392;0.1073;0.1661
0001152805;7.6207;2.3367;1.1612;0.2181;0.1535;0.0465
0001152814;7.4148;2.9209;1.1803;0.2429;0.1911;-0.0314
0001152826;6.7062;3.4572;1.0295;0.2204;0.2262;-0.1030
0001152835;6.1603;3.8642;0.8811;0.1300;0.2394;-0.0930
0001152848;5.7485;3.7996;0.7805;-0.0430;0.2141;-0.0187
0001152857;5.3774;3.3471;0.9433;-0.1547;0.1865;0.0510
0001152866;5.5378;2.6145;0.9026;-0.2329;0.1428;0.1074
0001152878;5.7197;2.1356;0.9242;-0.3174;0.0961;0.1647
0001152887;6.0478;2.0997;0.9673;-0.3409;0.0794;0.1777
0001152900;6.7157;2.1069;1.2306;-0.3198;0.1146;0.1378
0001152909;7.3023;2.2960;1.1660;-0.2682;0.1471;0.0707
0001152921;7.4292;2.3966;1.0391;-0.2113;0.1831;-0.0045
0001152930;7.1275;2.2601;1.0367;-0.1847;0.1931;-0.0265
0001152939;6.5194;2.1356;1.1851;-0.1772;0.1868;0.0027
0001153008;6.5505;2.3511;1.0247;-0.1348;0.1911;0.0710
0001153017;6.8474;2.4804;0.9720;-0.1215;0.2176;0.0674
0001153029;6.9216;2.7485;0.8308;-0.0837;0.2365;0.0554
0001153038;6.9073;2.9353;0.7183;-0.0637;0.2497;0.0585
0001153052;7.0964;3.0813;0.8571;-0.0338;0.2690;0.0593
0001153061;6.9432;3.1747;0.7925;-0.0191;0.2711;0.0606
0001153070;6.9384;3.2394;0.7805;-0.0353;0.2675;0.0678
0001153083;6.7660;3.5243;0.4597;-0.0542;0.2360;0.0593
0001153092;6.6870;3.5434;0.1915;-0.0608;0.2090;0.0336
0001153104;6.4476;3.8116;0.0910;-0.0609;0.1709;-0.0081
0001153113;6.2225;3.8140;0.2274;-0.0353;0.1508;-0.0274
0001153126;5.9640;3.6081;0.2658;0.0041;0.0979;-0.0326
0001153135;5.8347;3.6847;0.3496;0.0177;0.0665;-0.0145
0001153147;6.1675;3.9983;0.3112;0.0301;0.0172;-0.0004
0001153156;6.4189;4.1563;0.2969;0.0143;0.0051;0.0013
0001153165;6.8642;4.3934;0.3328;-0.0061;-0.0083;-0.0057
0001153178;7.1228;4.4412;0.1891;-0.0749;-0.0052;-0.0149
0001153187;7.1275;4.3048;-0.0287;-0.1238;-0.0119;-0.0326
0001153199;6.9935;4.0007;-0.1867;-0.1953;-0.0221;-0.0520
0001153208;6.8929;3.5698;-0.1700;-0.2258;-0.0509;-0.0827
0001153221;6.6080;3.2681;0.0024;-0.2274;-0.0990;-0.1067
0001153230;6.6415;3.0430;0.1245;-0.2169;-0.1252;-0.1031
0001153239;6.3853;2.9161;0.3304;-0.1920;-0.1733;-0.0990
0001153308;7.0174;3.7996;2.8156;0.1619;-0.6071;0.1366
0001153317;7.0605;3.5314;3.3495;0.2106;-0.5798;0.0909
0001153330;7.4531;3.6847;3.7350;0.2185;-0.4676;0.0108
0001153339;7.2377;3.7972;3.8690;0.1795;-0.3804;-0.0124
0001153351;6.8019;3.8882;4.2066;0.0946;-0.2669;0.0509
0001153360;6.9384;4.3263;4.7142;0.0838;-0.2088;0.1716
0001153373;7.0102;4.2138;5.0374;0.1001;-0.1680;0.4061
0001153382;7.6112;4.0701;4.6017;0.0831;-0.1747;0.4826
0001153391;8.2959;3.7781;4.0558;0.0056;-0.1677;0.4281
0001153403;8.2241;3.2394;3.4955;-0.1206;-0.1406;0.2028
0001153412;7.5657;2.8563;3.1603;-0.2030;-0.0915;0.0024
0001153425;6.0932;2.5307;3.3495;-0.2313;-0.0216;-0.2088
0001153434;5.2648;2.6384;3.4548;-0.1751;-0.0160;-0.2698
0001153446;3.8810;2.7054;3.6272;-0.0572;-0.0569;-0.2653
0001153455;3.5147;3.1053;3.6895;0.0480;-0.0978;-0.2192
0001153464;3.0287;3.4405;3.6607;0.1617;-0.1664;-0.1476
0001153477;3.5745;4.0127;3.3399;0.2627;-0.2730;-0.0428
0001153486;4.2545;4.1013;2.9784;0.2701;-0.3353;-0.0064
0001153498;5.3750;4.5921;2.8347;0.2236;-0.4049;-0.0157
0001153507;6.0693;4.5107;2.7461;0.1563;-0.4486;-0.0482
0001153520;6.8857;4.4987;2.9090;0.0506;-0.4763;-0.1246
0001153529;7.1922;4.4149;2.9736;-0.0257;-0.4590;-0.1988
0001153598;5.1691;2.4852;2.3655;-0.2673;-0.4293;-0.3945
0001153607;5.0877;2.3559;2.3703;-0.2848;-0.4803;-0.3826
0001153616;5.3199;2.1524;2.3966;-0.3050;-0.5123;-0.3584
0001153629;5.2194;1.5083;2.4349;-0.3090;-0.5688;-0.3319
0001153638;5.4492;1.4485;2.6312;-0.2721;-0.6009;-0.3118
0001153650;5.6551;1.4174;2.6552;-0.2026;-0.6359;-0.2830
0001153659;5.6910;1.3695;2.6959;-0.1536;-0.6679;-0.2763
0001153672;5.6383;1.6352;2.5642;-0.0959;-0.6993;-0.2613
0001153681;5.7652;2.0734;2.4445;-0.0685;-0.7059;-0.2529
0001153693;5.9735;2.2170;2.3128;-0.0485;-0.7143;-0.2626
0001153702;6.1914;2.5690;2.2242;-0.0322;-0.7416;-0.2880
0001153711;6.2632;2.5833;2.3104;-0.0192;-0.7413;-0.3127
0001153724;6.1746;2.5570;2.4612;-0.0004;-0.7453;-0.3373
0001153733;6.0693;2.5355;2.4445;0.0021;-0.7242;-0.3340
0001153745;6.1411;2.4636;2.4541;0.0001;-0.7087;-0.3162
0001153754;6.0693;2.4086;2.4373;-0.0155;-0.6916;-0.2819
0001153767;6.1723;2.3176;2.5618;-0.0072;-0.6696;-0.2534
0001153776;6.3231;2.4469;2.5331;0.0093;-0.6498;-0.2341
0001153788;6.5505;2.8036;2.5043;0.0120;-0.6037;-0.2248
0001153797;6.7947;2.8611;2.4756;0.0069;-0.5692;-0.2229
0001153806;6.9552;3.0598;2.4301;-0.0095;-0.5295;-0.2190
0001153819;7.3215;3.2848;2.3224;-0.0648;-0.4658;-0.2065
0001153828;7.2425;3.2010;2.2721;-0.1124;-0.4085;-0.1985
0001153897;5.9640;2.6911;2.2051;-0.2769;-0.1462;-0.0637
0001153906;5.9233;2.4972;2.3224;-0.2495;-0.1431;-0.0570
0001153919;6.2034;2.3104;2.3080;-0.2177;-0.1316;-0.0394
0001153928;6.3494;2.2577;2.1883;-0.2089;-0.1163;-0.0280
0001153940;6.4500;2.1979;2.1739;-0.1844;-0.0997;-0.0344
0001153949;6.8115;2.4157;2.1380;-0.1765;-0.0671;-0.0294
0001153958;6.8139;2.5211;2.0494;-0.1557;-0.0456;-0.0420
0001153971;6.6272;2.4708;1.9896;-0.1426;0.0019;-0.0468
0001153980;6.7732;2.7054;1.9321;-0.1479;0.0450;-0.0434
0001153992;6.7253;2.7533;1.9704;-0.1616;0.1003;-0.0361
0001154001;6.5290;2.8563;1.9154;-0.1836;0.1379;-0.0306
0001154014;6.3279;3.0574;1.8124;-0.2165;0.1853;-0.0068
0001154023;6.1818;3.0694;1.8316;-0.2312;0.2176;0.0089
0001154032;5.9616;2.8587;1.7789;-0.2641;0.2482;0.0344
0001154044;5.8514;2.7031;1.7789;-0.2882;0.2848;0.0661
0001154053;5.8203;2.4684;1.7861;-0.2878;0.3035;0.0826
0001154066;5.7006;2.0997;1.6855;-0.2858;0.3285;0.0961
0001154075;5.6575;2.1644;1.8507;-0.2735;0.3537;0.1180
0001154087;5.5952;2.0901;1.7789;-0.2312;0.3756;0.1335
0001154096;5.5881;2.2673;2.0207;-0.1896;0.3885;0.1528
0001154105;5.3917;2.2338;2.1237;-0.1347;0.3992;0.1688
0001154118;5.4923;2.7366;2.1500;-0.0886;0.4066;0.1851
0001154127;5.2577;2.7869;2.0303;-0.0887;0.4017;0.1958
0001154196;5.5091;3.4884;3.0454;-0.3084;0.2413;0.1668
0001154205;5.6264;3.3208;3.1843;-0.2781;0.2388;0.1057
0001154218;5.6000;3.1244;3.4548;-0.2505;0.2497;0.0099
0001154227;5.8849;3.2202;3.5314;-0.2458;0.2633;-0.0320
0001154236;5.6288;2.9329;3.3543;-0.2517;0.2571;-0.0577
0001154248;5.4348;2.5546;3.1603;-0.2603;0.2274;-0.0472
0001154257;5.2960;2.1715;3.1029;-0.2485;0.1955;-0.0165
0001154270;5.4444;1.8292;2.8299;-0.2145;0.1346;0.0234
0001154279;5.4731;1.7454;2.6839;-0.1865;0.0903;0.0474
0001154291;5.6431;1.6041;2.7414;-0.1523;0.0361;0.0810
0001154300;5.9280;1.6879;2.9042;-0.1390;0.0181;0.1140
0001154313;6.3973;1.8220;3.2082;-0.1278;0.0326;0.1374
0001154322;6.7684;1.9513;3.5147;-0.1099;0.0590;0.1339
0001154331;7.2568;2.3032;3.4979;-0.1119;0.1071;0.1395
0001154343;7.2832;2.4948;3.7565;-0.1206;0.1552;0.1463
0001154352;7.3741;2.6504;3.8307;-0.1266;0.1986;0.1717
0001154365;7.2760;2.7701;4.0007;-0.1573;0.2758;0.2214
0001154374;7.1467;2.6671;4.0103;-0.1970;0.3238;0.2659
0001154386;7.1754;2.6145;4.0510;-0.2523;0.3477;0.3082
0001154395;7.2137;2.4756;3.9696;-0.2928;0.3453;0.3337
0001154404;7.1563;2.3104;3.9409;-0.3440;0.3421;0.3649
0001154417;7.1467;1.9010;4.0175;-0.4025;0.3167;0.3870
0001154426;7.0964;1.5419;4.2713;-0.4113;0.3052;0.3737
0001154494;6.4883;1.8316;3.6344;-0.2415;0.4285;-0.0140
0001154503;6.5553;2.0231;3.6105;-0.2206;0.4497;-0.0012
0001154516;6.6008;2.1428;3.5769;-0.1680;0.5060;0.0516
0001154525;6.8785;2.1452;3.6631;-0.1271;0.5404;0.1092
0001154534;7.2449;2.2482;3.7182;-0.0681;0.5817;0.1709
0001154546;7.8985;2.2865;3.6655;0.0224;0.6590;0.2442
0001154555;8.3007;2.3727;3.3902;0.0702;0.7356;0.3006
0001154569;8.3606;2.5450;3.0885;0.1295;0.8549;0.3772
0001154578;8.1163;2.4612;3.1173;0.1725;0.9254;0.4277
0001154591;7.9440;2.8108;3.0909;0.2049;1.0353;0.5104
0001154600;7.7692;2.8443;3.0287;0.2081;1.1000;0.5572
0001154609;7.5226;2.7988;2.9784;0.1808;1.1606;0.5985
0001154621;7.4292;2.9664;2.9904;0.1215;1.2289;0.6354
0001154630;7.2089;2.7294;2.9497;0.0717;1.2662;0.6748
0001154643;7.4196;2.7749;2.8874;0.0381;1.3013;0.7151
0001154652;7.6160;2.6504;2.9377;0.0318;1.3402;0.7308
0001154661;7.7452;2.5091;2.7653;0.0470;1.3901;0.7322
0001154673;7.9631;2.3822;2.6336;0.0549;1.4614;0.7320
0001154682;7.9440;2.4157;2.6240;0.0608;1.5219;0.7309
0001154695;7.9583;2.3894;2.5450;0.0681;1.6114;0.7456
0001154704;8.0014;2.5235;2.5738;0.0819;1.6655;0.7554
0001154716;7.4436;2.3655;2.5115;0.0955;1.7333;0.7642
0001154725;7.1970;2.4062;2.5953;0.1100;1.7770;0.7686
0001154734;6.9480;2.4301;2.6193;0.1151;1.8143;0.7799
0001154803;7.2472;2.9760;2.7797;0.0185;1.8635;0.7489
0001154812;7.3933;2.7174;2.6887;-0.0060;1.8876;0.7386
0001154824;7.5681;2.7557;2.7916;-0.0192;1.9212;0.7373
0001154833;7.6303;2.4684;2.7031;-0.0051;1.9530;0.7460
0001154846;7.9033;2.5355;2.5307;0.0081;1.9997;0.7582
0001154855;8.0972;2.5618;2.4876;0.0077;2.0283;0.7770
0001154864;7.7333;2.2362;2.5139;0.0073;2.0570;0.7874
0001154876;7.7740;2.0518;2.4828;0.0212;2.0687;0.8104
0001154885;7.6423;2.0734;2.4253;0.0349;2.0665;0.8242
0001154898;7.5106;2.0399;2.4636;0.0433;2.0582;0.8407
0001154907;7.3765;1.9561;2.4325;0.0624;2.0640;0.8302
0001154919;7.4364;2.2960;2.3463;0.0922;2.0701;0.8047
0001154928;7.2401;2.2290;2.2936;0.1255;2.0739;0.7719
0001154937;7.1371;2.3080;2.3008;0.1352;2.0743;0.7630
0001154950;7.2401;2.6959;2.3272;0.1328;2.0849;0.7474
0001154959;7.4077;2.9353;2.4134;0.1150;2.0925;0.7374
0001154971;7.2089;2.8611;2.3439;0.0810;2.0913;0.6977
0001154980;7.0222;2.6767;2.3535;0.0445;2.0937;0.6643
0001154989;6.7277;2.5881;2.4253;0.0276;2.0887;0.6229
0001155002;6.6870;2.4972;2.6169;0.0172;2.0642;0.5806
0001155011;6.4284;2.5283;2.5762;0.0321;2.0319;0.5529
0001155023;6.0669;2.4852;2.8299;0.0473;1.9829;0.5121
0001155032;6.1866;2.7126;2.8276;0.0388;1.9325;0.4855
0001155101;6.2465;2.5546;3.6919;0.0329;1.6045;0.3627
0001155110;6.5146;2.7150;3.9409;0.0270;1.5588;0.3754
0001155119;6.5170;2.7222;4.0414;0.0330;1.5051;0.3957
0001155131;6.2968;2.9161;4.1492;0.0329;1.4516;0.4422
0001155140;6.2968;2.9568;4.0582;0.0135;1.4192;0.4908
0001155153;5.6455;2.6576;3.7158;-0.0464;1.3991;0.5213
0001155162;5.7581;2.4134;3.6081;-0.0807;1.3791;0.5224
0001155174;5.8969;2.1668;3.4644;-0.1308;1.3499;0.5113
0001155183;5.9137;1.9345;3.3016;-0.1495;1.3226;0.5005
0001155192;6.2465;1.6927;3.1580;-0.1504;1.3103;0.4867
0001155205;6.3805;1.5993;3.1268;-0.1314;1.3058;0.4724
0001155214;6.6343;1.6783;3.1268;-0.1168;1.3270;0.4739
0001155226;6.7301;1.8435;2.9616;-0.0725;1.3562;0.4720
0001155235;6.7253;1.9441;3.0526;-0.0378;1.3867;0.4855
0001155248;6.4620;2.3679;3.1125;0.0093;1.4220;0.5145
0001155257;6.4284;2.6001;3.2394;0.0200;1.4465;0.5466
0001155266;5.8969;2.5809;3.0143;0.0185;1.4549;0.5652
0001155278;5.7748;2.9856;3.0311;-0.0160;1.4561;0.5923
0001155287;5.6838;2.9473;3.0143;-0.0448;1.4369;0.6033
0001155300;5.2529;2.8323;2.9832;-0.0829;1.4011;0.6094
0001155309;5.0159;2.7892;2.9401;-0.1034;1.3753;0.6219
0001155321;4.9129;2.5283;3.1268;-0.1110;1.3382;0.6390
0001155330;4.9728;2.3607;3.1364;-0.1088;1.3071;0.6423
0001155339;5.2744;2.3798;3.0598;-0.1231;1.2845;0.6423
0001155408;5.7102;2.6671;1.9058;-0.0366;1.2325;0.5045
0001155417;5.6527;2.9640;1.9656;-0.0069;1.2235;0.5069
0001155429;5.5713;3.2058;1.8292;0.0232;1.2151;0.4931
0001155438;5.4708;3.3734;1.9824;0.0344;1.2159;0.4879
0001155451;5.1068;3.5027;2.0949;0.0278;1.2045;0.4711
0001155460;5.1475;3.6081;2.2170;0.0072;1.2051;0.4626
0001155469;5.0757;3.5434;1.9920;-0.0179;1.2036;0.4455
0001155481;5.1978;3.3495;1.9537;-0.0577;1.2045;0.4286
0001155490;5.3439;3.2561;1.8411;-0.0809;1.1920;0.4141
0001155503;5.1308;2.7078;1.8172;-0.0730;1.1728;0.3810
0001155512;5.2529;2.6600;1.7454;-0.0516;1.1586;0.3584
0001155524;4.9201;2.5163;1.7406;-0.0044;1.1387;0.3235
0001155533;4.7118;2.4181;1.6951;0.0236;1.1016;0.3140
0001155542;4.7094;2.4636;1.8699;0.0602;1.0603;0.3072
0001155555;4.5562;2.3104;1.8004;0.0982;0.9986;0.3062
0001155564;4.7788;2.6624;1.8842;0.1196;0.9537;0.3004
0001155574;4.7980;2.5953;1.7789;0.1190;0.9153;0.3151
0001155582;5.1044;2.7485;1.9034;0.1176;0.8784;0.3192
0001155590;5.0757;2.7318;1.8938;0.1202;0.8372;0.3262
0001155602;5.2385;2.8204;1.8938;0.1150;0.7901;0.3489
0001155610;5.0494;2.6504;2.0135;0.1183;0.7577;0.3653
0001155621;5.1356;2.7892;2.1380;0.1011;0.7093;0.3876
0001155629;5.3965;2.8754;2.1476;0.0871;0.6840;0.4021
0001155697;6.7947;2.2601;2.9497;-0.0266;0.6856;0.4666
0001155705;6.8546;2.3703;2.9616;-0.0233;0.7068;0.4774
0001155713;6.8307;2.5594;2.9473;-0.0241;0.7230;0.4822
0001155724;6.6655;2.6049;2.8563;-0.0151;0.7428;0.4859
0001155732;6.2800;2.4995;2.8395;-0.0116;0.7586;0.4804
0001155744;5.9807;2.6791;2.7749;0.0033;0.7513;0.4433
0001155752;5.8395;2.8228;2.7318;0.0195;0.7273;0.4093
