time;acc_x;acc_y;acc_z;gyro_x;gyro_y;gyro_z
0000370054;4.4843;2.9066;0.6273;0.1328;-0.1360;-0.0100
0000370062;4.4341;2.8922;0.5794;0.1362;-0.1320;-0.0145
0000370069;4.3407;2.9018;0.5626;0.1352;-0.1255;-0.0165
0000370077;4.4963;2.9305;0.5938;0.1304;-0.1195;-0.0215
0000370086;4.6376;3.1747;0.5866;0.1227;-0.1033;-0.0201
0000370094;4.4819;2.9305;0.6081;0.1263;-0.0885;-0.0228
0000370102;4.5993;3.0526;0.5818;0.1330;-0.0798;-0.0265
0000370114;4.5394;3.0167;0.5219;0.1331;-0.0658;-0.0221
0000370122;4.4700;2.8730;0.6488;0.1360;-0.0525;-0.0261
0000370133;4.3455;2.9880;0.5722;0.1284;-0.0414;-0.0226
0000370141;4.3239;3.0957;0.5507;0.1286;-0.0393;-0.0281
0000370153;4.0630;3.0263;0.6488;0.1156;-0.0336;-0.0284
0000370161;4.1180;3.0239;0.6153;0.1154;-0.0408;-0.0396
0000370172;3.9959;3.0454;0.6440;0.1013;-0.0410;-0.0410
0000370180;4.0677;3.1508;0.5674;0.0961;-0.0392;-0.0409
0000370188;3.9552;3.0909;0.5507;0.0934;-0.0421;-0.0466
0000370200;4.1683;3.1651;0.5028;0.0713;-0.0446;-0.0449
0000370208;4.3000;3.3639;0.5626;0.0609;-0.0430;-0.0434
0000370275;3.9433;3.0933;0.5219;-0.0064;-0.0721;-0.0429
0000370283;3.9840;3.1627;0.2155;-0.0301;-0.0685;-0.0492
0000370295;3.9409;3.2585;0.3831;-0.0533;-0.0835;-0.0424
0000370303;4.3622;3.3686;0.3304;-0.0663;-0.0934;-0.0372
0000370314;4.1013;3.1460;0.2873;-0.0807;-0.0950;-0.0421
0000370322;4.3670;3.2058;0.1820;-0.0971;-0.0862;-0.0422
0000370330;4.5777;3.1388;0.2969;-0.1099;-0.0854;-0.0304
0000370342;4.8842;2.9185;0.2634;-0.1180;-0.0707;-0.0071
0000370350;4.9919;2.7677;0.2131;-0.1187;-0.0529;0.0152
0000370361;4.9584;2.5283;0.1844;-0.1124;-0.0333;0.0437
0000370369;4.9440;2.2434;0.3687;-0.0989;-0.0302;0.0719
0000370381;4.5729;2.1165;0.3639;-0.0706;-0.0428;0.1049
0000370389;4.4772;2.0111;0.3903;-0.0576;-0.0604;0.1274
0000370397;4.2090;2.1476;0.4405;-0.0549;-0.0869;0.1446
0000370408;4.1444;2.2242;0.5746;-0.0414;-0.1525;0.1387
0000370416;4.2593;2.2673;0.5698;-0.0422;-0.1943;0.1228
0000370428;4.3981;2.2434;0.6297;-0.0218;-0.2753;0.0753
0000370436;4.3191;2.0590;0.6177;-0.0059;-0.3243;0.0300
0000370447;4.5346;1.6999;0.3711;0.0012;-0.3734;-0.0314
0000370455;4.5825;1.6041;0.0742;0.0180;-0.4137;-0.0722
0000370467;4.6783;1.8675;0.1484;0.0281;-0.4445;-0.1356
0000370475;4.4460;2.2505;0.1604;0.0289;-0.4386;-0.1695
0000370483;4.1539;2.2769;0.1149;0.0285;-0.4318;-0.2125
0000370551;5.3415;2.6456;-0.1867;0.3006;-0.2388;-0.1110
0000370559;5.1715;2.5211;-0.4022;0.3647;-0.2096;-0.1163
0000370571;4.9249;2.7940;-0.5531;0.4209;-0.1640;-0.1288
0000370579;4.5681;3.0718;-0.3807;0.4387;-0.1338;-0.1140
0000370590;4.4748;3.5123;-0.4501;0.4618;-0.1063;-0.0839
0000370598;4.6184;3.9696;-0.6153;0.4546;-0.0790;-0.0546
0000370610;4.9919;4.1851;-0.4956;0.4198;-0.0393;-0.0117
0000370618;5.1763;4.2856;-0.6512;0.3945;-0.0009;0.0051
0000370626;5.1547;4.0223;-0.5531;0.3702;0.0410;0.0167
0000370637;5.2122;3.6895;-0.6009;0.3444;0.0677;0.0211
0000370645;5.0805;3.2992;-0.5291;0.3256;0.0853;0.0285
0000370657;4.8818;3.0382;-0.5507;0.3226;0.1074;0.0317
0000370665;4.8339;2.9688;-0.3376;0.3227;0.1140;0.0350
0000370676;4.8698;3.1173;-0.0790;0.2998;0.1175;0.0493
0000370684;4.6855;3.2609;-0.1006;0.2739;0.1049;0.0601
0000370692;4.6424;3.1556;0.1077;0.2515;0.0754;0.0726
0000370704;4.4987;3.0311;0.0383;0.2290;0.0252;0.0991
0000370712;4.7573;2.8132;0.0048;0.2198;-0.0075;0.1163
0000370723;4.7381;2.3870;-0.1341;0.2422;-0.0416;0.1174
0000370731;4.8100;2.3487;-0.0551;0.2543;-0.0509;0.1243
0000370743;4.9728;2.3583;-0.0239;0.2890;-0.0658;0.1299
0000370751;5.0685;2.5019;-0.0742;0.2996;-0.0669;0.1248
0000370759;5.2313;2.6408;-0.0790;0.2918;-0.0703;0.1122
0000370827;5.1188;1.5514;-0.0622;0.0699;-0.1266;0.1037
0000370835;5.4085;1.4485;-0.0982;0.0549;-0.1242;0.1274
0000370847;5.6695;1.1420;-0.0359;0.0254;-0.1003;0.1703
0000370855;5.8442;1.0630;-0.2729;0.0103;-0.0695;0.2008
0000370866;6.1124;1.0702;-0.5626;0.0115;-0.0169;0.2165
0000370874;6.1723;1.3455;-0.6081;0.0192;0.0196;0.2209
0000370882;6.0358;1.4844;-0.7709;0.0113;0.0562;0.2228
0000370894;5.6527;1.5874;-0.9074;0.0184;0.0722;0.2362
0000370902;5.4492;1.9704;-0.9002;0.0289;0.0557;0.2378
0000370913;4.7166;2.3152;-0.8068;0.0342;0.0565;0.2138
0000370921;4.5657;2.6911;-0.9313;0.0310;0.0393;0.1915
0000370933;4.3646;3.1963;-0.6536;-0.0096;0.0063;0.1525
0000370941;4.3383;3.3662;-0.5315;-0.0465;-0.0097;0.1388
0000370952;4.5322;3.2777;-0.4501;-0.0779;-0.0537;0.1320
0000370960;4.6974;2.7964;-0.4693;-0.0771;-0.0838;0.1382
0000370968;4.6759;2.3176;-0.6249;-0.0577;-0.0983;0.1539
0000370980;5.2241;2.3535;-0.8164;0.0207;-0.0995;0.1487
0000370988;5.1188;2.2242;-0.7733;0.0726;-0.0949;0.1466
0000370999;4.9105;2.7054;-0.7183;0.1515;-0.0938;0.1207
0000371007;4.7046;3.2585;-0.6728;0.1831;-0.0961;0.0921
0000371019;4.4843;3.8164;-0.6249;0.1696;-0.1049;0.0452
0000371027;4.5490;4.2569;-0.6656;0.1495;-0.1266;0.0187
0000371035;4.5514;4.4796;-0.7685;0.1223;-0.1411;0.0115
0000371103;4.7645;3.5434;-0.4860;-0.0879;-0.2301;-0.0406
0000371111;4.5753;3.8259;-0.2466;-0.0965;-0.2437;-0.0743
0000371123;4.3910;3.9217;-0.1006;-0.1025;-0.2743;-0.1092
0000371131;4.3048;3.8331;0.0455;-0.1063;-0.2856;-0.1158
0000371143;4.3431;3.7613;-0.1125;-0.0918;-0.3156;-0.1203
0000371150;4.4221;3.5219;-0.5602;-0.0665;-0.3297;-0.1090
0000371162;4.7357;3.3806;-0.6776;-0.0221;-0.3395;-0.0983
0000371170;5.1020;3.5410;-0.6871;0.0112;-0.3412;-0.1054
0000371181;5.1547;3.5793;-0.7901;0.0605;-0.3285;-0.1336
0000371189;5.2505;3.6966;-0.9481;0.0870;-0.3084;-0.1374
0000371197;5.1763;3.8786;-0.9888;0.0886;-0.2879;-0.1482
0000371209;5.1236;4.2282;-0.8667;0.0590;-0.2605;-0.1446
0000371217;4.9321;4.2545;-0.8978;0.0365;-0.2463;-0.1276
0000371228;4.6783;4.3981;-0.7374;0.0024;-0.2578;-0.0989
0000371236;4.9488;4.6064;-0.3352;-0.0296;-0.2745;-0.0805
0000371248;4.7908;4.3718;-0.3950;-0.0522;-0.2995;-0.0727
0000371256;4.6735;4.2689;-0.3184;-0.0453;-0.3174;-0.0765
0000371267;4.5729;3.9193;-0.3496;-0.0163;-0.3303;-0.0833
0000371275;4.7501;4.0151;-0.4621;0.0028;-0.3312;-0.0894
0000371283;4.8483;4.0869;-0.4166;0.0333;-0.3429;-0.1086
0000371295;4.9512;4.1851;-0.6225;0.0560;-0.3207;-0.1262
0000371303;4.7405;4.0055;-0.6943;0.0622;-0.3007;-0.1482
0000371371;4.4700;3.8906;-0.8068;-0.1696;-0.0357;-0.0485
0000371379;4.3646;3.9217;-0.7733;-0.1848;-0.0405;-0.0448
0000371391;4.1635;3.8595;-0.5555;-0.1796;-0.0522;-0.0289
0000371399;3.8523;3.5434;-0.4190;-0.1660;-0.0594;-0.0197
0000371410;3.9911;3.2992;-0.3184;-0.1379;-0.0850;-0.0156
0000371418;4.2976;3.3255;-0.5459;-0.1166;-0.0937;-0.0033
0000371430;4.6495;3.0023;-0.8428;-0.0553;-0.1120;-0.0153
0000371438;4.9704;3.2130;-1.1396;-0.0253;-0.1108;-0.0344
0000371446;5.0039;3.5003;-1.0630;-0.0121;-0.1106;-0.0640
0000371458;5.1643;3.8331;-0.8978;-0.0524;-0.0873;-0.0887
0000371466;5.0470;3.9361;-0.7326;-0.0975;-0.0787;-0.0917
0000371477;5.1715;4.0270;-0.6009;-0.1660;-0.0666;-0.0666
0000371485;5.0805;3.7613;-0.5578;-0.1931;-0.0585;-0.0561
0000371497;5.2553;3.6775;-0.3615;-0.2149;-0.0377;-0.0312
0000371505;5.1332;3.3064;-0.3256;-0.2078;-0.0204;-0.0218
0000371516;5.1212;3.1508;-0.3136;-0.1881;0.0159;-0.0076
0000371524;5.0350;3.0670;-0.3615;-0.1555;0.0373;-0.0113
0000371532;4.8602;2.9544;-0.5052;-0.1355;0.0626;-0.0161
0000371544;4.9297;3.2872;-0.5004;-0.1268;0.0898;-0.0334
0000371552;4.8530;3.2920;-0.3448;-0.1467;0.0998;-0.0468
0000371564;4.9799;3.0694;-0.2969;-0.1816;0.1082;-0.0665
0000371572;4.6998;2.8228;-0.3663;-0.1976;0.1083;-0.0821
0000371640;4.2425;3.2394;-0.1676;-0.0742;-0.0585;0.0914
0000371648;4.4796;3.2154;-0.2155;-0.0501;-0.0937;0.0819
0000371659;4.5562;3.1603;-0.3519;-0.0139;-0.1278;0.0608
0000371667;4.5107;3.1460;-0.3974;0.0001;-0.1491;0.0482
0000371675;4.4819;3.2370;-0.5195;0.0176;-0.1679;0.0298
0000371687;4.4341;3.2825;-0.4788;0.0309;-0.1848;0.0103
0000371695;4.5394;3.3519;-0.5028;0.0313;-0.2021;0.0075
0000371706;4.2210;3.0358;-0.5171;0.0406;-0.2244;0.0059
0000371714;4.2713;3.0502;-0.5195;0.0456;-0.2421;0.0044
0000371726;4.2641;2.7869;-0.5962;0.0659;-0.2694;0.0047
0000371734;4.2401;2.6049;-0.6488;0.0911;-0.2910;0.0007
0000371745;4.2066;2.6121;-0.6225;0.1188;-0.3144;0.0012
0000371753;4.2329;2.5642;-0.5602;0.1332;-0.3328;-0.0017
0000371761;4.2497;2.4541;-0.5507;0.1424;-0.3369;0.0037
0000371773;4.7022;2.6336;-0.4717;0.1611;-0.3508;0.0027
0000371781;4.7238;2.6025;-0.3208;0.1644;-0.3533;-0.0051
0000371792;4.7214;2.5666;-0.2322;0.1716;-0.3424;-0.0104
0000371800;4.7333;2.5402;-0.1628;0.1700;-0.3349;-0.0180
0000371812;4.7477;2.5235;0.0982;0.1695;-0.3211;-0.0097
0000371820;5.1068;2.8371;0.2274;0.1688;-0.3042;0.0004
0000371832;5.1499;2.5283;0.2801;0.1812;-0.2826;0.0252
0000371840;5.2194;2.3918;0.3639;0.2002;-0.2643;0.0410
0000371848;5.2744;2.3822;0.3567;0.2256;-0.2426;0.0536
0000371916;5.7126;3.3782;0.7518;0.1466;-0.0645;0.1104
0000371924;5.4684;3.0670;0.6919;0.1663;-0.0598;0.0982
0000371935;5.3271;3.1316;0.4334;0.1911;-0.0470;0.1029
0000371943;5.0374;3.2681;0.3017;0.2053;-0.0508;0.1013
0000371955;4.6208;3.4668;0.1939;0.2045;-0.0729;0.0966
0000371963;4.3144;3.4141;0.2394;0.1833;-0.0849;0.0843
0000371971;4.0342;3.5937;0.1724;0.1612;-0.1110;0.0721
0000371982;4.1803;3.7661;0.2131;0.1268;-0.1468;0.0545
0000371990;4.2258;3.6392;0.1724;0.1104;-0.1693;0.0369
0000372002;4.0965;3.5458;-0.0120;0.0958;-0.1743;0.0144
0000372010;4.2689;3.5314;-0.0886;0.1025;-0.1667;0.0044
0000372021;4.6855;3.8379;-0.3256;0.1150;-0.1548;-0.0047
0000372029;4.5322;3.7182;-0.3136;0.1226;-0.1426;-0.0141
0000372037;4.8626;4.0941;-0.3543;0.1215;-0.1362;-0.0218
0000372049;4.9919;4.1132;-0.2011;0.0835;-0.1276;-0.0297
0000372057;5.0015;4.0797;-0.1245;0.0582;-0.1176;-0.0316
0000372068;5.1619;3.7804;-0.2490;0.0289;-0.1049;-0.0514
0000372076;5.0470;3.4955;-0.3136;0.0232;-0.0963;-0.0714
0000372088;4.9608;3.1819;-0.3089;0.0282;-0.0921;-0.1009
0000372096;4.8411;3.1292;-0.3543;0.0430;-0.0959;-0.1295
0000372108;4.5729;3.0287;-0.4429;0.0517;-0.1154;-0.1471
0000372116;4.2473;3.0526;-0.3304;0.0548;-0.1388;-0.1628
0000372124;4.4772;3.1125;-0.3376;0.0505;-0.1637;-0.1769
0000372192;4.5179;2.4995;-0.0239;-0.0721;-0.2641;-0.1873
0000372200;4.6687;2.3870;-0.0503;-0.0570;-0.2598;-0.1709
0000372211;4.7477;2.2362;-0.1963;-0.0338;-0.2474;-0.1567
0000372219;4.9871;2.3487;-0.2179;-0.0292;-0.2202;-0.1458
0000372231;5.1236;2.4756;-0.2873;-0.0169;-0.1797;-0.1311
0000372239;5.1643;2.3894;-0.2394;-0.0188;-0.1338;-0.1248
0000372250;5.2433;2.3727;-0.1915;-0.0141;-0.0806;-0.1144
0000372258;5.5354;2.3942;-0.2490;-0.0015;-0.0473;-0.0958
0000372271;5.3965;2.1596;-0.0694;-0.0001;-0.0123;-0.0735
0000372278;5.3032;1.9656;-0.0958;-0.0085;0.0159;-0.0530
0000372286;5.2385;1.6831;-0.1532;0.0023;0.0340;-0.0418
0000372297;5.2050;1.2570;-0.4453;0.0305;0.0622;-0.0449
0000372305;5.1595;1.0367;-0.7590;0.0558;0.0754;-0.0494
0000372317;4.8483;0.9601;-0.8404;0.0885;0.0699;-0.0624
0000372325;4.5969;1.2234;-0.9074;0.1043;0.0508;-0.0650
0000372336;4.3574;1.5419;-0.6416;0.0870;0.0152;-0.0528
0000372344;4.1396;1.6807;-0.2897;0.0456;-0.0218;-0.0322
0000372352;4.1228;1.8340;-0.3591;0.0093;-0.0448;-0.0205
0000372364;4.2042;1.5012;-0.7781;-0.0147;-0.0867;-0.0296
0000372372;4.3024;1.2426;-0.7757;-0.0318;-0.1184;-0.0465
0000372384;4.4891;1.0989;-0.9218;-0.0581;-0.1430;-0.0785
0000372392;4.5610;0.9673;-0.9577;-0.0773;-0.1611;-0.1069
0000372460;4.1970;3.1963;-0.5435;0.0352;-0.2441;0.0249
0000372468;4.1611;3.5745;-0.5171;0.0356;-0.2691;0.0490
0000372479;4.1635;3.6368;-0.2849;0.0140;-0.2860;0.0745
0000372487;4.4628;3.6057;-0.5602;-0.0005;-0.2988;0.0706
0000372495;4.5777;3.1819;-0.5914;-0.0052;-0.2892;0.0606
0000372507;4.6256;2.9090;-1.0032;0.0452;-0.2554;0.0304
0000372515;4.7453;3.0047;-1.2019;0.0914;-0.2220;0.0164
0000372526;4.6591;3.5889;-1.1779;0.1319;-0.1705;0.0256
0000372534;4.4819;4.0247;-1.0175;0.1410;-0.1504;0.0617
0000372546;4.4915;4.5131;-0.4310;0.0846;-0.1494;0.1203
0000372554;4.6567;4.7022;-0.1628;0.0189;-0.1572;0.1564
0000372565;4.8291;4.0175;-0.4477;-0.0624;-0.1691;0.1452
0000372573;4.8123;3.3399;-0.4860;-0.1055;-0.1672;0.1142
0000372581;4.7262;2.7461;-0.5555;-0.1171;-0.1644;0.0930
0000372593;4.7142;2.2553;-0.8021;-0.0694;-0.1615;0.0430
0000372601;4.4101;2.2410;-1.0726;-0.0212;-0.1500;0.0200
0000372613;4.2066;2.9257;-1.0822;0.0485;-0.1410;0.0266
0000372621;4.2306;3.5219;-0.8811;0.0652;-0.1551;0.0609
0000372633;4.3287;4.5753;-0.7853;0.0600;-0.1779;0.1042
0000372641;4.4101;4.8315;-0.7470;0.0344;-0.1988;0.1295
0000372654;4.5346;5.0781;-0.4597;-0.0598;-0.2193;0.1548
0000372662;4.7094;4.6376;-0.5507;-0.1095;-0.2049;0.1560
0000372670;4.8219;4.1492;-0.7709;-0.1291;-0.1859;0.1351
0000372738;4.6256;4.7285;-0.3184;-0.1154;-0.0047;0.1035
0000372746;4.2665;4.4365;-0.1844;-0.1595;-0.0052;0.0875
0000372757;3.9720;4.0007;-0.1197;-0.1887;-0.0099;0.0517
0000372765;3.6751;3.5314;0.0000;-0.1783;-0.0197;0.0497
0000372777;3.4740;3.2370;-0.2682;-0.1274;-0.0288;0.0485
0000372785;3.3591;3.1412;-0.2586;-0.0961;-0.0493;0.0486
0000372796;3.7541;3.4022;-0.4669;-0.0806;-0.0898;0.0482
0000372804;3.7876;3.6392;-0.4597;-0.0922;-0.1243;0.0440
0000372812;3.9911;3.9409;-0.2227;-0.1228;-0.1648;0.0272
0000372824;4.1324;4.0175;-0.4764;-0.1621;-0.1951;-0.0051
0000372832;4.0989;3.9648;-0.4214;-0.1849;-0.2084;-0.0229
0000372844;4.4317;3.8523;-0.2490;-0.2137;-0.2070;-0.0237
0000372852;4.4867;3.6919;-0.3855;-0.2178;-0.2029;-0.0233
0000372863;4.7333;3.2920;-0.6440;-0.1951;-0.1740;-0.0216
0000372871;4.8147;3.3615;-0.6560;-0.1807;-0.1346;-0.0125
0000372883;5.0949;3.4453;-0.3041;-0.1719;-0.0866;0.0032
0000372891;5.1475;3.5530;-0.2610;-0.1653;-0.0669;0.0052
0000372899;5.2936;3.5793;-0.2801;-0.1759;-0.0366;0.0108
0000372910;5.0446;3.2394;-0.2131;-0.1681;-0.0125;-0.0075
0000372918;4.7573;2.9880;-0.3711;-0.1592;0.0063;-0.0188
0000372930;4.4197;2.9904;-0.6249;-0.1228;0.0462;-0.0402
0000372938;4.1659;2.9951;-0.4788;-0.1083;0.0584;-0.0529
0000373004;4.7190;2.7701;-0.1221;-0.1155;-0.0127;-0.0109
0000373012;4.7764;2.5762;-0.1724;-0.0871;-0.0041;-0.0329
0000373024;4.5633;2.6336;-0.7326;-0.0145;0.0332;-0.0545
0000373032;4.8459;2.9904;-0.6536;0.0199;0.0584;-0.0528
0000373043;4.9752;3.6057;-0.8116;0.0346;0.0957;-0.0213
0000373051;5.2696;4.1731;-0.7446;0.0296;0.1192;-0.0057
0000373059;5.1715;4.1180;-0.6728;0.0155;0.1386;0.0089
0000373071;5.0589;3.7397;-0.5674;-0.0073;0.1528;0.0254
0000373079;5.0206;3.1867;-0.4645;-0.0120;0.1683;0.0382
0000373090;4.6926;2.5331;-0.0407;-0.0020;0.1607;0.0357
0000373098;4.6040;2.1572;0.1006;0.0092;0.1511;0.0285
0000373110;4.7309;2.0111;-0.0838;0.0576;0.1266;-0.0172
0000373118;4.7357;2.3511;-0.1317;0.0790;0.1178;-0.0582
0000373126;4.6184;2.7509;-0.2155;0.1033;0.1127;-0.1130
0000373137;4.7166;3.4788;-0.1939;0.1038;0.1122;-0.1616
0000373145;4.8507;4.0127;0.0479;0.0821;0.1140;-0.1835
0000373157;4.5442;3.9935;0.2969;0.0409;0.0994;-0.1851
0000373165;4.3167;4.0701;0.4836;0.0155;0.0809;-0.1685
0000373176;4.1899;3.6966;0.4693;0.0221;0.0233;-0.1540
0000373184;4.0965;3.3495;0.4908;0.0412;-0.0063;-0.1451
0000373192;4.2042;3.1699;0.5650;0.0819;-0.0454;-0.1459
0000373204;4.2377;3.1532;0.6057;0.1243;-0.0798;-0.1551
0000373212;4.1444;3.1268;0.5746;0.1488;-0.1045;-0.1664
0000373280;5.7604;3.0981;-0.0982;0.1647;0.0452;-0.0140
0000373288;5.7604;3.2777;-0.1101;0.1699;0.0822;0.0025
0000373300;5.7006;3.6392;-0.1149;0.1547;0.1324;0.0193
0000373308;5.4923;3.6919;0.0120;0.1447;0.1613;0.0302
0000373316;5.5043;3.7326;-0.0383;0.1431;0.1839;0.0374
0000373327;5.2218;3.5243;-0.0910;0.1565;0.2142;0.0417
0000373335;5.2816;3.5219;-0.1604;0.1831;0.2318;0.0410
0000373347;5.0494;3.2298;-0.2873;0.2074;0.2515;0.0476
0000373355;4.9608;3.2585;-0.4238;0.2153;0.2641;0.0498
0000373366;4.8100;3.2920;-0.5339;0.2245;0.2650;0.0497
0000373374;4.9105;3.6416;-0.5459;0.2116;0.2643;0.0462
0000373382;4.6136;3.5961;-0.4046;0.1941;0.2479;0.0428
0000373394;4.5155;3.5961;-0.4501;0.1595;0.2290;0.0446
0000373402;4.5226;3.5602;-0.5339;0.1450;0.2242;0.0558
0000373413;4.5873;3.6943;-0.5507;0.1299;0.2108;0.0598
0000373421;4.4628;3.5243;-0.3855;0.1183;0.1961;0.0709
0000373433;4.4796;3.4979;-0.4669;0.0979;0.1585;0.0774
0000373441;4.5729;3.5051;-0.5100;0.0850;0.1211;0.0830
0000373452;4.5466;3.3615;-0.2370;0.0508;0.0689;0.0797
0000373460;4.6543;3.3255;-0.3160;0.0328;0.0394;0.0763
0000373468;4.7525;3.0047;-0.3759;0.0205;0.0169;0.0632
0000373480;4.8171;2.7461;-0.3831;0.0226;0.0028;0.0429
0000373488;4.8650;2.8156;-0.3591;0.0376;-0.0023;0.0313
0000373556;4.7932;2.9784;-0.4812;0.1431;-0.0620;0.0476
0000373564;4.9081;3.1484;-0.4812;0.1343;-0.0757;0.0468
0000373576;4.7381;3.0574;-0.5578;0.1231;-0.0939;0.0404
0000373584;4.8123;3.0622;-0.4980;0.1222;-0.1007;0.0362
0000373592;4.7262;2.9951;-0.6704;0.1162;-0.1120;0.0348
0000373603;4.7836;3.0071;-0.7183;0.1077;-0.1186;0.0366
0000373611;4.9129;3.1220;-0.7159;0.1083;-0.1319;0.0352
0000373623;4.8914;3.2705;-0.6919;0.0735;-0.1271;0.0404
0000373631;5.2050;3.5721;-0.6823;0.0594;-0.1339;0.0325
0000373643;5.0063;3.3543;-0.5219;0.0226;-0.1262;0.0422
0000373651;5.0973;3.3662;-0.6656;0.0131;-0.1270;0.0388
0000373659;5.0230;3.2465;-0.6560;0.0119;-0.1143;0.0480
0000373671;5.0949;3.0861;-0.7230;0.0320;-0.1070;0.0593
0000373679;5.0542;3.1460;-0.6943;0.0500;-0.1015;0.0574
0000373690;4.9680;3.0311;-0.6416;0.0641;-0.0942;0.0526
0000373698;5.1332;3.1101;-0.8739;0.0791;-0.0923;0.0440
0000373710;5.2601;3.2346;-0.9457;0.0805;-0.0689;0.0372
0000373718;5.3846;3.4333;-0.9529;0.0610;-0.0530;0.0373
0000373729;5.3822;3.5171;-0.8428;0.0278;-0.0294;0.0345
0000373737;5.3726;3.4740;-0.7901;-0.0072;-0.0141;0.0398
0000373745;5.0566;3.0885;-0.7326;-0.0350;-0.0037;0.0373
0000373799;5.2625;2.3008;-0.5578;-0.0508;0.0593;0.0529
0000373807;5.2074;2.1668;-0.5986;-0.0480;0.0679;0.0545
0000373875;5.3367;1.8148;-0.7398;0.0392;0.0434;-0.0298
0000373883;5.2194;1.8794;-0.8452;0.0558;0.0588;-0.0493
0000373895;5.2241;1.8986;-0.9313;0.0749;0.0671;-0.0763
0000373903;5.6312;1.9896;-1.1109;0.0779;0.0733;-0.0770
0000373911;5.5234;1.9896;-1.5826;0.0734;0.0622;-0.0753
0000373923;5.4564;2.0853;-1.5275;0.0059;0.0645;-0.0632
0000373931;5.5210;2.3415;-1.2617;-0.0445;0.0558;-0.0506
0000373943;5.3917;2.1715;-1.0463;-0.1328;0.0493;-0.0365
0000373951;5.3008;1.9848;-1.0295;-0.1680;0.0428;-0.0352
0000373963;5.3750;1.9848;-0.8308;-0.1873;0.0490;-0.0440
0000373971;5.3941;1.6496;-0.9984;-0.1784;0.0374;-0.0577
0000373983;5.4013;1.8100;-1.3623;-0.1296;0.0300;-0.0726
0000373991;5.1667;1.9944;-1.4126;-0.1071;0.0217;-0.0862
0000373999;5.1092;2.5091;-1.2833;-0.1127;0.0209;-0.0998
0000374011;4.8961;2.7222;-0.8859;-0.1519;-0.0057;-0.1200
0000374019;4.6352;2.5402;-0.6440;-0.1879;-0.0221;-0.1119
0000374031;4.7142;2.2242;-0.5387;-0.2145;-0.0386;-0.0929
0000374039;4.8578;2.0207;-0.5435;-0.2084;-0.0389;-0.0797
0000374051;5.1595;1.4844;-0.6704;-0.1515;-0.0326;-0.0666
0000374059;5.2433;1.4844;-0.7638;-0.0931;-0.0245;-0.0665
0000374071;5.4588;1.6352;-1.0678;0.0047;0.0069;-0.0719
0000374079;5.4971;1.8866;-1.4772;0.0620;0.0195;-0.0773
0000374147;4.1659;3.7589;-1.1803;0.0432;0.0452;-0.1732
0000374155;4.0414;3.3878;-1.3647;0.0484;0.0322;-0.1518
0000374163;4.3622;3.2825;-1.5586;0.0648;0.0181;-0.1403
0000374175;4.6064;3.5410;-1.7047;0.0973;-0.0051;-0.1320
0000374183;4.5969;3.9002;-1.7621;0.1039;-0.0121;-0.1420
0000374195;4.6519;4.5610;-1.3910;0.0714;-0.0151;-0.1624
0000374203;4.7621;4.5442;-1.3719;0.0358;-0.0254;-0.1727
0000374215;4.7573;4.2593;-1.5658;0.0063;-0.0368;-0.1668
0000374223;4.8004;4.3670;-1.5993;-0.0035;-0.0405;-0.1607
0000374235;4.7740;4.2306;-1.4557;-0.0096;-0.0434;-0.1525
0000374243;4.7549;3.9983;-1.3408;-0.0085;-0.0512;-0.1525
0000374251;4.9057;4.1084;-1.4054;-0.0007;-0.0506;-0.1540
0000374263;4.9105;4.1228;-1.3336;-0.0212;-0.0405;-0.1613
0000374271;4.8866;3.9361;-1.4365;-0.0401;-0.0380;-0.1596
0000374283;4.7573;3.8379;-1.3910;-0.0592;-0.0175;-0.1535
0000374291;4.7285;3.6368;-1.3503;-0.0648;-0.0128;-0.1492
0000374303;4.8626;3.5195;-1.2857;-0.0673;-0.0025;-0.1274
0000374311;4.9632;3.4046;-1.4844;-0.0560;0.0076;-0.0986
0000374323;4.8914;3.4213;-1.6472;-0.0330;0.0228;-0.0845
0000374331;4.7094;3.6416;-1.7478;-0.0249;0.0306;-0.0751
0000374339;4.8315;3.9504;-1.7573;-0.0282;0.0260;-0.0742
0000374407;4.1444;3.2561;-0.7446;-0.0998;-0.0961;-0.0095
0000374415;4.3191;3.2633;-0.6871;-0.0877;-0.1096;-0.0041
0000374427;4.5298;3.7517;-0.7015;-0.0831;-0.1236;-0.0131
0000374435;4.1492;3.8116;-0.6416;-0.0977;-0.1491;-0.0269
0000374447;3.7565;4.0654;-0.5195;-0.1375;-0.1924;-0.0104
0000374455;3.5219;4.2904;-0.5411;-0.1655;-0.2325;0.0056
0000374467;3.1005;4.1611;-0.2322;-0.1974;-0.3115;0.0445
0000374475;3.0287;4.0270;-0.0239;-0.2052;-0.3708;0.0645
0000374487;3.4333;3.8235;0.1891;-0.1721;-0.4499;0.0981
0000374495;3.6248;3.5003;0.0335;-0.1271;-0.4954;0.1041
0000374503;4.0558;3.0885;-0.2274;-0.0787;-0.5028;0.0986
0000374515;4.5011;3.1268;-0.7278;-0.0061;-0.4860;0.0516
0000374523;4.8028;3.1101;-1.0295;0.0200;-0.4604;0.0232
0000374535;4.9201;3.0095;-1.1875;0.0149;-0.3904;-0.0088
0000374543;5.1284;3.4429;-1.3216;-0.0167;-0.3483;-0.0165
0000374555;5.0805;3.5147;-1.1277;-0.1033;-0.2722;-0.0035
0000374563;4.9656;3.5386;-1.1013;-0.1744;-0.2261;0.0133
0000374575;5.0925;3.8283;-0.8954;-0.2585;-0.1869;0.0453
0000374583;4.9464;3.6129;-0.6393;-0.3003;-0.1721;0.0690
0000374591;4.7908;3.3854;-0.4453;-0.3150;-0.1597;0.0858
0000374603;4.6687;3.1436;-0.3472;-0.2931;-0.1462;0.0903
0000374611;4.6735;3.2034;-0.3376;-0.2503;-0.1488;0.0774
0000374679;4.0151;4.0414;-0.2107;-0.2077;-0.0298;0.0469
0000374687;4.0223;4.2641;-0.2274;-0.2104;-0.0406;0.0578
0000374699;4.2162;4.3311;-0.3017;-0.1951;-0.0464;0.0815
0000374707;4.3838;4.2282;-0.4429;-0.1805;-0.0465;0.0878
0000374719;4.5514;3.9361;-0.3041;-0.1761;-0.0557;0.0870
0000374727;4.8578;3.7421;-0.2394;-0.1713;-0.0637;0.0682
0000374735;5.1380;3.6655;-0.3926;-0.1771;-0.0544;0.0512
0000374747;5.2529;3.3184;-0.2562;-0.1773;-0.0436;0.0229
0000374755;5.0805;3.1268;-0.3160;-0.1768;-0.0401;0.0169
0000374767;5.1739;2.8036;-0.4405;-0.1651;-0.0349;0.0119
0000374775;4.8578;2.6815;-0.3352;-0.1502;-0.0369;0.0057
0000374787;4.5705;2.7174;-0.1867;-0.1462;-0.0360;0.0213
0000374795;4.5155;2.6935;-0.0192;-0.1410;-0.0460;0.0304
0000374807;4.2329;2.4732;0.0407;-0.1407;-0.0718;0.0428
0000374815;4.3598;2.5977;0.1652;-0.1450;-0.0931;0.0536
0000374823;4.3718;2.4900;0.3280;-0.1585;-0.1075;0.0674
0000374835;4.4772;2.5187;0.4956;-0.1547;-0.1439;0.0709
0000374843;4.5873;2.2577;0.4334;-0.1374;-0.1605;0.0584
0000374855;4.8339;2.0973;0.2993;-0.0835;-0.1568;0.0490
0000374863;5.1427;2.2649;0.1341;-0.0538;-0.1396;0.0458
0000374875;5.2074;2.5474;0.0670;-0.0269;-0.1011;0.0380
0000374883;5.0494;2.4708;0.2298;-0.0384;-0.0618;0.0482
0000374891;5.2720;2.7438;0.2825;-0.0536;-0.0357;0.0683
0000374959;5.1787;3.1580;0.4764;0.0838;0.0941;0.1645
0000374967;5.0661;3.1867;0.5171;0.1061;0.0849;0.1316
0000374979;4.9177;3.1963;0.4884;0.1050;0.0794;0.0693
0000374987;4.8435;3.1843;0.3903;0.1065;0.0679;0.0394
0000374999;4.7214;3.0406;0.0790;0.1294;0.0498;-0.0097
0000375007;4.5059;2.8635;-0.1173;0.1495;0.0496;-0.0218
0000375015;4.4963;2.9497;-0.2155;0.1776;0.0318;-0.0376
0000375027;4.4963;3.0526;-0.1269;0.1944;0.0151;-0.0294
0000375035;4.5131;3.2585;-0.2514;0.2032;-0.0051;-0.0346
0000375047;4.5753;3.3591;-0.2131;0.1905;-0.0100;-0.0413
0000375055;4.5562;3.6272;-0.1293;0.1868;-0.0195;-0.0530
0000375068;4.4628;3.6033;-0.0192;0.1732;-0.0314;-0.0781
0000375077;4.3838;3.5889;0.0646;0.1563;-0.0378;-0.0835
0000375090;4.8459;3.7709;0.1508;0.1474;-0.0389;-0.0953
0000375099;4.9728;3.7517;0.1963;0.1600;-0.0461;-0.1119
0000375108;5.1140;3.6129;0.1652;0.1659;-0.0401;-0.1222
0000375121;5.0542;3.4524;0.0766;0.1804;-0.0328;-0.1431
0000375130;4.8028;3.2322;0.0431;0.1917;-0.0426;-0.1576
0000375143;4.5586;3.1173;-0.0670;0.1953;-0.0569;-0.1551
0000375152;4.4532;3.1508;-0.1221;0.1952;-0.0818;-0.1476
0000375165;4.1420;3.1963;-0.0168;0.1803;-0.1291;-0.1466
0000375174;4.1755;3.2346;-0.0024;0.1772;-0.1680;-0.1520
0000375243;4.3790;3.1053;-0.3017;0.0911;-0.4652;-0.1553
0000375252;4.3383;2.8156;-0.2514;0.0862;-0.5092;-0.1568
0000375261;4.5849;2.8012;-0.2897;0.0865;-0.5449;-0.1619
0000375274;4.7166;2.6983;-0.3376;0.0907;-0.5828;-0.1653
0000375283;4.9177;2.5355;-0.2107;0.0871;-0.5913;-0.1633
0000375296;4.8435;2.3870;-0.4070;0.0919;-0.5947;-0.1516
0000375305;5.0829;2.5283;-0.4405;0.0875;-0.5804;-0.1472
0000375318;5.1954;2.2577;-0.5028;0.0890;-0.5285;-0.1323
0000375327;5.3774;2.3822;-0.5363;0.0898;-0.4923;-0.1127
0000375340;5.3606;2.2913;-0.3998;0.0838;-0.4442;-0.0810
0000375349;5.3534;2.3487;-0.4980;0.0814;-0.4053;-0.0482
0000375358;5.1691;2.1835;-0.5986;0.0821;-0.3790;-0.0265
0000375371;5.1811;2.1117;-0.6752;0.0866;-0.3196;-0.0025
0000375380;5.0422;2.0183;-0.7063;0.0885;-0.2825;0.0167
0000375393;4.7908;1.6496;-0.4645;0.0899;-0.2649;0.0338
0000375402;4.8722;1.8196;-0.5578;0.1058;-0.2637;0.0422
0000375415;4.6471;1.5275;-0.7997;0.1292;-0.2304;0.0561
0000375424;4.6543;1.6209;-0.8691;0.1344;-0.2040;0.0729
0000375437;4.5657;1.3767;-0.8236;0.1322;-0.1958;0.0839
0000375446;4.5945;1.6424;-0.7685;0.1027;-0.2006;0.0846
0000375455;4.6352;1.8244;-0.7230;0.0585;-0.2108;0.0754
0000375468;4.7501;1.8579;-0.6249;-0.0322;-0.2274;0.0252
0000375477;4.5753;1.5323;-0.5507;-0.0941;-0.2317;-0.0185
0000375546;4.9560;2.3583;-0.7302;0.0245;-0.1284;0.0266
0000375555;4.9560;2.4995;-0.8021;0.0381;-0.1167;0.0163
0000375568;4.9512;2.5474;-0.9409;0.0715;-0.0913;0.0300
0000375577;4.9512;2.7581;-1.0606;0.1082;-0.0773;0.0473
0000375586;4.7262;2.9305;-0.9720;0.1212;-0.0426;0.0701
0000375599;4.8171;3.5626;-0.6800;0.1046;-0.0293;0.0746
0000375608;4.8147;3.5626;-0.5746;0.0412;-0.0269;0.0698
0000375621;5.1427;3.3303;-0.5459;-0.0790;-0.0262;0.0161
0000375630;5.1140;2.7653;-0.4693;-0.1512;-0.0213;-0.0464
0000375643;5.0589;1.9680;-0.6249;-0.1785;0.0350;-0.1131
0000375652;5.0422;1.7957;-1.1037;-0.1081;0.0867;-0.1244
0000375665;4.8171;2.2529;-1.3264;0.0540;0.1929;-0.0412
0000375674;4.7070;3.2417;-1.1229;0.1522;0.2465;0.0408
0000375683;4.8530;4.5777;-0.7494;0.1800;0.2723;0.1199
0000375699;5.0733;5.1954;-0.1652;0.0831;0.2586;0.1695
0000375708;5.2170;4.5490;-0.6177;-0.0059;0.2631;0.1136
0000375721;5.0159;3.4405;-1.1109;-0.0895;0.2903;0.0043
0000375730;4.4843;2.9042;-0.8499;-0.0959;0.3066;-0.0276
0000375742;4.2282;2.6528;-0.9864;-0.0019;0.3195;-0.0349
0000375751;3.7302;2.9473;-1.3767;0.0887;0.3488;-0.0129
0000375760;3.8595;3.6631;-1.2354;0.1500;0.3535;0.0192
0000375829;4.0869;3.5578;-0.7614;-0.1931;0.1780;-0.0007
0000375838;3.9696;3.0478;-0.6919;-0.1615;0.1691;-0.0137
0000375850;4.2497;3.2825;-0.7973;-0.1144;0.1703;-0.0296
0000375859;4.2569;3.2872;-0.8763;-0.1042;0.1841;-0.0211
0000375872;4.4436;3.8283;-0.8906;-0.1138;0.1880;-0.0040
0000375881;4.4532;4.1061;-0.9290;-0.1411;0.1837;0.0033
0000375893;4.1851;4.1180;-0.8643;-0.1864;0.1537;0.0212
0000375902;3.9911;4.0055;-0.8715;-0.2182;0.1235;0.0228
0000375911;4.0582;3.8690;-0.6416;-0.2378;0.0806;0.0286
0000375924;3.9648;3.4429;-1.0558;-0.2222;0.0462;0.0141
0000375933;4.1324;3.3255;-1.3312;-0.1974;0.0298;0.0135
0000375945;4.5610;3.5075;-1.2857;-0.1524;0.0256;0.0045
0000375954;4.8914;3.5602;-1.4844;-0.1115;0.0272;-0.0071
0000375967;5.1595;4.0510;-1.5467;-0.0949;0.0390;-0.0460
0000375976;5.2289;4.1013;-1.3192;-0.1188;0.0554;-0.0723
0000375988;5.0613;4.0438;-1.1109;-0.1620;0.0718;-0.1074
0000375997;5.0996;4.0582;-1.0774;-0.1949;0.0921;-0.1184
0000376006;4.9488;3.8523;-0.8954;-0.2206;0.1159;-0.1264
0000376019;4.7166;3.5267;-1.1588;-0.1992;0.1648;-0.1222
0000376028;4.5825;3.4333;-1.3862;-0.1541;0.1945;-0.1155
0000376040;4.6687;3.6799;-1.3288;-0.0925;0.2285;-0.0974
0000376049;4.6855;3.7685;-1.3527;-0.0663;0.2494;-0.0793
0000376118;4.3311;3.6248;-0.9194;-0.0477;0.3220;-0.2286
0000376127;4.1922;3.9002;-1.1468;0.0065;0.3617;-0.2430
0000376139;4.3287;4.6256;-1.3024;0.0538;0.3873;-0.2364
0000376148;4.3622;4.9392;-0.9768;0.0438;0.3868;-0.2057
0000376157;4.3886;4.9512;-0.9481;0.0001;0.3813;-0.1471
0000376170;4.4125;4.3455;-0.9816;-0.0314;0.3612;-0.1108
0000376179;4.1994;3.8571;-0.9218;-0.0389;0.3531;-0.0985
0000376191;3.9385;3.3447;-1.3096;-0.0059;0.3335;-0.1123
0000376200;3.7781;3.3471;-1.3048;0.0262;0.3364;-0.1215
0000376213;3.7613;3.5506;-1.0127;0.0300;0.3477;-0.1037
0000376222;3.7086;3.6392;-0.8236;0.0164;0.3457;-0.0873
0000376234;3.9696;3.6440;-0.7757;-0.0191;0.3483;-0.0494
0000376243;4.0127;3.3351;-0.5555;-0.0530;0.3399;-0.0205
0000376252;4.1922;3.1388;-0.5148;-0.0885;0.3303;0.0108
0000376265;4.3455;2.6647;-0.5986;-0.1075;0.3172;0.0386
0000376274;4.1539;2.4110;-0.6512;-0.1102;0.3079;0.0405
0000376286;4.1444;2.2290;-0.5722;-0.1127;0.3102;0.0468
0000376295;4.4053;2.5594;-0.6033;-0.1174;0.3087;0.0526
0000376308;4.5801;2.8898;-0.4118;-0.1363;0.3238;0.0671
0000376317;4.9536;3.1603;-0.2873;-0.1515;0.3327;0.0766
0000376326;5.0302;3.1819;0.0311;-0.1705;0.3319;0.0938
0000376338;5.0446;2.9999;0.1604;-0.1861;0.3352;0.1107
0000376347;4.9440;2.8180;0.2466;-0.1845;0.3369;0.1275
0000376416;4.4772;2.5833;0.1844;0.0201;0.1769;0.0470
0000376425;4.5657;2.6911;0.0144;0.0298;0.1547;0.0292
0000376437;4.7669;2.9185;0.0359;0.0405;0.1398;0.0240
0000376446;4.7238;3.0263;0.0599;0.0598;0.1198;0.0187
0000376455;4.6232;3.1771;0.1413;0.0771;0.0949;0.0229
0000376468;4.7238;3.2489;0.0670;0.1027;0.0490;0.0344
0000376477;4.6998;3.2920;0.0144;0.1098;0.0097;0.0374
0000376489;4.8530;3.2417;0.0072;0.1198;-0.0396;0.0309
0000376498;5.0087;3.2513;-0.0431;0.1196;-0.0762;0.0183
0000376511;4.8411;3.2178;-0.1125;0.1392;-0.1124;-0.0092
0000376520;4.9105;3.3495;-0.3400;0.1476;-0.1152;-0.0128
0000376529;4.7453;3.5171;-0.4094;0.1522;-0.1456;-0.0097
0000376541;4.5801;3.7685;-0.1796;0.1140;-0.1880;0.0033
0000376550;4.6160;3.8331;-0.1389;0.0994;-0.2254;-0.0060
0000376563;4.6711;3.8499;0.1772;0.0861;-0.2577;0.0136
0000376572;4.3886;3.5267;0.1844;0.0918;-0.2860;0.0212
0000376584;4.5394;3.4500;0.0072;0.0862;-0.3218;0.0324
0000376593;4.7022;3.4093;-0.0383;0.0793;-0.3368;0.0345
0000376606;4.7453;3.1771;-0.0742;0.0677;-0.3637;0.0212
0000376615;4.6256;2.9760;-0.0239;0.0622;-0.3734;0.0224
0000376624;4.9033;3.1556;0.0072;0.0466;-0.3774;0.0220
0000376636;4.8219;3.1580;0.0742;0.0192;-0.3841;0.0204
0000376645;4.9153;3.1987;0.0407;0.0080;-0.3675;0.0204
0000376714;5.3917;2.5187;0.0670;0.0197;-0.1410;0.0909
0000376723;5.3391;2.4756;-0.0383;0.0470;-0.1096;0.0951
0000376735;5.3175;2.5211;-0.0048;0.0604;-0.0757;0.0986
0000376744;5.2002;2.2362;-0.1987;0.0707;-0.0502;0.1007
0000376753;5.2409;2.1380;-0.3974;0.0939;-0.0376;0.0846
0000376766;5.3486;2.1572;-0.7949;0.1232;-0.0173;0.0537
0000376775;5.0087;2.0614;-0.8595;0.1371;-0.0101;0.0244
0000376787;5.2409;2.3200;-0.7781;0.1178;-0.0328;0.0025
0000376796;4.9416;2.1955;-0.9816;0.1053;-0.0480;-0.0108
0000376809;5.0877;2.4086;-1.0151;0.0823;-0.0799;-0.0352
0000376818;5.1116;2.4277;-0.9984;0.0699;-0.1107;-0.0614
0000376830;5.1356;2.4780;-0.9313;0.0601;-0.1164;-0.0963
0000376839;5.1763;2.4780;-0.9122;0.0489;-0.1230;-0.1126
0000376848;5.3822;2.4397;-0.8212;0.0277;-0.1071;-0.1138
0000376861;5.6048;2.2194;-0.7063;0.0095;-0.0950;-0.0993
0000376870;5.9280;1.8747;-0.7997;0.0140;-0.0795;-0.0861
0000376882;5.9376;1.5395;-0.8763;0.0112;-0.0365;-0.0601
0000376891;6.0382;1.3647;-0.7757;0.0079;0.0013;-0.0388
0000376904;5.9209;1.1229;-0.6440;0.0087;0.0384;-0.0193
0000376913;5.8921;1.0343;-0.6321;0.0203;0.0670;-0.0185
0000376922;5.7054;0.9673;-0.9242;0.0626;0.0818;-0.0329
0000376934;5.7174;0.9960;-1.2929;0.1180;0.1031;-0.0548
0000376943;5.5402;1.1899;-1.2617;0.1340;0.1090;-0.0550
0000377012;4.8004;2.4924;-0.8356;-0.0831;0.1003;0.0767
0000377021;4.9129;2.4900;-0.5387;-0.1210;0.0986;0.0791
0000377033;5.2409;2.4565;-0.7470;-0.1422;0.1187;0.0682
0000377042;5.4588;2.5833;-1.0151;-0.1194;0.1334;0.0613
0000377055;5.0901;2.5666;-1.0295;-0.0513;0.1494;0.0230
0000377064;5.0374;3.1292;-1.1013;-0.0068;0.1649;0.0056
0000377073;4.7429;3.5554;-1.1851;0.0129;0.1589;-0.0288
0000377085;4.2976;4.0558;-1.1061;0.0005;0.1308;-0.0766
0000377094;3.8978;4.3431;-0.8452;-0.0330;0.1025;-0.1172
0000377107;3.7278;4.3024;-0.7542;-0.0705;0.0298;-0.1536
0000377116;3.6895;4.1228;-0.8260;-0.0986;-0.0119;-0.1540
0000377128;3.9600;3.7110;-0.8404;-0.1180;-0.0477;-0.1096
0000377137;4.3790;3.5530;-0.9385;-0.1116;-0.0823;-0.0750
0000377150;4.7285;3.4979;-1.2570;-0.0673;-0.0949;-0.0601
0000377159;4.6184;3.3974;-1.4341;-0.0204;-0.0890;-0.0682
0000377168;4.6232;3.6344;-1.5251;0.0155;-0.0833;-0.1094
0000377179;4.7692;4.3215;-1.4772;0.0321;-0.0554;-0.1492
0000377188;4.4652;4.3335;-1.4533;0.0145;-0.0424;-0.1551
0000377202;4.3167;4.4819;-1.3934;-0.0344;-0.0249;-0.1063
0000377211;4.3910;4.2401;-1.6855;-0.0628;-0.0300;-0.0699
0000377280;4.3120;3.6847;-1.4437;-0.0777;-0.0238;-0.0931
0000377289;4.2880;3.8379;-1.5251;-0.0701;-0.0136;-0.0779
0000377301;4.2066;3.9648;-1.4461;-0.0682;-0.0325;-0.0670
0000377310;4.2042;3.8571;-1.4844;-0.0735;-0.0524;-0.0456
0000377323;4.3215;3.9792;-1.3982;-0.0881;-0.0867;-0.0321
0000377332;4.4173;3.6703;-1.3647;-0.0950;-0.0982;-0.0233
0000377341;4.5274;3.5434;-1.3767;-0.0843;-0.1155;-0.0273
0000377353;4.4819;3.5075;-1.2857;-0.0695;-0.1236;-0.0444
0000377362;4.6160;3.4405;-1.1708;-0.0561;-0.1366;-0.0492
0000377375;4.8530;3.3734;-0.8835;-0.0426;-0.1292;-0.0418
0000377384;4.8147;3.4405;-1.1085;-0.0337;-0.1119;-0.0191
0000377396;4.8770;3.4285;-1.2498;-0.0236;-0.0955;-0.0021
0000377405;4.9105;3.5913;-1.3815;-0.0268;-0.0818;0.0107
0000377418;4.7692;3.7589;-1.3288;-0.0637;-0.0706;0.0173
0000377427;4.6256;3.9552;-1.1875;-0.0994;-0.0644;0.0152
0000377436;4.3862;4.0223;-0.9050;-0.1504;-0.0675;0.0200
0000377448;4.1970;3.8642;-0.6201;-0.1989;-0.0903;0.0369
0000377457;4.2760;3.7062;-0.5507;-0.2034;-0.1118;0.0541
0000377470;4.2713;3.5027;-0.4812;-0.1653;-0.1528;0.0482
0000377479;4.4221;3.6775;-0.4381;-0.1390;-0.1745;0.0372
0000377491;4.2952;3.7373;-0.7230;-0.1243;-0.2074;0.0096
0000377500;4.4867;3.9073;-0.7542;-0.1432;-0.2184;-0.0076
0000377569;4.2880;3.2585;-0.3711;-0.1739;-0.2328;0.0129
0000377578;4.2760;3.6176;-0.2682;-0.1664;-0.2354;0.0341
0000377587;4.1492;4.1563;-0.2705;-0.1564;-0.2605;0.0397
0000377599;3.7948;4.1013;-0.3567;-0.1641;-0.2882;0.0456
0000377608;4.1204;4.0342;-0.1508;-0.1769;-0.3131;0.0397
0000377621;4.1300;3.4500;-0.1820;-0.1663;-0.3267;0.0349
0000377630;4.3694;3.1005;-0.1221;-0.1447;-0.3265;0.0276
0000377642;4.7166;2.9951;-0.1915;-0.1037;-0.3240;0.0193
0000377651;4.4963;2.8156;-0.2466;-0.0757;-0.3104;0.0163
0000377664;4.7309;3.2178;-0.3065;-0.0446;-0.2931;0.0107
0000377673;4.6878;3.3471;-0.3208;-0.0298;-0.2892;0.0012
0000377685;4.4891;3.4836;-0.2274;-0.0437;-0.2856;0.0076
0000377694;4.6280;3.3998;-0.1365;-0.0409;-0.2984;0.0088
0000377703;4.7884;3.4429;-0.1077;-0.0500;-0.2922;0.0141
0000377716;4.8315;3.0526;-0.0024;-0.0481;-0.2758;0.0131
0000377725;5.0111;2.8204;0.2083;-0.0492;-0.2538;0.0099
0000377737;5.2026;2.7581;0.2969;-0.0508;-0.2272;0.0073
0000377746;5.1260;2.7294;0.3232;-0.0500;-0.1992;-0.0036
0000377759;5.3295;3.0430;0.3496;-0.0558;-0.1720;0.0049
0000377768;4.9488;2.9975;0.5219;-0.0658;-0.1623;0.0115
0000377777;4.5825;3.0119;0.7230;-0.0739;-0.1727;0.0191
0000377789;4.4508;3.1987;0.9577;-0.0993;-0.1990;0.0334
0000377798;4.3742;3.2010;1.0894;-0.1022;-0.2180;0.0421
0000377867;4.7740;3.1053;0.3112;0.0404;-0.2819;-0.0416
0000377876;4.9201;3.2944;0.3400;0.0244;-0.2711;-0.0434
0000377888;4.9009;3.3399;0.4214;0.0148;-0.2631;-0.0429
0000377897;4.6615;3.2010;0.2418;0.0232;-0.2574;-0.0426
0000377910;4.7429;3.1795;0.1101;0.0394;-0.2423;-0.0188
0000377919;4.6448;3.1651;0.2322;0.0402;-0.2280;-0.0039
0000377928;4.8076;3.3495;0.3232;0.0508;-0.2148;0.0001
0000377940;4.7094;3.4453;0.3160;0.0381;-0.1875;0.0040
0000377949;4.8530;3.5961;0.3639;0.0304;-0.1859;-0.0084
0000377962;4.9488;3.6368;0.5291;0.0089;-0.1533;-0.0253
0000377971;4.9081;3.4093;0.3112;-0.0153;-0.1218;-0.0329
0000377983;5.0518;3.2777;0.3472;-0.0208;-0.0955;-0.0546
0000377992;5.0685;3.1196;0.3974;-0.0278;-0.0761;-0.0640
0000378001;5.2122;3.2178;0.3065;-0.0314;-0.0580;-0.0802
0000378014;5.0877;2.9042;0.2107;-0.0273;-0.0326;-0.1041
0000378023;5.1356;2.8036;0.1604;-0.0434;-0.0123;-0.1079
0000378035;5.1236;2.7605;0.3160;-0.0548;0.0007;-0.1402
0000378044;4.8722;2.7701;0.3783;-0.0597;0.0238;-0.1491
0000378057;4.7477;2.9473;0.1221;-0.0461;0.0706;-0.1466
0000378066;4.4484;3.0933;0.2514;-0.0250;0.0869;-0.1322
0000378078;4.2856;3.2274;0.1556;-0.0143;0.0989;-0.1054
0000378087;4.4436;3.3016;0.1341;-0.0226;0.1042;-0.0811
0000378096;4.5226;3.1915;0.1413;-0.0350;0.1018;-0.0687
0000378164;4.7142;2.0806;-0.1556;0.0294;0.1451;-0.0985
0000378173;4.5633;2.2218;-0.4549;0.0610;0.1716;-0.0794
0000378185;4.4365;2.5762;-0.2466;0.0456;0.1849;-0.0440
0000378194;4.6567;2.7605;-0.1125;0.0035;0.1676;-0.0171
0000378207;4.5921;2.2817;-0.3615;-0.0392;0.1552;0.0211
0000378216;4.7022;1.8292;-0.5938;-0.0490;0.1597;0.0317
0000378228;4.7190;1.3910;-0.6369;-0.0345;0.1531;0.0249
0000378237;4.5514;1.2570;-0.6249;-0.0222;0.1645;0.0266
0000378246;4.7118;1.5610;-0.4334;-0.0081;0.1529;0.0133
0000378259;4.6184;2.1380;-0.2969;-0.0047;0.1342;0.0177
0000378268;4.6088;2.4804;-0.0479;-0.0167;0.1038;0.0073
0000378280;4.4365;2.4612;-0.2418;-0.0520;0.0699;-0.0112
0000378289;4.5131;2.3224;-0.3472;-0.0789;0.0328;-0.0188
0000378302;4.7429;1.7645;-0.3328;-0.1047;-0.0221;-0.0148
0000378311;4.6926;1.2641;-0.4932;-0.1007;-0.0509;-0.0053
0000378320;4.9249;1.3168;-0.5219;-0.0733;-0.0826;-0.0072
0000378332;4.8219;1.3791;-0.3304;-0.0389;-0.1135;0.0112
0000378341;4.6783;1.3719;-0.3136;-0.0187;-0.1176;0.0124
0000378354;4.3910;1.5610;-0.4334;0.0321;-0.1198;0.0057
0000378363;4.6017;1.9513;-0.5507;0.0548;-0.1198;-0.0032
0000378375;4.6040;2.2194;-0.4956;0.0521;-0.1086;-0.0040
0000378384;4.6424;2.5091;-0.3448;0.0211;-0.1071;0.0079
0000378452;3.9840;2.8108;-0.1963;0.0550;-0.2807;0.1139
0000378461;3.8211;3.5123;0.2873;0.0123;-0.3011;0.1134
0000378470;4.0294;3.9385;0.2418;-0.0697;-0.3155;0.1074
0000378482;4.6974;3.9049;0.1365;-0.1596;-0.3171;0.0743
0000378491;5.0805;3.5602;0.1101;-0.1761;-0.2970;0.0340
0000378504;5.3056;2.9018;-0.0287;-0.1296;-0.2196;0.0119
0000378513;5.6024;2.9425;0.1389;-0.0665;-0.1732;0.0228
0000378525;5.1475;3.0215;0.0192;0.0377;-0.1260;0.0504
0000378534;4.8123;3.4788;-0.3280;0.1063;-0.0855;0.0805
0000378547;4.8459;4.6064;-0.7709;0.1451;-0.0512;0.1136
0000378556;4.7669;5.1140;-0.5028;0.0915;-0.0496;0.1278
0000378565;4.6950;5.1332;-0.2322;-0.0084;-0.0485;0.1323
0000378577;4.9225;4.6831;-0.1293;-0.1223;-0.0640;0.1045
0000378586;4.7357;3.6440;-0.2610;-0.1444;-0.0441;0.0743
0000378599;4.7046;2.9425;-0.4453;-0.1067;0.0009;0.0184
0000378608;4.5490;3.0837;-0.6129;-0.0620;0.0322;0.0155
0000378620;4.2497;3.8355;-0.4812;-0.0262;0.0465;0.0634
0000378629;4.2593;4.4149;-0.4693;-0.0266;0.0501;0.1262
0000378638;4.1731;4.6232;-0.3974;-0.0536;0.0421;0.1665
0000378652;4.5250;4.5011;-0.3855;-0.0994;0.0364;0.1964
0000378661;4.7621;4.1468;-0.3424;-0.1067;0.0448;0.1867
0000378674;4.8339;3.7230;-0.4190;-0.0889;0.0666;0.1410
0000378683;4.9225;3.6703;-0.1101;-0.0799;0.0825;0.1047
0000378752;4.4748;4.0654;-0.2705;-0.1175;-0.0530;0.0730
0000378761;4.1731;3.4596;-0.2251;-0.1244;-0.1011;0.0341
0000378774;4.1372;3.0119;-0.0694;-0.1212;-0.1418;-0.0168
0000378783;3.9385;2.7342;-0.2849;-0.0961;-0.1665;-0.0524
0000378792;4.0342;2.8826;-0.3663;-0.0874;-0.1763;-0.0498
0000378804;4.4676;3.3926;-0.2298;-0.0794;-0.2012;-0.0274
0000378813;4.6902;3.5698;-0.2298;-0.0945;-0.1936;0.0103
0000378826;5.1020;3.6464;-0.2490;-0.0989;-0.1705;0.0356
0000378835;5.5641;3.7014;-0.2873;-0.0903;-0.1508;0.0418
0000378847;5.4444;3.3040;-0.0766;-0.0981;-0.1019;0.0525
0000378856;5.6024;3.2872;-0.0335;-0.1010;-0.0846;0.0508
0000378869;5.1643;2.9808;0.1101;-0.0987;-0.0659;0.0421
0000378878;4.8219;2.7533;-0.0622;-0.0770;-0.0585;0.0318
0000378887;4.4748;2.9353;0.1269;-0.0494;-0.0522;0.0265
0000378899;4.4532;3.2801;0.0551;-0.0317;-0.0636;0.0312
0000378908;4.6615;3.5889;0.0670;-0.0201;-0.0699;0.0458
0000378921;4.6759;3.7086;0.1820;-0.0073;-0.0822;0.0606
0000378930;4.8722;3.7206;0.0982;-0.0009;-0.0938;0.0590
0000378942;4.9919;3.3160;0.1365;-0.0131;-0.1051;0.0562
0000378951;4.8602;2.8180;0.1652;-0.0160;-0.1154;0.0478
0000379017;5.1978;4.5107;0.2993;-0.0825;-0.1211;-0.1019
0000379026;5.1212;4.1755;0.3998;-0.0557;-0.1203;-0.1119
0000379035;5.3199;4.0055;0.4717;-0.0220;-0.1088;-0.1179
0000379047;4.9943;3.4884;0.6249;0.0222;-0.1058;-0.1320
0000379056;4.9225;3.3734;0.3424;0.0564;-0.1054;-0.1612
0000379069;4.5825;3.2920;0.0287;0.0837;-0.0801;-0.1692
0000379078;4.3814;3.5291;-0.1915;0.0773;-0.0613;-0.1620
0000379090;4.4963;3.9169;-0.1580;0.0584;-0.0510;-0.1402
0000379099;4.5610;3.9265;-0.0838;0.0358;-0.0433;-0.1154
0000379112;4.8171;3.7373;0.1580;0.0180;-0.0424;-0.0897
0000379121;4.9105;3.3184;0.4190;0.0075;-0.0349;-0.0723
0000379130;5.1811;3.0622;0.4573;0.0157;-0.0364;-0.0673
0000379142;5.2050;2.7964;0.7374;0.0071;-0.0324;-0.0580
0000379151;5.2289;2.4660;0.7638;0.0028;-0.0320;-0.0636
0000379164;5.0470;2.3535;0.8092;0.0004;-0.0167;-0.0941
0000379173;5.1427;2.3415;0.7470;0.0069;-0.0073;-0.1114
0000379185;5.2313;2.4134;0.5650;0.0161;0.0049;-0.1300
0000379194;5.2984;2.6360;0.3879;0.0284;0.0040;-0.1460
0000379203;5.6288;3.0143;0.3304;0.0193;0.0248;-0.1411
0000379216;5.6599;3.4548;0.4501;-0.0168;0.0340;-0.1254
0000379225;5.7317;3.7182;0.6273;-0.0457;0.0350;-0.1007
0000379237;5.9400;3.7709;0.5411;-0.0480;0.0529;-0.0648
0000379246;5.6503;3.4357;0.6033;-0.0393;0.0596;-0.0517
0000379312;5.3678;3.5530;0.0527;0.1446;0.0565;-0.0369
0000379321;5.2672;3.5195;0.0263;0.1220;0.0669;-0.0226
0000379333;5.3510;3.4117;0.1700;0.1248;0.0757;-0.0121
0000379342;5.3079;3.5458;0.1389;0.1162;0.0882;0.0004
0000379351;5.4444;3.7589;0.1963;0.1087;0.0842;0.0019
0000379364;5.0566;3.6320;0.2131;0.1013;0.0793;0.0055
0000379373;5.3486;3.8140;0.3304;0.1092;0.0685;0.0016
0000379385;5.1547;3.7852;0.3687;0.0893;0.0561;-0.0016
0000379394;4.9608;3.6224;0.3424;0.0658;0.0380;0.0067
0000379403;5.0518;3.5171;0.4741;0.0485;0.0273;0.0103
0000379416;5.2481;3.4740;0.5267;0.0020;0.0313;0.0321
0000379425;5.4348;3.3782;0.3496;-0.0117;0.0353;0.0350
0000379437;5.5354;3.1340;0.4357;-0.0258;0.0489;0.0574
0000379446;5.4923;3.1101;0.3998;-0.0356;0.0596;0.0593
0000379459;5.2816;2.8228;0.4812;-0.0450;0.0719;0.0682
0000379468;5.2625;2.6911;0.5626;-0.0432;0.0806;0.0745
0000379477;5.1978;2.6025;0.7063;-0.0380;0.0833;0.0814
0000379489;5.2146;2.4373;0.6656;-0.0040;0.0715;0.0737
0000379498;5.2529;2.2146;0.5459;0.0240;0.0698;0.0648
0000379511;5.3271;2.0351;0.2418;0.0713;0.0723;0.0341
0000379520;5.5234;2.2960;0.0982;0.1037;0.0774;0.0144
0000379532;5.2361;2.3080;0.0670;0.1243;0.0866;-0.0076
0000379541;5.3439;2.5905;-0.0646;0.1251;0.0991;-0.0091
0000379550;5.4372;2.4708;-0.2610;0.1083;0.1219;-0.0132
0000379616;5.7078;1.4054;-0.0862;-0.0493;0.2581;-0.0127
0000379625;5.8921;1.3288;-0.0096;-0.0529;0.2717;-0.0037
0000379637;5.9113;1.0247;-0.0503;-0.0505;0.2916;0.0043
0000379646;5.5067;0.5459;-0.1460;-0.0332;0.2971;0.0011
0000379659;5.7078;0.5483;-0.3687;-0.0016;0.3214;-0.0043
0000379668;5.6096;0.3807;-0.4621;0.0159;0.3457;0.0045
0000379680;5.6096;0.3903;-0.3639;0.0514;0.3509;0.0033
0000379689;5.4851;0.3879;-0.4549;0.0770;0.3625;0.0153
0000379698;5.4708;0.2155;-0.5890;0.1119;0.3685;0.0117
0000379711;5.2457;0.4812;-0.7709;0.1807;0.3681;0.0087
0000379720;5.2385;1.0415;-1.1995;0.2330;0.3764;-0.0065
0000379732;4.6567;2.0494;-1.5347;0.2738;0.3760;-0.0273
0000379741;4.5179;3.2106;-1.4916;0.2630;0.3665;-0.0534
0000379754;4.3622;4.6831;-0.9625;0.1510;0.3372;-0.0957
0000379763;4.3311;5.1284;-0.8188;0.0060;0.2906;-0.0941
0000379772;4.3455;4.8578;-0.7781;-0.1235;0.2346;-0.0789
0000379784;4.5897;4.1108;-0.8787;-0.2185;0.1775;-0.0430
0000379793;4.6974;3.2777;-0.8667;-0.2184;0.1719;-0.0159
0000379806;4.9416;2.7653;-0.9218;-0.1143;0.1704;-0.0088
0000379815;5.2672;2.8012;-0.8045;-0.0274;0.1962;-0.0229
0000379827;5.3151;3.4716;-0.9864;0.0396;0.2168;-0.0585
0000379836;5.2433;4.0223;-0.7183;0.0268;0.2309;-0.0730
0000379903;4.9129;3.2489;-0.8859;-0.0765;0.2294;0.0317
0000379912;4.8076;3.4237;-0.8787;-0.0270;0.2222;0.0193
0000379921;4.7333;3.7685;-0.9313;-0.0112;0.2268;0.0183
0000379933;4.5945;4.0318;-0.9816;-0.0065;0.2205;-0.0103
0000379942;4.5274;4.3958;-1.0774;-0.0147;0.2144;-0.0353
0000379955;4.2114;4.3215;-0.9553;-0.0462;0.2032;-0.0682
0000379964;4.3359;4.0797;-0.8667;-0.0578;0.1856;-0.0901
0000379976;4.5586;3.9193;-0.8930;-0.0569;0.1683;-0.0991
0000379985;4.4915;3.5937;-0.9002;-0.0365;0.1580;-0.0926
0000379998;4.3574;3.3591;-1.0247;-0.0091;0.1398;-0.0847
0000380007;4.4269;3.5506;-1.0678;0.0035;0.1152;-0.0781
0000380016;4.3359;3.6536;-0.9864;-0.0145;0.0886;-0.0771
0000380028;4.2162;3.8379;-0.9888;-0.0418;0.0340;-0.0851
0000380037;4.1252;3.9265;-0.9816;-0.0626;-0.0152;-0.0973
0000380050;4.0342;3.9528;-0.8763;-0.0791;-0.0770;-0.1041
0000380059;4.0869;3.8738;-0.7422;-0.0878;-0.1222;-0.1130
0000380071;4.3646;3.8618;-0.7111;-0.1140;-0.1677;-0.1090
0000380080;4.6950;3.7565;-0.6895;-0.1215;-0.1892;-0.0909
0000380093;4.9297;3.5985;-0.8428;-0.1242;-0.2014;-0.0779
0000380102;5.1404;3.3950;-0.8164;-0.1191;-0.2053;-0.0762
0000380111;5.3606;3.7230;-0.7805;-0.1126;-0.1759;-0.0685
0000380123;4.9392;3.3734;-0.8045;-0.0853;-0.1316;-0.0910
0000380132;4.7932;3.7062;-0.8260;-0.0789;-0.0949;-0.0823
0000380200;5.0254;3.5027;-0.4741;-0.0829;-0.1651;0.0428
0000380209;4.6232;3.7302;-0.6225;-0.0568;-0.1907;-0.0108
0000380222;4.0773;4.1108;-0.6871;-0.0893;-0.1872;-0.0667
0000380231;3.8595;4.3407;-0.5531;-0.1343;-0.2033;-0.0773
0000380243;4.0223;4.4939;-0.3184;-0.2086;-0.2054;-0.0406
0000380252;4.0749;3.9935;-0.0766;-0.2729;-0.2072;0.0125
0000380265;4.8052;3.2010;-0.2394;-0.3062;-0.1981;0.0778
0000380274;5.2289;2.6169;-0.6009;-0.2546;-0.1711;0.1046
0000380283;5.6910;2.6193;-0.9242;-0.1851;-0.1379;0.0917
0000380295;5.5761;3.0694;-0.8547;-0.1228;-0.0839;0.0365
0000380304;5.3295;3.8451;-0.5459;-0.1200;-0.0625;-0.0056
0000380317;4.5059;4.4604;0.1820;-0.1884;-0.0722;-0.0176
0000380326;4.0941;4.7788;0.6057;-0.2224;-0.1078;0.0015
0000380338;3.4740;4.4221;1.1516;-0.2481;-0.1729;0.0453
0000380347;3.5051;3.9528;1.1325;-0.2146;-0.2217;0.0778
0000380360;4.0247;3.2801;1.1229;-0.1176;-0.2587;0.0831
0000380369;4.4269;3.0311;0.8140;-0.0237;-0.2746;0.0561
0000380378;4.7022;2.9473;0.4238;0.0249;-0.2785;0.0236
0000380390;4.6950;3.1244;0.2107;0.0262;-0.2927;-0.0273
0000380399;4.8315;3.1220;0.2274;-0.0123;-0.2992;-0.0513
0000380412;4.9440;3.0358;0.2155;-0.0628;-0.3146;-0.0930
0000380421;4.8937;3.0813;0.3232;-0.0858;-0.3168;-0.1074
0000380489;4.9512;3.0502;0.6680;0.0440;-0.3559;-0.0400
0000380498;4.9225;3.0143;0.6967;0.0542;-0.3535;-0.0509
0000380507;4.8219;3.1101;0.6943;0.0568;-0.3417;-0.0489
0000380520;4.8004;3.2825;0.6201;0.0710;-0.3395;-0.0565
0000380529;4.5418;3.4141;0.7901;0.0606;-0.3341;-0.0445
0000380541;4.3934;3.3351;1.0630;0.0373;-0.3507;-0.0493
0000380550;4.4173;3.2896;1.0487;0.0474;-0.3702;-0.0612
0000380563;4.7429;3.0837;0.7374;0.0584;-0.3925;-0.0652
0000380572;4.9632;3.0358;0.7494;0.0644;-0.3926;-0.0671
0000380584;5.0518;2.8395;0.7254;0.0818;-0.4046;-0.0798
0000380593;5.1906;2.9090;0.6632;0.0823;-0.3916;-0.0855
0000380602;5.0039;2.8084;0.5507;0.0839;-0.3753;-0.0958
0000380615;5.0494;2.7869;0.5770;0.0593;-0.3313;-0.0902
0000380624;5.2720;2.9233;0.4908;0.0421;-0.2976;-0.0782
0000380636;5.2601;3.1388;0.5076;0.0179;-0.2462;-0.0645
0000380645;5.0566;2.9521;0.6536;0.0083;-0.2157;-0.0549
0000380658;5.1906;3.3519;0.7422;-0.0025;-0.1617;-0.0314
0000380667;5.1858;3.3136;0.7422;-0.0097;-0.1206;-0.0168
0000380676;5.0398;3.2513;0.7566;-0.0021;-0.0917;-0.0161
0000380688;4.6543;3.1795;0.7542;-0.0040;-0.0501;-0.0131
0000380697;4.7597;3.2106;0.7494;-0.0052;-0.0240;-0.0207
0000380710;4.9249;3.1915;0.6895;-0.0105;0.0141;-0.0155
0000380719;5.0182;3.1987;0.7398;-0.0241;0.0377;-0.0204
0000380787;4.1372;2.8156;0.5124;0.0220;0.0153;-0.1183
0000380796;4.2329;2.9401;0.5650;0.0180;-0.0084;-0.1270
0000380809;4.3598;2.9784;0.6752;0.0127;-0.0400;-0.1342
0000380818;4.2186;2.7054;0.6009;0.0159;-0.0674;-0.1380
0000380827;4.3191;2.6528;0.6225;0.0179;-0.0754;-0.1239
0000380839;4.4293;2.5091;0.4980;0.0381;-0.0902;-0.1126
0000380848;4.5873;2.5857;0.4884;0.0580;-0.1005;-0.1154
0000380861;4.6878;2.9521;0.2586;0.0702;-0.1190;-0.1182
0000380870;4.4317;2.8635;0.3112;0.0670;-0.1232;-0.1107
0000380882;4.5562;2.8826;0.2993;0.0537;-0.1404;-0.1070
0000380891;4.4053;2.8371;0.4070;0.0476;-0.1644;-0.1050
0000380904;4.3981;2.4828;0.5195;0.0325;-0.1724;-0.0946
0000380913;4.5418;2.3415;0.5507;0.0353;-0.1799;-0.0930
0000380922;4.4891;1.8818;0.6488;0.0413;-0.1772;-0.0745
0000380934;4.6017;1.5514;0.6081;0.0622;-0.1739;-0.0701
0000380943;4.7166;1.4700;0.4836;0.0878;-0.1656;-0.0649
0000380956;4.8530;1.3647;0.4070;0.1200;-0.1555;-0.0502
0000380965;4.7142;1.1779;0.3687;0.1300;-0.1612;-0.0520
0000380977;4.6448;0.9840;0.0551;0.1434;-0.1547;-0.0398
0000380986;4.5993;0.8452;-0.1413;0.1620;-0.1576;-0.0256
0000380995;4.2904;0.7183;-0.4286;0.1824;-0.1748;-0.0016
0000381008;4.5035;1.0774;-0.1365;0.1740;-0.2002;0.0428
0000381017;4.4269;1.2282;-0.2011;0.1559;-0.2080;0.0384
0000381086;5.1451;1.9824;-0.2155;-0.0238;-0.1316;0.0084
0000381095;4.5035;1.8603;-0.2777;-0.0348;-0.1288;0.0409
0000381108;4.2593;1.7358;-0.3184;-0.0504;-0.1194;0.0632
0000381117;4.3311;1.6999;-0.1197;-0.0493;-0.0878;0.0612
0000381129;4.8602;1.5802;-0.4262;0.0083;-0.0316;0.0433
0000381138;5.0398;1.7693;-0.6632;0.0538;0.0196;0.0230
0000381147;5.3917;2.1668;-0.7829;0.1015;0.0729;0.0087
0000381160;5.1475;3.1819;-0.6752;0.1142;0.1291;0.0140
0000381169;4.8459;3.5027;-0.6081;0.0817;0.1536;0.0420
0000381181;4.7142;3.8044;-0.5411;0.0115;0.1547;0.0853
0000381190;4.5035;3.3950;-0.4429;-0.0312;0.1435;0.1235
0000381203;4.2976;2.8108;-0.9960;-0.0329;0.1575;0.1544
0000381212;4.6998;2.8826;-1.0989;0.0051;0.1851;0.1688
0000381221;4.7956;3.3854;-0.5387;0.0322;0.2114;0.1962
0000381233;4.7309;3.9672;-0.4932;0.0890;0.2510;0.2570
0000381242;4.8578;4.6926;-0.5195;0.1262;0.2731;0.2959
0000381255;4.9321;5.1882;-0.4693;0.1371;0.2963;0.3263
0000381264;4.7525;5.1332;-0.5626;0.1172;0.3024;0.3090
0000381276;5.1116;4.8890;-0.8045;0.0530;0.3184;0.2575
0000381285;4.8890;4.4676;-0.8404;0.0011;0.3122;0.2040
0000381294;4.6232;4.0606;-0.5962;-0.0314;0.2811;0.1488
0000381307;4.2210;3.8762;-0.2346;-0.0805;0.2354;0.1127
0000381316;3.8571;3.6057;-0.4094;-0.0751;0.1981;0.0911
0000381385;4.4724;3.1364;-0.6967;-0.0865;-0.0314;0.0917
0000381394;4.6400;3.0263;-1.0606;-0.0305;0.0053;0.0754
0000381407;4.5155;3.6392;-1.0606;0.0506;0.0510;0.0930
0000381416;4.5538;4.3072;-0.8715;0.0598;0.0674;0.1146
0000381428;4.8004;4.7381;-0.5890;0.0159;0.0737;0.1199
0000381437;5.0350;4.7549;-0.5722;-0.0286;0.0806;0.1039
0000381446;5.2289;4.2186;-0.5435;-0.0650;0.1078;0.0801
0000381459;5.3534;3.4979;-0.5148;-0.0859;0.1378;0.0108
0000381468;4.9512;2.9592;-0.5483;-0.0770;0.1772;-0.0201
0000381480;4.7956;3.2920;-0.6512;-0.0422;0.2118;-0.0468
0000381489;4.6424;3.6464;-0.3950;-0.0341;0.2274;-0.0454
0000381502;4.8459;4.1659;-0.3998;-0.0260;0.2200;-0.0349
0000381511;4.8818;4.4700;-0.2753;-0.0394;0.2104;-0.0320
0000381520;4.7836;4.3527;-0.2251;-0.0622;0.1868;-0.0412
0000381532;4.8076;3.8068;-0.0455;-0.0827;0.1611;-0.0468
0000381541;4.8052;3.0406;0.1652;-0.0899;0.1555;-0.0393
0000381554;4.7788;2.5786;0.1820;-0.0814;0.1288;-0.0376
0000381563;4.6855;2.4205;-0.0144;-0.0685;0.1232;-0.0502
0000381575;4.6088;2.9233;-0.3950;-0.0276;0.1307;-0.0826
0000381584;4.8722;3.8211;-0.2059;-0.0298;0.1348;-0.0838
0000381598;4.7669;4.4556;0.0622;-0.0658;0.1211;-0.0805
0000381607;4.9321;4.6040;0.1676;-0.0935;0.1142;-0.0665
0000381616;4.6998;4.3814;0.1580;-0.1065;0.1035;-0.0628
0000381685;4.6615;3.9863;-0.2514;0.0221;-0.0705;-0.1014
0000381694;4.6471;4.0294;-0.3017;-0.0001;-0.1095;-0.0749
0000381706;4.6208;3.9289;-0.0958;-0.0509;-0.1487;-0.0534
0000381715;4.5873;3.3902;-0.0479;-0.0742;-0.1729;-0.0452
0000381728;4.6687;3.1867;0.1820;-0.0675;-0.2157;-0.0670
0000381737;4.4460;2.8922;0.2107;-0.0677;-0.2262;-0.0757
0000381749;4.4221;2.9616;0.0814;-0.0476;-0.2268;-0.1107
0000381758;4.6256;3.1963;-0.0982;-0.0381;-0.2093;-0.1290
0000381767;4.7788;3.2801;-0.2562;-0.0258;-0.1913;-0.1482
0000381780;5.3678;3.6296;-0.2394;-0.0208;-0.1103;-0.1348
0000381789;5.4157;3.4931;-0.1700;-0.0286;-0.0521;-0.1119
0000381801;5.5833;3.1149;0.2251;-0.0156;0.0183;-0.1021
0000381810;5.6048;2.9281;0.2107;-0.0005;0.0707;-0.0851
0000381823;5.3654;2.5067;0.4573;0.0461;0.1077;-0.0913
0000381832;4.7094;2.1596;0.3089;0.0657;0.1200;-0.0955
0000381844;4.4173;2.5786;0.4884;0.0859;0.1055;-0.1095
0000381853;4.2713;2.6791;0.4573;0.0843;0.0766;-0.1275
0000381862;4.1276;2.7270;0.4980;0.0699;0.0434;-0.1383
0000381875;4.4317;2.7677;0.2777;0.0497;0.0129;-0.1396
0000381884;4.6543;2.9544;0.2993;0.0470;-0.0019;-0.1398
0000381896;4.9584;3.2872;0.4812;0.0458;-0.0017;-0.1247
0000381905;5.3941;3.6512;0.4453;0.0478;-0.0020;-0.0993
0000381974;4.9656;3.0933;0.2634;0.0793;-0.1239;0.0104
0000381983;5.0470;3.0909;0.2346;0.1003;-0.1228;0.0352
0000381992;4.9632;2.9329;0.1030;0.1280;-0.1350;0.0528
0000382004;5.1667;3.1939;0.0024;0.1480;-0.1472;0.0580
0000382013;5.1356;3.2274;-0.0192;0.1484;-0.1450;0.0590
0000382026;5.1260;3.3686;-0.3519;0.1792;-0.1580;0.0434
0000382035;4.8291;3.4453;-0.3807;0.1779;-0.1635;0.0373
0000382047;4.5753;3.5267;-0.2825;0.1556;-0.1895;0.0254
0000382056;4.4987;3.8475;-0.3687;0.1238;-0.2082;0.0325
0000382069;4.4317;3.8403;-0.2227;0.0701;-0.2304;0.0401
0000382078;4.6543;3.9193;-0.0886;0.0433;-0.2510;0.0457
0000382087;4.7477;3.8331;-0.1053;0.0224;-0.2593;0.0468
0000382099;4.8530;3.2872;-0.0215;0.0132;-0.2526;0.0624
0000382108;4.9656;3.2322;0.0120;0.0274;-0.2481;0.0667
0000382121;4.9991;2.9975;-0.0048;0.0420;-0.2141;0.0854
0000382130;4.9919;3.1316;-0.0120;0.0493;-0.1951;0.0959
0000382142;4.8004;2.9975;-0.0910;0.0195;-0.1636;0.1124
0000382151;4.8291;3.0742;-0.1125;-0.0081;-0.1428;0.1156
0000382160;4.9871;3.3136;0.0527;-0.0517;-0.1302;0.1215
0000382173;4.8507;3.0167;0.1030;-0.0959;-0.1238;0.1194
0000382182;4.7453;2.6360;0.1460;-0.0913;-0.1156;0.1082
0000382194;4.8794;2.2960;0.1077;-0.0480;-0.1023;0.0867
0000382203;4.8315;2.1284;0.0120;-0.0057;-0.0883;0.0653
0000382272;5.2840;2.4756;-0.2801;0.0597;-0.0312;-0.0390
0000382281;5.3678;2.3942;-0.2682;0.0528;-0.0273;-0.0426
0000382293;5.4923;2.3367;-0.1413;0.0493;-0.0147;-0.0528
0000382302;5.3534;1.9896;-0.0120;0.0512;0.0019;-0.0468
0000382311;5.5091;1.9992;0.0670;0.0616;0.0229;-0.0549
0000382324;5.5761;1.6640;-0.0311;0.1110;0.0629;-0.0541
0000382333;5.5258;1.3312;-0.3472;0.1342;0.0973;-0.0358
0000382345;5.8897;1.5874;-0.4836;0.1495;0.1286;-0.0225
0000382354;5.9735;1.5060;-0.4357;0.1275;0.1439;-0.0152
0000382367;6.0358;1.2953;-0.6416;0.0669;0.1811;-0.0097
0000382376;6.0118;1.3336;-0.6488;0.0163;0.1961;0.0008
0000382385;5.9041;0.9792;-0.6081;-0.0401;0.2117;0.0268
0000382397;5.8634;0.6608;-0.4262;-0.0725;0.2121;0.0516
0000382406;5.7533;0.4310;-0.5483;-0.0597;0.2136;0.0678
0000382419;5.5498;0.1030;-1.0032;0.0035;0.2110;0.0918
0000382428;5.1882;0.1580;-1.3120;0.0608;0.2018;0.1065
0000382440;5.0661;0.8212;-1.4389;0.1298;0.1932;0.1018
0000382449;4.7453;1.4653;-1.4700;0.1520;0.1747;0.0746
0000382458;4.7309;2.2673;-1.2522;0.1360;0.1624;0.0450
0000382471;4.9321;3.2801;-0.5483;0.0978;0.1359;-0.0244
0000382480;4.7621;3.6129;-0.4094;0.0633;0.0926;-0.0853
0000382492;4.9752;3.2226;-0.5650;0.0621;0.0570;-0.1427
0000382501;5.0111;2.7677;-0.7422;0.1019;0.0337;-0.1815
0000382570;4.5729;3.6775;-1.0199;0.0585;-0.0663;-0.1311
0000382579;4.4365;3.4548;-1.1588;0.0598;-0.0777;-0.1411
0000382591;4.4269;3.5291;-1.3288;0.0835;-0.0726;-0.1543
0000382600;4.5681;3.8954;-1.3767;0.0942;-0.0739;-0.1588
0000382609;4.6855;4.3718;-1.0702;0.0629;-0.0694;-0.1540
0000382622;4.5993;4.1132;-0.9864;-0.0067;-0.0774;-0.1299
0000382631;5.0733;3.9528;-1.2019;-0.0346;-0.0866;-0.0957
0000382643;5.2218;3.6224;-1.4078;-0.0326;-0.0898;-0.0437
0000382652;5.3127;3.6919;-1.6113;-0.0005;-0.0717;-0.0187
0000382665;5.2816;4.2856;-1.5682;0.0536;-0.0325;-0.0298
0000382674;5.0278;4.6424;-1.5921;0.0735;-0.0029;-0.0590
0000382686;4.8890;5.1763;-1.5778;0.0428;0.0390;-0.0857
0000382695;4.6017;5.1068;-1.4246;-0.0164;0.0514;-0.0873
0000382704;4.4125;4.4604;-1.1947;-0.0921;0.0585;-0.0590
0000382717;4.6902;3.6105;-1.3623;-0.1327;0.0510;-0.0065
0000382726;4.9033;2.8754;-1.2785;-0.1096;0.0585;0.0340
0000382738;5.3223;2.6887;-1.6376;-0.0436;0.0862;0.0637
0000382747;5.4420;2.9425;-1.7526;0.0131;0.0987;0.0569
0000382760;5.4037;4.0247;-1.9106;0.0257;0.1294;0.0328
0000382769;5.0015;4.4341;-1.7789;-0.0264;0.1486;0.0088
0000382781;4.7166;4.6448;-1.5323;-0.1274;0.1415;-0.0238
0000382790;4.4628;4.1372;-1.5682;-0.1915;0.1434;-0.0281
0000382799;4.3862;3.8068;-1.4485;-0.2152;0.1287;-0.0409
0000382868;4.7501;4.0582;-0.4860;-0.1124;-0.0557;-0.0566
0000382877;4.5274;3.8858;-0.2801;-0.1159;-0.0662;-0.0498
0000382889;4.2737;3.4117;-0.1460;-0.0993;-0.0745;-0.0077
0000382898;4.6064;3.3375;-0.4334;-0.0761;-0.0826;0.0240
0000382911;4.8195;3.4979;-0.8260;-0.0265;-0.0973;0.0505
0000382920;4.8387;3.9313;-0.8523;-0.0258;-0.0898;0.0313
0000382934;4.7788;4.6974;-1.0295;-0.0691;-0.0830;-0.0292
0000382943;4.4987;4.7453;-1.0942;-0.1143;-0.0729;-0.0513
0000382952;4.2737;4.6663;-1.1516;-0.1388;-0.0671;-0.0662
0000382965;4.0414;4.0630;-1.2881;-0.1564;-0.0538;-0.0464
0000382974;4.4628;3.9600;-1.1779;-0.1551;-0.0394;-0.0200
0000382986;4.6974;3.5889;-1.1133;-0.1468;-0.0358;-0.0052
0000382995;4.9081;3.2681;-1.1372;-0.1330;-0.0272;0.0045
0000383008;4.9512;3.0478;-1.6520;-0.0967;0.0045;0.0124
0000383017;5.1571;3.2968;-1.8986;-0.0701;0.0143;0.0087
0000383029;4.8961;3.8618;-1.6783;-0.0377;-0.0041;-0.0136
0000383038;4.2306;4.2784;-1.3767;-0.0276;-0.0414;-0.0394
0000383107;6.3638;1.9872;-0.1700;0.1641;-0.1953;0.1220
0000383116;7.1275;1.9920;-0.4956;0.1424;-0.0871;0.1399
0000383125;7.2472;2.0901;-0.4334;0.1071;0.0165;0.1641
0000383137;7.1491;2.6791;-0.1844;0.0233;0.1660;0.1985
0000383146;6.7828;3.1556;0.0886;-0.0438;0.2611;0.2128
0000383160;5.8347;3.8523;0.4908;-0.1395;0.3684;0.2129
0000383169;5.0398;3.9097;0.6632;-0.1593;0.3912;0.2073
0000383182;4.3048;4.0390;0.6081;-0.1547;0.3830;0.1693
0000383191;3.6919;3.9217;0.6057;-0.1378;0.3281;0.1315
0000383200;3.6105;3.7565;0.6680;-0.1163;0.2689;0.1031
0000383212;3.5554;2.9760;0.4860;-0.0722;0.1776;0.0466
0000383221;4.0582;2.5738;0.0910;-0.0218;0.1178;-0.0012
0000383234;4.6184;2.5259;-0.1987;0.0477;0.0308;-0.0778
0000383243;4.8483;2.6911;-0.3879;0.0767;-0.0185;-0.1399
0000383255;4.7453;3.0622;-0.3400;0.0697;-0.0737;-0.2106
0000383264;4.8770;3.5530;-0.3208;0.0306;-0.0837;-0.2489
0000383273;4.4987;3.6799;-0.2945;0.0129;-0.0879;-0.2819
0000383286;4.2425;3.8451;-0.3089;-0.0132;-0.0729;-0.2894
0000383295;4.2593;3.8618;-0.2873;-0.0201;-0.0416;-0.2729
0000383307;4.4604;3.9337;-0.5076;0.0004;-0.0015;-0.2597
0000383316;4.7836;3.9361;-0.3998;-0.0004;0.0430;-0.2316
0000383329;5.0733;4.0462;-0.5004;-0.0131;0.1037;-0.1907
0000383338;4.9177;3.9265;-0.5339;-0.0465;0.1532;-0.1498
0000383408;3.6392;2.8467;-0.2801;-0.0513;0.0939;-0.0890
0000383417;3.8834;2.9473;-0.2945;-0.0236;0.0374;-0.0819
0000383430;3.7038;2.7701;-0.4932;-0.0211;-0.0409;-0.0686
0000383439;4.0582;3.0646;-0.3807;-0.0424;-0.0803;-0.0636
0000383448;4.1348;2.9544;-0.3950;-0.0546;-0.1230;-0.0701
0000383460;4.2401;2.8994;-0.1772;-0.0729;-0.1652;-0.0850
0000383469;4.3814;2.7390;0.0072;-0.0849;-0.1793;-0.0869
0000383482;4.5610;2.4612;0.0790;-0.0560;-0.2016;-0.1174
0000383491;4.4987;1.9968;0.1125;-0.0216;-0.2000;-0.1304
0000383503;4.7405;1.9130;-0.0646;0.0390;-0.2040;-0.1480
0000383512;4.6352;1.6903;-0.3280;0.0730;-0.1921;-0.1455
0000383525;4.5394;1.7573;-0.5938;0.1055;-0.1743;-0.1406
0000383534;4.6807;1.8627;-0.5578;0.1175;-0.1720;-0.1300
0000383543;4.5777;2.2003;-0.4142;0.1226;-0.1549;-0.1091
0000383555;4.4125;1.9106;-0.5890;0.1363;-0.1508;-0.0786
0000383564;4.3215;1.9609;-0.7207;0.1528;-0.1565;-0.0702
0000383577;4.1228;2.0087;-0.8715;0.1555;-0.1681;-0.0588
0000383586;4.1084;2.2075;-0.6488;0.1332;-0.1767;-0.0472
0000383598;4.0486;1.9513;-0.4525;0.0937;-0.2072;-0.0318
0000383607;4.1061;2.0351;-0.4884;0.0758;-0.2286;-0.0344
0000383620;4.4173;1.8244;-0.5195;0.0570;-0.2598;-0.0168
0000383629;4.4508;1.7454;-0.4286;0.0493;-0.2799;0.0113
0000383638;4.7357;1.9082;-0.4238;0.0450;-0.3107;0.0269
0000383706;4.7812;1.1109;-0.3735;-0.1929;-0.4068;0.0136
0000383715;4.8483;1.0678;-0.5219;-0.1913;-0.3785;0.0164
0000383728;4.6974;1.1516;-0.5267;-0.1438;-0.3424;0.0260
0000383737;4.7429;1.5802;-0.2658;-0.0975;-0.3156;0.0442
0000383749;4.8147;2.0542;-0.1221;-0.0600;-0.2765;0.0671
0000383758;4.9153;2.2290;-0.3615;-0.0365;-0.2605;0.0702
0000383771;4.8459;2.3391;-0.3783;-0.0374;-0.2312;0.0610
0000383780;4.8866;2.2362;-0.3711;-0.0653;-0.2029;0.0357
0000383789;4.9129;2.0734;-0.5387;-0.0626;-0.1801;-0.0025
0000383801;4.5514;1.7789;-0.9313;-0.0252;-0.1470;-0.0338
0000383810;4.5370;1.9058;-1.2378;0.0077;-0.1171;-0.0344
0000383823;4.2377;2.6432;-1.2019;0.0224;-0.0995;-0.0301
0000383832;4.3072;3.3543;-1.0774;0.0049;-0.0895;-0.0127
0000383844;4.4388;3.9959;-1.0319;-0.0502;-0.0934;0.0041
0000383853;4.6328;4.2353;-0.9218;-0.1075;-0.0875;0.0286
0000383866;4.6112;3.9744;-0.7470;-0.1625;-0.0722;0.0428
0000383875;4.5562;3.5961;-0.8356;-0.1636;-0.0602;0.0490
0000383884;4.4293;3.3662;-0.9194;-0.1366;-0.0530;0.0457
0000383896;4.4676;3.5267;-1.0415;-0.0955;-0.0318;0.0365
0000383905;4.3311;4.0031;-0.6800;-0.0885;-0.0421;0.0446
0000383918;4.0486;4.1659;-0.3065;-0.1187;-0.0873;0.0661
0000383927;3.8954;4.0510;-0.3687;-0.1388;-0.1208;0.0746
0000383995;4.5203;4.5394;-0.9385;-0.0229;-0.2072;0.0743
0000384004;4.6855;4.9440;-0.7542;-0.0803;-0.1920;0.0469
0000384017;4.5729;4.8004;-0.6440;-0.1671;-0.1784;0.0120
0000384026;4.5322;4.4772;-0.6225;-0.2053;-0.1623;-0.0020
0000384035;4.2665;4.0558;-0.5818;-0.2118;-0.1463;-0.0064
0000384047;4.3886;3.8068;-0.7661;-0.1612;-0.1198;-0.0189
0000384056;4.6591;3.9648;-0.9577;-0.0975;-0.1088;-0.0173
0000384069;4.4125;3.8762;-0.9577;-0.0461;-0.0861;-0.0104
0000384078;4.8100;4.2665;-1.2067;-0.0329;-0.0797;-0.0148
0000384090;4.9033;4.3527;-1.1085;-0.0478;-0.0640;-0.0356
0000384099;5.0637;4.4532;-0.9002;-0.0894;-0.0450;-0.0416
0000384112;4.9656;4.2114;-0.6728;-0.1427;-0.0406;-0.0545
0000384121;4.7621;3.8355;-0.6249;-0.1705;-0.0123;-0.0510
0000384133;4.6783;3.7182;-0.4094;-0.1797;0.0256;-0.0466
0000384142;4.8483;3.9672;-0.1460;-0.1741;0.0661;-0.0433
0000384151;4.9967;4.0558;-0.0527;-0.1492;0.1011;-0.0549
0000384164;4.9823;4.0438;-0.4046;-0.1054;0.1808;-0.0557
0000384173;5.0206;4.1204;-0.4286;-0.0847;0.2352;-0.0385
0000384185;4.9775;3.8547;-0.4788;-0.0594;0.2850;0.0001
0000384194;4.8147;3.7397;-0.5938;-0.0492;0.3115;0.0270
0000384207;4.3479;2.9233;-0.5722;-0.0348;0.3163;0.0767
0000384216;4.3407;2.5666;-0.7374;-0.0189;0.3091;0.0977
0000384284;4.5777;4.1061;0.2370;-0.0866;0.2503;-0.0986
0000384293;4.4700;4.0438;0.4549;-0.0899;0.2286;-0.0901
0000384302;4.3120;3.5865;0.7685;-0.0893;0.1933;-0.0750
0000384315;4.1922;3.0885;1.0822;-0.0670;0.1176;-0.0910
0000384324;3.9720;2.7725;1.1612;-0.0378;0.0633;-0.1176
0000384336;3.8020;2.4134;1.3336;-0.0048;-0.0043;-0.1844
0000384345;3.9361;2.6049;1.0846;0.0217;-0.0588;-0.2232
0000384358;4.0941;2.9185;0.6488;0.0297;-0.1415;-0.2455
0000384367;3.8379;3.2489;0.6249;0.0080;-0.2041;-0.2419
0000384376;3.9696;3.5602;0.8092;-0.0486;-0.2422;-0.2110
0000384388;4.0941;3.8523;0.9768;-0.1108;-0.2927;-0.1494
0000384397;4.4604;3.7661;0.8811;-0.1343;-0.3111;-0.0933
0000384410;4.7453;3.3686;0.8021;-0.1079;-0.3048;-0.0226
0000384419;5.1260;3.1987;0.6776;-0.0336;-0.2919;0.0171
0000384431;5.4348;3.0047;0.3280;0.1018;-0.2402;0.0663
0000384440;5.6336;2.9449;-0.0982;0.1789;-0.1888;0.0841
0000384453;5.9376;3.4022;-0.5890;0.2266;-0.0861;0.0973
0000384462;6.1507;3.6105;-0.7805;0.2220;-0.0207;0.0997
0000384471;6.1268;3.9911;-0.5794;0.1911;0.0641;0.1172
0000384483;5.8155;3.9816;-0.4764;0.1454;0.1398;0.1354
0000384492;5.6814;4.1707;-0.4166;0.1078;0.1704;0.1391
0000384505;4.9392;3.8810;-0.1389;0.0553;0.1851;0.1427
0000384514;4.6855;3.6559;-0.1077;0.0314;0.1775;0.1510
0000384582;5.1044;3.1675;-0.0168;-0.1376;-0.0718;0.0592
0000384591;5.2648;2.9951;0.1963;-0.1543;-0.0578;0.0617
0000384600;5.6503;2.9377;0.2322;-0.1458;-0.0474;0.0581
0000384613;5.5498;2.6312;0.3687;-0.1282;-0.0117;0.0665
0000384622;5.5976;2.5738;0.3543;-0.1180;0.0141;0.0690
0000384633;5.4947;2.2434;0.2346;-0.0993;0.0444;0.0819
0000384642;5.4731;2.0135;0.1652;-0.0691;0.0648;0.0915
0000384656;5.3726;1.8196;0.0622;-0.0449;0.1007;0.0891
0000384665;5.4923;1.7837;-0.0024;-0.0369;0.1167;0.0757
0000384674;5.3870;1.8507;0.0024;-0.0306;0.1300;0.0648
0000384687;5.5019;1.6879;0.0215;-0.0360;0.1487;0.0561
0000384696;5.3415;1.6688;0.0527;-0.0293;0.1585;0.0425
0000384708;5.5641;1.5323;-0.1293;-0.0365;0.1785;0.0297
0000384717;5.5043;1.4389;-0.3472;-0.0454;0.1982;0.0270
0000384730;5.5929;1.3647;-0.1221;-0.0580;0.2272;0.0203
0000384739;5.4971;1.3527;-0.2346;-0.0830;0.2429;0.0345
0000384751;5.8442;1.2785;-0.0670;-0.1267;0.2647;0.0621
0000384760;5.9999;1.2857;0.1700;-0.1719;0.2848;0.0805
0000384769;6.1339;1.0080;0.2251;-0.2084;0.2934;0.0905
0000384782;6.3997;0.4405;0.0383;-0.2189;0.3316;0.0942
0000384791;6.3949;0.0287;-0.0742;-0.2104;0.3705;0.1122
0000384803;6.4572;-0.3400;-0.3591;-0.1652;0.4004;0.1232
0000384812;6.2632;-0.2538;-0.7063;-0.1163;0.4198;0.1307
0000384879;4.8483;1.7310;-0.4932;-0.0191;0.4222;0.0462
0000384888;5.0877;2.0710;-0.6105;0.0037;0.3858;0.0570
0000384897;5.2505;2.4277;-0.6512;0.0228;0.3523;0.0576
0000384909;5.1858;2.9209;-0.9050;0.0799;0.3269;-0.0063
0000384918;5.1763;3.5291;-0.8475;0.1135;0.3142;-0.0921
0000384931;4.7692;4.3886;-0.7685;0.1172;0.2986;-0.2194
0000384940;4.5610;4.8554;-0.8140;0.1023;0.2670;-0.2834
0000384952;4.0845;5.0470;-0.7326;0.0473;0.2234;-0.2908
0000384961;4.0103;4.9823;-0.8667;-0.0057;0.1840;-0.2563
0000384974;3.9600;4.7166;-0.7709;-0.0950;0.1214;-0.1989
0000384983;4.2282;4.3479;-0.5746;-0.1266;0.0713;-0.1761
0000384992;4.3574;3.9313;-0.4525;-0.1139;0.0418;-0.1576
0000385004;4.6519;3.6943;-0.5914;-0.0546;0.0281;-0.1462
0000385013;4.5538;3.4141;-0.7159;0.0221;0.0145;-0.1387
0000385026;4.6256;3.8642;-1.0558;0.1038;-0.0024;-0.1086
0000385035;4.6735;4.2737;-1.1444;0.1081;-0.0234;-0.0865
0000385047;4.7812;4.7381;-1.1372;0.0540;-0.0430;-0.0638
0000385056;5.1787;4.8315;-1.2761;0.0127;-0.0586;-0.0544
0000385069;5.1906;4.4005;-1.5419;-0.0216;-0.0480;-0.0321
0000385078;5.3822;4.1396;-1.5012;-0.0437;-0.0270;-0.0280
0000385087;5.2744;4.0366;-1.6376;-0.0477;-0.0028;-0.0273
0000385099;5.2241;3.8475;-2.0016;-0.0308;0.0276;-0.0167
0000385108;5.2218;4.0223;-2.1668;-0.0229;0.0521;-0.0171
0000385175;4.3287;4.6136;-1.2306;-0.1412;-0.0941;0.0758
0000385184;4.4652;4.4341;-0.9194;-0.1691;-0.1252;0.0919
0000385196;4.6136;4.7046;-0.3280;-0.1781;-0.1716;0.0970
0000385205;4.4843;4.4484;-0.5028;-0.1589;-0.1980;0.0717
0000385218;4.4532;4.4963;-0.5459;-0.0877;-0.1696;0.0502
0000385227;4.4125;4.7525;-0.4166;-0.0568;-0.1836;0.0544
0000385236;4.4341;4.7381;-0.6919;-0.0433;-0.1825;0.0572
0000385248;4.5370;4.1755;-1.3647;-0.0204;-0.1591;0.0097
0000385257;4.7956;3.6895;-1.6496;0.0068;-0.1414;-0.0490
0000385270;4.8411;3.5937;-1.6951;0.0256;-0.0847;-0.1215
0000385279;4.7692;4.1779;-1.0104;-0.0103;-0.0516;-0.1383
0000385291;4.3646;4.9632;0.4477;-0.1091;-0.0590;-0.0889
0000385300;3.9433;5.4109;1.2737;-0.1681;-0.0887;-0.0136
0000385313;3.5889;5.1332;1.6209;-0.1615;-0.1592;0.1276
0000385322;3.7302;4.8147;1.5610;-0.1035;-0.1931;0.2090
0000385331;4.2593;4.1468;1.4461;-0.0328;-0.2057;0.2585
0000385343;5.1595;3.5674;0.9409;0.0256;-0.1831;0.2384
0000385352;5.9544;3.3710;0.8571;0.0226;-0.1278;0.1840
0000385365;6.6248;3.4093;0.9553;-0.0278;-0.0040;0.0554
0000385374;6.7900;3.6009;1.0032;-0.0825;0.0937;-0.0085
0000385386;6.6726;3.6200;0.8978;-0.1589;0.2105;-0.0450
0000385395;5.7868;3.3040;1.0199;-0.2053;0.2802;-0.0304
0000385404;5.2457;3.1867;1.0439;-0.2190;0.3112;0.0072
0000385471;2.8036;3.1412;0.7111;-0.0165;-0.1456;-0.0418
0000385480;2.8778;3.3878;0.7446;-0.0183;-0.2316;-0.0885
0000385492;3.4524;3.7804;0.8212;-0.0461;-0.3236;-0.1384
0000385501;3.5626;3.6655;0.8045;-0.0698;-0.3679;-0.1868
0000385514;4.5849;3.6512;0.7350;-0.0929;-0.3892;-0.2357
0000385523;4.9584;3.5650;0.8260;-0.1001;-0.3768;-0.2547
0000385535;5.4875;3.5530;0.7733;-0.1168;-0.3437;-0.2614
0000385544;5.4396;3.2346;0.7254;-0.1356;-0.3123;-0.2637
0000385553;5.5378;3.1915;0.7949;-0.1447;-0.2719;-0.2693
0000385566;5.2098;3.0406;0.8140;-0.1721;-0.2201;-0.2739
0000385575;4.9967;3.0382;0.7422;-0.1947;-0.1931;-0.2773
0000385587;4.6328;2.9377;0.7398;-0.2286;-0.1611;-0.2790
0000385596;4.2689;2.8180;0.8523;-0.2533;-0.1523;-0.2809
0000385609;4.0055;2.8036;0.7901;-0.2761;-0.1519;-0.2972
0000385618;3.8714;2.6264;0.7135;-0.2801;-0.1669;-0.3080
0000385630;3.6919;2.3607;0.7494;-0.2593;-0.1939;-0.3194
0000385639;3.6512;2.2170;0.6297;-0.2301;-0.2094;-0.3194
0000385648;3.5219;1.9824;0.4812;-0.2028;-0.2325;-0.3272
0000385661;3.9121;2.1979;0.1963;-0.1585;-0.2521;-0.3070
0000385670;3.8211;2.1955;0.2705;-0.1247;-0.2769;-0.3030
0000385682;4.2018;2.6791;0.0263;-0.1019;-0.3038;-0.2807
0000385691;4.4963;3.0311;0.1293;-0.1139;-0.3223;-0.2590
0000385758;3.7373;2.5474;-0.2610;-0.0348;-0.3890;-0.1386
0000385767;3.6344;2.5043;-0.2514;-0.0286;-0.4018;-0.1088
0000385779;3.6488;2.3200;-0.4142;-0.0284;-0.4205;-0.0606
0000385788;3.6799;2.4852;-0.5052;-0.0322;-0.4263;-0.0258
0000385801;3.7733;2.3703;-0.5267;-0.0302;-0.4455;0.0175
0000385810;3.7637;2.4636;-0.6033;-0.0396;-0.4451;0.0534
0000385819;3.9792;2.6360;-0.5626;-0.0534;-0.4455;0.0831
0000385831;3.8930;2.7126;-0.3663;-0.0731;-0.4485;0.1088
0000385840;4.0534;2.7031;-0.4645;-0.0866;-0.4362;0.1314
0000385853;4.3718;2.5259;-0.2777;-0.0975;-0.4194;0.1780
0000385862;4.4556;2.2410;-0.3089;-0.0933;-0.3938;0.1952
0000385874;4.7166;2.2721;-0.2586;-0.0550;-0.3567;0.1982
0000385883;4.6735;2.2889;-0.2203;-0.0215;-0.3262;0.1843
0000385896;4.5274;2.4134;-0.0096;-0.0079;-0.2835;0.1888
0000385905;4.4843;2.4014;0.0455;0.0072;-0.2677;0.1932
0000385914;4.3838;2.2314;-0.1245;0.0438;-0.2397;0.1962
0000385926;4.4796;2.3367;-0.1365;0.0883;-0.1947;0.1968
0000385935;4.4245;2.4660;-0.1796;0.1178;-0.1731;0.1932
0000385948;4.5131;2.8012;-0.2059;0.1506;-0.1394;0.1965
0000385957;4.5610;2.9281;-0.2227;0.1608;-0.1186;0.1924
0000385969;4.4532;3.0813;-0.1125;0.1684;-0.1003;0.2065
0000385978;4.3479;2.8036;-0.3184;0.1860;-0.1079;0.2136
0000385987;4.4748;2.7054;-0.2921;0.2158;-0.1178;0.2322
0000386056;4.9321;3.6272;0.9529;0.2089;-0.1908;-0.0033
0000386065;4.9392;3.4716;0.8930;0.2080;-0.1859;-0.0356
0000386077;5.1284;3.8475;0.9792;0.2046;-0.1680;-0.1051
0000386086;5.2648;4.0941;1.2234;0.1981;-0.1459;-0.1544
0000386100;4.9871;3.7924;1.1875;0.1994;-0.1515;-0.2342
0000386109;4.4724;3.5434;1.1899;0.2038;-0.1741;-0.2527
0000386122;3.8211;3.3136;1.0822;0.1966;-0.2222;-0.2217
0000386131;3.5745;3.1651;1.3575;0.1891;-0.2690;-0.1900
0000386140;3.5123;3.2992;1.2402;0.1892;-0.3240;-0.1476
0000386152;3.3303;3.0598;1.3336;0.2008;-0.4339;-0.0865
0000386161;3.3088;3.0430;1.3431;0.1997;-0.5145;-0.0474
0000386174;3.4213;2.8132;1.3431;0.1931;-0.6340;-0.0041
0000386183;3.7757;2.8347;1.2857;0.1752;-0.7064;0.0095
0000386195;4.2234;2.9712;1.0798;0.1163;-0.7642;0.0084
0000386204;4.9033;3.1412;1.0487;0.0580;-0.7789;0.0036
0000386213;5.4085;3.1484;1.1157;-0.0175;-0.7718;0.0088
0000386226;6.0190;3.3686;1.3120;-0.1198;-0.7308;0.0193
0000386235;6.4859;3.6559;1.3575;-0.1796;-0.6817;0.0318
0000386247;7.1515;3.7517;1.4700;-0.2317;-0.5601;0.0713
0000386256;7.2089;3.7182;1.4557;-0.2415;-0.4471;0.0921
0000386325;5.5905;3.5578;1.2522;-0.0584;0.2294;0.2293
0000386334;5.1380;3.6895;1.0439;-0.0284;0.2434;0.2667
0000386343;4.9033;4.0701;1.0271;-0.0338;0.2246;0.3020
0000386355;4.7309;4.1204;1.0606;-0.0731;0.1560;0.3203
0000386364;4.3838;3.8834;1.1756;-0.1038;0.0910;0.3255
0000386377;4.6112;3.6990;1.2522;-0.1234;-0.0053;0.3176
0000386386;4.6352;3.1627;1.3360;-0.1295;-0.0785;0.3087
0000386398;4.8794;2.8180;1.2450;-0.1143;-0.1653;0.3034
0000386407;5.1116;2.6432;1.0032;-0.0973;-0.2125;0.2880
0000386420;5.0757;2.4780;0.6393;-0.0941;-0.2723;0.2734
0000386429;5.4348;2.6647;0.4429;-0.0943;-0.3047;0.2634
0000386438;5.7892;2.8515;0.0742;-0.1104;-0.3231;0.2549
0000386450;5.7054;2.9736;0.1820;-0.1623;-0.3496;0.2571
0000386459;5.5426;3.1651;0.2945;-0.2086;-0.3551;0.2631
0000386472;5.5043;3.3040;0.3735;-0.2601;-0.3805;0.2698
0000386481;5.6264;3.2465;0.4334;-0.2827;-0.3986;0.2662
0000386493;5.5019;2.9066;0.6967;-0.2923;-0.4197;0.2507
0000386502;5.6168;2.7031;0.5866;-0.2830;-0.4233;0.2265
0000386511;5.7174;2.7246;0.6009;-0.2735;-0.4205;0.2104
0000386524;5.8969;2.7557;0.6967;-0.2589;-0.4037;0.1831
0000386533;5.8059;2.5977;0.6776;-0.2607;-0.3869;0.1772
0000386545;6.1459;2.9377;0.7302;-0.2607;-0.3616;0.1689
0000386554;5.9592;2.8754;0.7039;-0.2677;-0.3401;0.1644
0000386622;5.6814;2.8730;0.5124;-0.1456;-0.3186;0.0791
0000386629;5.7485;2.9856;0.4262;-0.1418;-0.3136;0.0673
0000386640;5.9137;2.9113;0.2418;-0.1255;-0.3139;0.0400
0000386648;5.8419;2.8108;0.1844;-0.1139;-0.3086;0.0201
0000386656;6.0861;2.9784;0.0838;-0.1147;-0.2939;0.0152
0000386668;6.1220;3.0981;0.2610;-0.1315;-0.2875;0.0000
0000386676;6.2058;3.2872;0.3400;-0.1435;-0.2854;-0.0135
0000386687;6.1603;3.2322;0.3184;-0.1512;-0.2783;-0.0321
0000386695;6.0142;3.0933;0.4118;-0.1588;-0.2673;-0.0385
0000386707;6.0118;2.9233;0.5555;-0.1503;-0.2570;-0.0582
0000386715;5.9472;2.7988;0.5148;-0.1392;-0.2543;-0.0742
0000386726;6.0573;2.8204;0.3998;-0.1119;-0.2274;-0.0874
0000386734;6.0118;2.5139;0.2777;-0.1007;-0.2037;-0.0990
0000386742;6.3422;2.7078;0.2059;-0.0998;-0.1779;-0.1106
0000386754;6.4524;3.0765;0.2394;-0.1202;-0.1280;-0.1298
0000386762;6.3925;3.0382;0.3280;-0.1258;-0.0966;-0.1423
0000386773;6.3351;3.2034;0.3974;-0.1292;-0.0540;-0.1515
0000386781;6.3662;3.0718;0.4334;-0.1264;-0.0161;-0.1515
0000386793;6.2201;2.7725;0.4262;-0.0839;0.0211;-0.1604
0000386801;6.0980;2.6576;0.3783;-0.0508;0.0464;-0.1603
0000386812;5.8873;2.7438;0.4262;-0.0241;0.0826;-0.1624
