time;acc_x;acc_y;acc_z;gyro_x;gyro_y;gyro_z
0001368612;9.4547;2.7845;4.0366;-0.3171;0.4165;0.4679
0001368620;8.4946;2.5618;4.0701;-0.2414;0.4659;0.5168
0001368627;7.6614;2.2769;4.0031;-0.1703;0.4899;0.5541
0001368635;7.0773;2.1787;3.9504;-0.0797;0.4918;0.5753
0001368702;6.5457;1.5945;1.8794;0.1719;0.3773;0.4710
0001368710;6.8929;1.9776;1.6735;0.1833;0.4325;0.4330
0001368718;6.8546;2.1835;1.6376;0.1980;0.4978;0.4002
0001368730;6.8354;2.3320;1.6568;0.1965;0.5893;0.3541
0001368738;7.1108;2.7342;1.7214;0.1741;0.6551;0.3296
0001368749;7.0988;2.8754;1.6688;0.0934;0.7526;0.3043
0001368757;7.3741;3.1292;1.9393;0.0101;0.8060;0.2781
0001368769;7.9727;3.4117;2.2051;-0.1528;0.8988;0.2146
0001368777;8.3917;3.7469;2.2769;-0.2695;0.9755;0.1454
0001368785;8.4420;3.7757;2.8802;-0.3444;1.0214;0.0798
0001368796;8.4276;3.7709;3.6224;-0.4092;1.0631;0.0477
0001368804;7.9559;3.6296;3.9025;-0.4459;1.0801;0.0502
0001368816;6.8690;3.1987;3.7517;-0.4780;1.1117;0.0942
0001368824;6.5027;3.0358;3.6152;-0.4557;1.1149;0.1482
0001368835;6.1172;2.4612;3.5338;-0.3644;1.0804;0.2487
0001368843;6.0430;2.3080;3.5027;-0.2643;1.0425;0.3102
0001368851;6.3111;2.1284;3.1412;-0.1813;1.0243;0.3469
0001368919;7.1156;1.1468;2.8443;-0.2149;1.0444;0.4703
0001368927;6.7277;1.0487;2.8228;-0.1765;1.0305;0.4770
0001368938;6.4093;0.9218;3.0550;-0.0835;0.9934;0.4655
0001368946;5.9999;1.1133;3.0358;-0.0099;0.9574;0.4443
0001368958;5.5498;1.5802;2.9975;0.0743;0.8779;0.3998
0001368966;5.3127;1.8052;3.0765;0.0881;0.8219;0.3760
0001368974;5.2098;2.0470;2.9808;0.0910;0.7623;0.3431
0001368985;5.0973;2.0973;3.0335;0.0855;0.6698;0.2931
0001368993;5.2888;2.1835;3.1651;0.0742;0.6070;0.2515
0001369005;5.4109;2.0806;3.1987;0.0685;0.5332;0.1769
0001369013;5.8227;1.9968;3.2417;0.0683;0.4928;0.1263
0001369021;5.8419;1.7071;3.4165;0.0769;0.4572;0.0742
0001369032;6.3901;1.8268;3.5913;0.1074;0.4289;0.0124
0001369040;6.3542;1.5969;3.5291;0.1330;0.4124;-0.0369
0001369052;6.4643;1.5897;3.4285;0.1631;0.3964;-0.0966
0001369060;6.4452;1.5993;3.4357;0.1600;0.3964;-0.1176
0001369071;6.4620;1.5395;3.4955;0.1640;0.3820;-0.1470
0001369079;6.3710;1.6616;3.5698;0.1712;0.3776;-0.1657
0001369087;6.4141;1.7095;3.7086;0.1832;0.3621;-0.1791
0001369099;6.2010;1.9489;4.0318;0.2042;0.3416;-0.1817
0001369107;5.9592;2.1069;4.2569;0.2214;0.3119;-0.1941
0001369118;5.6719;2.4565;4.5538;0.2281;0.2613;-0.1903
0001369126;5.6599;2.8659;4.7908;0.2334;0.2088;-0.1865
0001369194;6.0932;2.5235;4.3287;-0.0941;-0.1529;0.0136
0001369202;6.4667;2.3463;4.3574;-0.0811;-0.1535;0.0310
0001369213;6.8594;1.8172;3.9911;-0.0584;-0.1347;0.0554
0001369221;7.0725;1.5730;3.9121;-0.0245;-0.1138;0.0645
0001369229;7.3071;1.6352;3.7757;0.0103;-0.0799;0.0698
0001369241;7.3119;1.5131;3.5602;0.0646;-0.0069;0.0775
0001369249;7.2496;1.6065;3.4429;0.0971;0.0365;0.0835
0001369260;7.0820;1.6496;3.3567;0.1230;0.0998;0.1029
0001369268;7.0366;1.9034;3.3495;0.1318;0.1367;0.1054
0001369280;7.0413;2.1021;3.4836;0.1263;0.1781;0.1180
0001369288;6.9264;2.2505;3.5362;0.1280;0.1973;0.1190
0001369296;6.8043;2.5283;3.6823;0.1230;0.2116;0.1191
0001369307;6.3805;2.4373;3.7038;0.1134;0.2198;0.1132
0001369315;6.3279;2.6456;3.6631;0.0882;0.2248;0.1013
0001369327;6.2441;2.9161;3.4764;0.0516;0.2212;0.0871
0001369335;6.2537;3.0191;3.4644;0.0179;0.2230;0.0867
0001369343;6.1579;2.9425;3.3519;-0.0075;0.2106;0.0875
0001369354;6.2106;2.7414;3.3710;-0.0241;0.1859;0.0986
0001369362;6.1675;2.5666;3.3279;-0.0332;0.1629;0.0999
0001369374;6.1268;2.3607;3.1939;-0.0381;0.1380;0.1127
0001369382;6.3111;2.1596;3.0646;-0.0328;0.1168;0.1096
0001369393;6.2704;2.0279;3.0167;-0.0111;0.0958;0.1073
0001369401;6.2752;1.8507;3.0526;0.0120;0.0737;0.0995
0001369409;6.3063;1.8148;3.0981;0.0448;0.0621;0.0873
0001369477;6.5290;2.2505;3.7134;0.1438;0.0826;0.0023
0001369485;6.5697;2.3870;3.6105;0.1310;0.0938;-0.0125
0001369496;6.8139;2.6767;3.7685;0.1130;0.1025;-0.0382
0001369504;6.4476;2.7892;3.8403;0.0982;0.1187;-0.0449
0001369516;6.1292;2.7845;3.9265;0.0779;0.1426;-0.0554
0001369524;6.2321;2.7533;3.9289;0.0675;0.1516;-0.0670
0001369532;6.3087;2.8467;3.9983;0.0544;0.1580;-0.0807
0001369543;6.2106;2.6935;3.9552;0.0176;0.1713;-0.1046
0001369551;6.4093;2.6001;3.8930;-0.0083;0.1648;-0.1268
0001369563;6.3446;2.6839;3.8403;-0.0438;0.1625;-0.1290
0001369571;6.0693;2.4421;3.6895;-0.0564;0.1583;-0.1128
0001369582;5.8993;2.3391;3.5434;-0.0953;0.1645;-0.0825
0001369590;5.8466;2.2386;3.4764;-0.1210;0.1687;-0.0581
0001369602;5.6000;1.8986;3.1627;-0.1358;0.1669;-0.0196
0001369610;5.4324;1.6496;2.9784;-0.1336;0.1545;0.0043
0001369618;5.5881;1.6041;2.8060;-0.1250;0.1319;0.0297
0001369629;5.7006;1.6472;2.6025;-0.0993;0.1010;0.0576
0001369637;5.5378;1.6807;2.5402;-0.0730;0.0569;0.0749
0001369649;5.3917;1.7406;2.4708;-0.0326;-0.0001;0.0929
0001369657;5.5258;2.0087;2.6408;-0.0029;-0.0346;0.0946
0001369668;5.4229;2.2122;2.5019;0.0333;-0.0823;0.0753
0001369676;5.1954;2.3990;2.5474;0.0476;-0.1055;0.0602
0001369684;5.5115;2.7509;2.4541;0.0497;-0.1238;0.0465
0001369752;6.2082;2.0351;2.7869;0.0540;-0.1696;0.0007
0001369760;6.2560;1.8723;2.8180;0.0699;-0.1556;0.0205
0001369771;6.4524;1.8531;2.8371;0.1114;-0.1348;0.0312
0001369779;6.7086;1.8459;2.8778;0.1288;-0.1018;0.0446
0001369791;6.7852;1.6616;2.9784;0.1605;-0.0510;0.0546
0001369799;6.8402;1.5275;2.9928;0.1783;-0.0306;0.0592
0001369807;6.6918;1.3264;3.0191;0.1913;-0.0149;0.0687
0001369818;6.6343;1.1229;3.0502;0.2330;-0.0084;0.0763
0001369826;6.3015;1.1013;3.0670;0.2739;-0.0077;0.0770
0001369838;5.9879;0.8715;3.1651;0.3388;-0.0293;0.0608
0001369846;5.8849;0.9577;3.1675;0.3593;-0.0493;0.0482
0001369857;5.5905;1.0798;3.2944;0.4005;-0.0946;0.0116
0001369865;5.4229;1.1372;3.6392;0.4231;-0.1124;-0.0161
0001369873;5.5545;1.2019;4.0127;0.4493;-0.1376;-0.0789
0001369885;5.6431;1.4509;4.4077;0.4588;-0.1424;-0.1821
0001369893;5.4013;1.4892;4.4005;0.4455;-0.1323;-0.2719
0001369904;5.8634;1.9154;3.8762;0.3804;-0.1295;-0.3982
0001369912;6.0813;1.8483;3.6488;0.3020;-0.1378;-0.4679
0001369924;6.3901;1.6352;2.7940;0.1712;-0.1581;-0.5585
0001369932;6.8043;1.5874;2.6240;0.0983;-0.1652;-0.5953
0001369940;6.9528;1.5921;2.8754;0.0560;-0.1427;-0.6086
0001369952;7.2832;2.0542;3.2034;0.0797;-0.0674;-0.6070
0001369960;7.3287;2.1955;3.3662;0.1316;0.0092;-0.5780
0001370028;6.6726;1.8459;2.1069;0.4843;0.3548;0.0753
0001370036;6.6607;2.0734;1.9034;0.6035;0.3660;0.1147
0001370047;6.7421;2.7629;1.7502;0.7766;0.3897;0.1388
0001370055;6.5553;3.3327;1.8052;0.8809;0.4004;0.1451
0001370063;6.2560;3.8355;2.0351;0.9293;0.4008;0.1539
0001370075;6.2824;5.1044;2.2314;0.8744;0.4094;0.1815
0001370083;6.0669;5.6144;2.2577;0.7702;0.4001;0.1839
0001370095;5.8610;6.0047;2.0710;0.5420;0.3632;0.1895
0001370103;5.8969;6.0669;1.9178;0.3544;0.3166;0.2025
0001370114;5.9424;5.5737;1.7861;0.1156;0.2534;0.1986
0001370122;6.1459;5.0661;1.8651;-0.0183;0.2149;0.1844
0001370130;6.0094;4.4317;1.7813;-0.1037;0.1707;0.1529
0001370142;5.8131;3.5961;1.6400;-0.1479;0.1082;0.0934
0001370150;5.7365;3.0550;1.8028;-0.1339;0.0719;0.0524
0001370161;5.3582;2.4900;1.9345;-0.0727;0.0241;-0.0140
0001370169;5.4085;2.3750;1.9680;-0.0180;-0.0017;-0.0401
0001370181;5.2984;2.1308;2.1548;0.0649;-0.0516;-0.0477
0001370189;5.2936;2.2889;2.1763;0.1041;-0.0758;-0.0328
0001370197;5.7341;2.5307;1.9369;0.1416;-0.1081;-0.0180
0001370208;6.4643;3.1173;1.6640;0.1503;-0.1339;0.0071
0001370216;6.6750;3.1651;1.5658;0.1284;-0.1384;0.0274
0001370228;6.9767;3.3016;1.4413;0.0819;-0.1286;0.0402
0001370236;7.0653;3.3471;1.3336;0.0505;-0.1120;0.0422
0001370300;6.3111;2.3798;1.3001;0.0480;0.0085;0.0212
0001370308;6.1148;2.1883;1.2617;0.0624;0.0073;0.0372
0001370316;5.9616;2.0925;1.3120;0.0727;0.0055;0.0588
0001370328;6.2417;2.2458;1.2115;0.0913;-0.0035;0.0743
0001370336;6.3614;2.3822;1.1372;0.1029;-0.0056;0.0859
0001370347;6.2297;2.3272;1.0774;0.1175;-0.0157;0.0939
0001370355;6.3973;2.4110;1.0750;0.1292;-0.0157;0.0998
0001370367;6.3949;2.5690;1.1349;0.1524;-0.0195;0.0923
0001370375;6.3614;2.7222;1.0247;0.1663;-0.0290;0.0910
0001370383;6.2153;2.6217;1.0415;0.1695;-0.0216;0.0943
0001370394;5.8897;2.4636;1.0175;0.1656;-0.0368;0.0887
0001370402;5.9209;2.6384;1.0080;0.1535;-0.0398;0.0814
0001370414;5.8849;2.6217;1.0630;0.1428;-0.0570;0.0703
0001370422;5.9568;2.6049;1.0750;0.1324;-0.0626;0.0589
0001370433;5.8778;2.3224;1.0463;0.1392;-0.0813;0.0297
0001370441;5.8993;2.4612;1.0247;0.1370;-0.0821;0.0157
0001370449;5.9185;2.4086;1.0199;0.1354;-0.0861;0.0101
0001370461;5.9831;2.2625;1.0343;0.1388;-0.1042;-0.0011
0001370469;5.9496;2.1021;1.0415;0.1371;-0.1168;-0.0093
0001370480;6.2177;2.1356;0.9481;0.1250;-0.1299;-0.0020
0001370488;6.2537;2.1261;1.0750;0.1147;-0.1504;-0.0001
0001370500;6.4284;2.2098;1.1660;0.1009;-0.1691;0.0057
0001370508;6.4500;2.0566;1.3336;0.0901;-0.1816;-0.0052
0001370575;6.7253;2.1308;1.5850;0.0941;-0.1406;-0.0083
0001370583;6.8426;2.1284;1.7957;0.0909;-0.1318;0.0045
0001370591;6.7876;1.9944;1.6209;0.0873;-0.1324;0.0111
0001370603;6.7636;2.0063;1.5467;0.0825;-0.1195;0.0236
0001370611;6.9240;2.0375;1.4174;0.0791;-0.1191;0.0203
0001370622;7.0701;2.2146;1.3431;0.0854;-0.1188;0.0084
0001370630;6.8738;2.1141;1.4317;0.1037;-0.1163;-0.0024
0001370642;6.9025;2.2027;1.6688;0.1506;-0.1150;-0.0436
0001370650;6.6655;2.2697;1.7478;0.1871;-0.1059;-0.0671
0001370658;6.6870;2.4205;1.9585;0.2213;-0.1025;-0.0751
0001370669;6.5266;2.5067;1.8459;0.2389;-0.0983;-0.0762
0001370677;6.3279;2.5091;1.5490;0.2321;-0.1051;-0.0731
0001370689;6.0717;2.7078;1.1133;0.1908;-0.1194;-0.0462
0001370697;5.8826;2.8156;0.8499;0.1657;-0.1414;-0.0358
0001370708;5.8802;3.0981;0.7805;0.1422;-0.1496;-0.0262
0001370716;5.7317;3.2417;0.7853;0.1450;-0.1688;-0.0361
0001370724;5.7940;3.5051;1.0511;0.1504;-0.1769;-0.0429
0001370736;5.6719;3.8211;1.2833;0.1456;-0.1768;-0.0468
0001370744;5.8538;3.9121;1.4509;0.1332;-0.1836;-0.0452
0001370755;6.0334;3.8307;1.1995;0.0504;-0.1725;-0.0119
0001370763;6.0023;3.6320;0.7326;-0.0289;-0.1889;0.0104
0001370775;6.3279;3.3255;0.3615;-0.1343;-0.1998;0.0278
0001370783;6.6487;3.3112;0.1389;-0.1712;-0.2180;0.0169
0001370850;6.2225;3.9289;0.5243;-0.0490;-0.2523;-0.0462
0001370858;6.5074;3.8954;0.3711;-0.0943;-0.2749;-0.0152
0001370866;6.3039;3.8092;0.3903;-0.1136;-0.2979;-0.0033
0001370878;6.4284;3.7757;0.3615;-0.1075;-0.3078;0.0040
0001370886;6.2249;3.7661;0.5746;-0.0835;-0.3191;-0.0181
0001370897;6.3614;4.0462;0.9385;-0.0562;-0.3246;-0.0556
0001370905;6.3279;4.1563;1.2665;-0.0394;-0.3271;-0.0815
0001370917;6.4117;4.1755;1.3695;-0.0634;-0.3044;-0.0689
0001370925;6.3375;4.1396;1.0822;-0.1184;-0.2860;-0.0488
0001370936;6.7133;4.0007;0.8404;-0.2116;-0.2750;-0.0204
0001370944;6.9719;3.7230;0.9768;-0.2733;-0.2641;0.0071
0001370952;7.2640;3.7062;1.0606;-0.3019;-0.2607;0.0177
0001370964;6.9671;3.4548;1.4174;-0.2908;-0.2405;0.0265
0001370972;6.8594;3.4668;1.6328;-0.2691;-0.2273;0.0353
0001370983;6.6822;3.3615;2.1404;-0.2495;-0.2189;0.0408
0001370991;6.7038;3.4141;2.1284;-0.2505;-0.2206;0.0465
0001371003;6.8091;3.4860;1.9896;-0.2802;-0.2202;0.0624
0001371011;6.9192;3.2729;1.8842;-0.3024;-0.2233;0.0682
0001371022;6.7636;3.0478;1.8292;-0.3372;-0.2245;0.0687
0001371030;6.7684;3.0454;1.6879;-0.3469;-0.2170;0.0641
0001371038;6.7373;3.1005;1.4078;-0.3447;-0.2160;0.0394
0001371050;6.5625;3.0742;1.4916;-0.3084;-0.1964;-0.0254
0001371058;6.3758;3.1867;1.7262;-0.2844;-0.1780;-0.0743
0001371125;5.8754;2.7174;2.3798;-0.3243;-0.2399;-0.1074
0001371133;5.8921;2.6839;2.4588;-0.2781;-0.2614;-0.1187
0001371145;5.9137;2.6073;2.8539;-0.1859;-0.2669;-0.1392
0001371153;5.9256;2.4612;2.9401;-0.1210;-0.2671;-0.1675
0001371161;6.0908;2.3008;3.0335;-0.0753;-0.2466;-0.1844
0001371172;6.3422;2.1069;3.3232;-0.0369;-0.2117;-0.2112
0001371180;6.3829;2.0877;3.4548;-0.0302;-0.1748;-0.2048
0001371192;6.6104;2.0494;3.3495;-0.0326;-0.1147;-0.1569
0001371200;6.4715;1.9704;3.2465;-0.0207;-0.0821;-0.1042
0001371211;6.4548;2.0734;2.9928;0.0103;-0.0686;-0.0184
0001371219;6.2728;2.1069;2.7773;0.0300;-0.0701;0.0574
0001371231;6.2321;2.3798;2.5762;0.0922;-0.1095;0.1451
0001371239;5.9352;2.4756;2.5833;0.1224;-0.1455;0.1837
0001371247;5.9783;2.7222;2.4541;0.1455;-0.1937;0.2028
0001371258;6.0454;2.9856;2.5139;0.1681;-0.2699;0.1700
0001371266;5.9664;3.1412;2.5187;0.1728;-0.3091;0.1331
0001371278;5.8419;3.5913;2.4086;0.1861;-0.3724;0.0652
0001371286;5.6024;3.6871;2.4421;0.2053;-0.4161;0.0027
0001371297;5.5905;3.9911;2.5498;0.2200;-0.4533;-0.0457
0001371305;5.5043;4.0606;2.6552;0.2451;-0.4642;-0.0779
0001371313;5.8562;4.2569;2.6025;0.2619;-0.4465;-0.0973
0001371325;6.0525;4.3383;2.3846;0.2522;-0.3992;-0.1110
0001371333;6.2177;4.3239;2.1572;0.2293;-0.3671;-0.1158
0001371400;6.8378;2.5402;2.2505;-0.0548;-0.0124;-0.0309
0001371408;6.4165;2.5426;2.2122;-0.0446;0.0107;-0.0532
0001371420;5.8227;2.3056;2.1332;-0.0195;0.0139;-0.0938
0001371428;5.9879;2.4325;1.9489;-0.0216;0.0033;-0.1083
0001371439;5.4133;2.2505;2.0925;-0.0159;-0.0337;-0.1306
0001371447;5.4708;2.2745;2.0255;-0.0155;-0.0573;-0.1332
0001371455;5.2625;2.0494;1.8794;-0.0175;-0.0846;-0.1354
0001371467;5.5115;2.1045;1.7454;-0.0188;-0.1102;-0.1512
0001371475;5.6240;2.0135;1.6448;-0.0187;-0.1275;-0.1653
0001371487;5.6431;1.7933;1.5083;-0.0073;-0.1404;-0.1732
0001371495;5.8395;1.8962;1.6807;0.0092;-0.1551;-0.1807
0001371506;5.8275;1.8890;1.6879;0.0377;-0.1732;-0.1919
0001371514;6.1004;2.0853;1.5443;0.0425;-0.1705;-0.1889
0001371526;6.1316;2.2218;1.6257;0.0553;-0.1664;-0.1997
0001371534;6.2417;2.1955;1.6089;0.0622;-0.1573;-0.1920
0001371542;6.3782;2.2266;1.5323;0.0537;-0.1472;-0.1865
0001371553;6.6918;2.2625;1.5538;0.0569;-0.1403;-0.1784
0001371561;6.7876;2.3727;1.5060;0.0646;-0.1206;-0.1813
0001371573;7.1323;2.3894;1.4293;0.0636;-0.0723;-0.1613
0001371581;7.1970;2.4469;1.3599;0.0731;-0.0374;-0.1459
0001371648;6.0382;2.1644;1.3647;0.2503;0.0906;0.0345
0001371656;5.9209;2.1931;1.2594;0.2597;0.0885;0.0334
0001371664;5.7341;1.9393;1.1588;0.2726;0.0795;0.0354
0001371676;5.8730;2.0327;1.1899;0.2968;0.0545;0.0312
0001371684;6.0023;2.1213;1.2881;0.3000;0.0361;0.0410
0001371695;6.0549;2.2003;1.2761;0.3035;0.0069;0.0462
0001371703;5.9664;2.2841;1.2258;0.2895;-0.0095;0.0552
0001371715;6.1411;2.5426;1.3168;0.2353;-0.0432;0.0598
0001371723;6.1076;2.7892;1.1947;0.1796;-0.0625;0.0576
0001371731;6.1268;2.8156;1.2689;0.1142;-0.0898;0.0412
0001371742;6.0166;2.4972;1.1875;0.0324;-0.1134;0.0117
0001371750;6.0262;2.3966;1.2139;-0.0165;-0.1351;-0.0193
0001371762;5.7293;2.0375;1.0918;-0.0811;-0.1623;-0.0630
0001371770;5.6407;1.8627;0.7925;-0.1207;-0.1741;-0.0902
0001371781;5.5929;1.7334;0.8021;-0.1424;-0.1856;-0.1111
0001371789;5.3846;1.5275;0.8332;-0.1320;-0.1969;-0.1007
0001371797;5.5641;1.5802;0.9361;-0.1031;-0.2122;-0.0827
0001371809;5.7868;1.6472;1.2570;-0.0364;-0.2623;-0.0461
0001371817;5.9568;1.8268;1.4341;-0.0055;-0.2871;-0.0346
0001371828;6.1148;2.1691;1.3623;0.0112;-0.2972;-0.0457
0001371836;6.0837;2.2482;1.4413;0.0021;-0.2960;-0.0609
0001371848;6.1004;2.5690;1.0750;-0.0394;-0.2906;-0.0878
0001371856;6.1483;2.5546;0.9888;-0.0745;-0.2887;-0.1037
0001371923;6.9528;2.8874;1.2881;0.0051;-0.2376;0.0216
0001371931;6.9432;3.0502;1.1899;-0.0378;-0.2134;0.0040
0001371939;6.6870;2.9664;1.1325;-0.0911;-0.1715;0.0043
0001371951;6.3949;2.9688;1.1779;-0.1282;-0.1194;0.0165
0001371959;6.6224;3.0167;1.3982;-0.1331;-0.0877;0.0360
0001371970;6.8378;3.0095;1.6831;-0.0958;-0.0588;0.0514
0001371978;6.8019;2.9544;1.8220;-0.0584;-0.0230;0.0561
0001371990;6.8953;2.6217;1.7741;-0.0065;0.0176;0.0273
0001371998;6.8043;2.4756;1.6233;0.0144;0.0457;-0.0064
0001372009;6.8929;2.4469;1.3503;0.0289;0.0770;-0.0613
0001372017;6.6511;2.4900;1.2953;0.0322;0.1085;-0.0989
0001372025;6.5721;2.7964;0.9888;0.0473;0.1366;-0.1164
0001372037;6.3470;3.1316;0.7709;0.0624;0.1907;-0.1011
0001372045;6.0501;3.3064;0.8404;0.0891;0.2050;-0.0624
0001372056;6.1986;3.9528;1.2641;0.1427;0.1944;0.0474
0001372064;6.2560;4.2258;1.5299;0.1705;0.1727;0.1328
0001372072;6.4572;4.6064;1.5634;0.1631;0.1430;0.1940
0001372084;6.7038;4.8435;1.4676;0.0761;0.1270;0.2094
0001372092;6.5505;4.8842;1.2546;-0.0264;0.1415;0.2040
0001372103;6.1842;4.7669;0.9768;-0.1759;0.1769;0.1923
0001372111;6.0932;4.3120;1.0415;-0.2511;0.1896;0.1916
0001372123;6.0478;3.8666;1.2641;-0.2900;0.2020;0.2149
0001372131;6.1220;3.5769;1.2282;-0.2851;0.2032;0.2217
0001372139;6.1316;3.3758;1.3240;-0.2770;0.2045;0.2325
0001372206;5.0949;3.0358;0.6704;-0.4343;0.1596;0.0586
0001372214;4.6280;2.8347;0.8763;-0.4538;0.1663;0.0746
0001372226;5.1427;2.9712;1.4222;-0.4214;0.1589;0.1399
0001372234;5.4396;2.8683;1.6376;-0.3692;0.1406;0.1756
0001372245;5.7604;2.5618;1.7861;-0.3023;0.1391;0.2064
0001372253;6.0478;2.7054;1.5897;-0.2577;0.1423;0.1791
0001372261;6.3039;2.7845;1.3072;-0.2358;0.1400;0.1260
0001372273;5.6216;2.6671;0.7039;-0.2414;0.1399;0.0654
0001372281;5.3343;2.5762;0.5028;-0.2388;0.1160;0.0554
0001372292;5.3870;2.5642;0.5363;-0.2246;0.0901;0.0753
0001372300;5.3367;2.3272;0.6369;-0.2008;0.0565;0.0843
0001372312;5.3486;2.2865;0.9840;-0.1327;0.0276;0.1151
0001372320;5.6288;2.1739;1.3647;-0.0600;0.0061;0.1276
0001372331;5.9065;2.3727;1.8028;0.0228;-0.0056;0.1082
0001372339;5.9472;2.3056;2.0351;0.0461;0.0060;0.0722
0001372347;6.0142;2.7869;2.0901;0.0493;0.0294;0.0270
0001372359;6.0454;3.2441;2.0614;0.0120;0.0937;-0.0075
0001372367;5.9209;3.4644;1.9345;-0.0083;0.1256;-0.0218
0001372378;5.8706;3.8211;2.0494;-0.0318;0.1629;-0.0284
0001372386;6.0310;4.1108;2.2051;-0.0176;0.1644;-0.0282
0001372398;6.0885;4.3144;2.6839;0.0177;0.1759;-0.0269
0001372406;6.2632;4.3934;3.0430;0.0484;0.1767;-0.0396
0001372414;6.4165;4.6543;3.4237;0.0482;0.1708;-0.0478
0001372481;6.1148;1.5107;2.4708;-0.0493;-0.0490;0.0312
0001372489;6.3159;1.2354;2.4445;0.0474;-0.0854;0.0238
0001372501;6.5601;1.2258;2.3200;0.1835;-0.1254;-0.0125
0001372509;6.5960;1.6376;2.2482;0.2602;-0.1463;-0.0616
0001372520;6.4069;2.1165;2.2362;0.3186;-0.1462;-0.1404
0001372528;6.0382;2.4756;2.1835;0.3311;-0.1370;-0.1795
0001372536;5.8945;2.9209;2.1931;0.3277;-0.1262;-0.2041
0001372548;5.7581;3.4213;2.0399;0.3114;-0.1126;-0.1908
0001372556;5.7628;3.6536;2.1452;0.2868;-0.1104;-0.1759
0001372567;6.2177;3.8188;2.0518;0.2539;-0.1107;-0.1379
0001372575;6.5912;3.6655;2.0039;0.2270;-0.1195;-0.1212
0001372587;6.8690;3.2034;1.8842;0.1869;-0.1258;-0.0893
0001372595;7.0749;2.7821;1.9369;0.1656;-0.1242;-0.0806
0001372603;7.5369;2.9233;1.8555;0.1487;-0.1195;-0.0813
0001372614;7.5729;2.5642;1.8771;0.1454;-0.1230;-0.0930
0001372622;7.5824;2.6743;1.9896;0.1547;-0.1146;-0.1067
0001372634;7.2209;2.7581;2.2386;0.1960;-0.1058;-0.1256
0001372642;6.9815;2.9185;2.3990;0.2157;-0.1034;-0.1335
0001372653;6.4883;3.3591;2.4636;0.2221;-0.1155;-0.1360
0001372661;6.3303;3.7182;2.4038;0.1837;-0.1263;-0.1324
0001372673;6.1124;4.1276;2.3056;0.0922;-0.1565;-0.1214
0001372681;6.2393;4.2760;2.2721;0.0057;-0.1692;-0.0954
0001372689;6.2560;4.2329;2.2697;-0.0727;-0.1915;-0.0778
0001372756;6.9719;2.6959;2.1787;-0.0197;-0.0875;-0.0228
0001372764;6.8067;2.6432;2.1931;0.0420;-0.0909;0.0017
0001372776;6.6224;3.0526;2.2817;0.1017;-0.0987;0.0222
0001372784;6.6056;3.1196;2.3032;0.1178;-0.1134;0.0374
0001372795;6.6176;3.2992;2.3415;0.0758;-0.1199;0.0580
0001372803;6.3997;3.3375;2.3272;0.0412;-0.1307;0.0811
0001372811;6.3303;3.2585;2.3774;0.0000;-0.1352;0.1049
0001372823;6.6032;3.1891;2.2865;-0.0449;-0.1460;0.1287
0001372831;6.6272;2.9688;2.1021;-0.0793;-0.1395;0.1430
0001372843;6.8235;2.6480;1.9896;-0.1062;-0.1367;0.1563
0001372851;6.9384;2.6264;1.8723;-0.1202;-0.1216;0.1577
0001372862;6.9264;2.4612;1.9465;-0.1294;-0.1041;0.1595
0001372870;6.8570;2.4804;2.1069;-0.1330;-0.0987;0.1607
0001372882;7.1419;2.5091;2.1093;-0.1411;-0.0923;0.1683
0001372890;7.1419;2.6384;2.0566;-0.1520;-0.0865;0.1637
0001372898;7.1012;2.5977;1.9824;-0.1649;-0.0857;0.1539
0001372909;7.0437;2.5163;1.8172;-0.1787;-0.0858;0.1295
0001372917;6.8139;2.6240;1.8890;-0.1807;-0.0847;0.1102
0001372929;6.6200;2.6456;1.8890;-0.1623;-0.0774;0.0839
0001372937;6.2632;2.3679;1.9656;-0.1463;-0.0710;0.0746
0001372949;6.3398;2.4517;1.8890;-0.1194;-0.0738;0.0646
0001372957;6.4524;2.4804;1.9106;-0.1029;-0.0706;0.0671
0001372965;6.5936;2.2793;1.8316;-0.0847;-0.0691;0.0699
0001373033;6.7756;1.5993;1.4868;0.0095;-0.0212;0.0108
0001373041;6.8618;1.4078;1.6041;0.0330;-0.0017;0.0329
0001373052;6.8426;1.1301;1.4940;0.0903;0.0076;0.0450
0001373060;7.0126;1.2234;1.4389;0.1291;0.0191;0.0625
0001373072;7.1539;1.3719;1.4006;0.1935;0.0277;0.0602
0001373080;7.1204;1.4317;1.3815;0.2140;0.0396;0.0533
0001373088;6.7852;1.3240;1.2354;0.2322;0.0450;0.0485
0001373099;7.0653;1.6688;1.0965;0.2024;0.0560;0.0542
0001373107;6.7995;1.6975;1.0127;0.1751;0.0614;0.0514
0001373119;6.7588;1.5371;1.0367;0.1204;0.0717;0.0526
0001373127;6.8738;1.5131;0.9050;0.0943;0.0637;0.0442
0001373138;7.0749;1.4485;0.7901;0.0731;0.0593;0.0600
0001373146;6.9887;1.1827;0.9313;0.0969;0.0536;0.0589
0001373154;6.9647;1.1899;1.0463;0.1282;0.0526;0.0697
0001373166;6.7564;0.9505;1.0942;0.2132;0.0494;0.0765
0001373174;6.6008;0.8404;0.9625;0.2573;0.0485;0.1019
0001373185;6.4787;1.0247;0.7183;0.3084;0.0366;0.1220
0001373193;6.5050;1.2977;0.6393;0.3236;0.0282;0.1424
0001373205;6.6511;2.0087;0.4453;0.3300;0.0216;0.1438
0001373213;6.3614;1.9968;0.5866;0.3307;0.0203;0.1231
0001373221;6.4332;2.3679;0.6776;0.3148;0.0213;0.0949
0001373233;6.6511;2.8563;0.6967;0.2872;0.0189;0.0461
0001373241;6.5457;2.9999;0.8452;0.2555;0.0141;0.0199
0001373309;6.4189;3.3160;0.9840;-0.0345;-0.1677;-0.0941
0001373317;6.4979;3.6129;1.1253;-0.0211;-0.1980;-0.1432
0001373328;6.1483;3.6129;1.3575;-0.0147;-0.2218;-0.1911
0001373336;6.1651;3.8762;1.2857;-0.0167;-0.2495;-0.2102
0001373344;5.9687;3.8882;1.1684;-0.0486;-0.2667;-0.1996
0001373356;6.1842;3.9552;1.2402;-0.1163;-0.2950;-0.1603
0001373364;6.2848;3.7302;1.1827;-0.1587;-0.3078;-0.1319
0001373376;6.6295;3.6033;0.7087;-0.1875;-0.3267;-0.1079
0001373384;6.8139;3.4596;0.4429;-0.1962;-0.3328;-0.1022
0001373396;6.9839;3.5003;0.6009;-0.1679;-0.3512;-0.1346
0001373404;7.3071;3.5961;1.1037;-0.1174;-0.3464;-0.1791
0001373415;7.2257;3.6679;1.7765;-0.0448;-0.3020;-0.2149
0001373423;7.2712;3.6799;1.8172;0.0033;-0.2711;-0.2348
0001373431;7.1539;3.8259;1.6161;0.0165;-0.2352;-0.2248
0001373443;7.1706;3.7900;1.0726;-0.0598;-0.1873;-0.1484
0001373451;7.2927;3.8738;0.7183;-0.1350;-0.1713;-0.0885
0001373462;7.4795;3.5554;0.3831;-0.2410;-0.1462;-0.0160
0001373470;7.5202;3.4237;0.2538;-0.2614;-0.1431;-0.0024
0001373482;7.5824;3.2872;0.1987;-0.2329;-0.1108;-0.0380
0001373490;7.3765;3.1771;0.6297;-0.1892;-0.0862;-0.0838
0001373502;6.9528;3.4620;1.3647;-0.1175;-0.0394;-0.1295
0001373510;6.8378;3.6464;1.8100;-0.0939;-0.0177;-0.1152
0001373518;6.6104;3.7541;1.9225;-0.1015;-0.0032;-0.0637
0001373586;7.3382;4.1108;2.2745;-0.2835;-0.0129;-0.0001
0001373594;7.0868;4.1779;2.3727;-0.2549;0.0007;0.0049
0001373605;6.9097;4.2114;2.4517;-0.2669;0.0180;0.0541
0001373613;6.6176;3.9289;2.2601;-0.2822;0.0220;0.0899
0001373626;6.9216;3.6823;1.8675;-0.3132;0.0241;0.1210
0001373635;6.7756;3.2825;1.4868;-0.3212;0.0317;0.1120
0001373644;6.7708;3.1244;1.5036;-0.2996;0.0440;0.0782
0001373656;6.6511;3.1125;1.5155;-0.2493;0.0707;0.0087
0001373665;6.7540;3.4093;1.8292;-0.2093;0.1014;-0.0345
0001373678;6.3566;3.2082;2.0135;-0.1724;0.1442;-0.0773
0001373687;6.5074;3.3447;1.9513;-0.1749;0.1708;-0.0723
0001373700;6.2632;2.8778;1.6496;-0.2018;0.1966;-0.0147
0001373709;6.2680;2.9185;1.2857;-0.2218;0.1872;0.0218
0001373718;6.4069;2.7031;1.0415;-0.2405;0.1685;0.0552
0001373731;6.2728;2.9257;1.1588;-0.1976;0.1327;0.0425
0001373740;5.9161;2.8826;1.1588;-0.1423;0.1054;0.0055
0001373753;5.6575;3.1843;1.7238;-0.0613;0.0592;-0.0662
0001373762;5.4277;3.1388;2.2482;-0.0159;0.0212;-0.1037
0001373775;5.6479;3.0550;2.9880;0.0009;-0.0052;-0.1124
0001373784;5.7820;3.0071;3.2825;-0.0172;-0.0135;-0.0588
0001373797;6.0358;2.5905;3.3351;-0.0466;-0.0037;0.0620
0001373806;6.3662;2.5498;3.2609;-0.0521;0.0208;0.1379
0001373815;6.9216;2.4588;3.1053;-0.0671;0.0506;0.1924
0001373884;6.4356;3.2370;3.2010;0.0705;0.4104;0.0461
0001373893;6.0549;3.5338;3.2394;0.0578;0.3825;0.0580
0001373905;5.5234;3.3950;3.0526;0.0473;0.3327;0.0585
0001373914;5.2696;3.4931;2.9568;0.0380;0.2875;0.0396
0001373927;5.4588;3.3758;2.6576;0.0043;0.2109;-0.0061
0001373936;5.3606;3.0981;2.5738;-0.0176;0.1535;-0.0450
0001373945;5.4300;2.8874;2.4421;-0.0272;0.0902;-0.0955
0001373957;5.2002;2.4756;2.4612;-0.0237;0.0073;-0.1428
0001373966;5.4612;2.4325;2.3990;-0.0151;-0.0517;-0.1699
0001373979;5.4468;2.3463;2.5642;0.0438;-0.1292;-0.2040
0001373988;5.5043;2.4205;2.6145;0.1027;-0.1819;-0.2072
0001374000;5.6383;2.4732;2.4900;0.1510;-0.2245;-0.1841
0001374009;6.0118;2.6528;2.5450;0.1744;-0.2459;-0.1735
0001374018;6.1339;2.8850;2.4924;0.1763;-0.2493;-0.1679
0001374031;6.4260;3.1460;2.5283;0.1697;-0.2535;-0.1727
0001374040;6.7516;3.3495;2.4804;0.1454;-0.2471;-0.1768
0001374052;6.7253;3.4740;2.4110;0.1019;-0.2382;-0.1905
0001374061;6.7947;3.4596;2.3918;0.0486;-0.2209;-0.2074
0001374074;6.9839;3.2082;2.2817;-0.0256;-0.2002;-0.2475
0001374083;7.1012;3.1125;2.2242;-0.0847;-0.1821;-0.2559
0001374096;7.0198;2.6193;2.1620;-0.1380;-0.1667;-0.2727
0001374105;6.9576;2.3798;2.2434;-0.1476;-0.1454;-0.2701
0001374114;6.8498;2.1237;2.1189;-0.1399;-0.1246;-0.2602
0001374183;5.9496;2.8874;2.0518;0.1150;-0.1310;-0.0629
0001374192;6.2393;2.8491;1.9489;0.0811;-0.1240;-0.0358
0001374205;6.4141;2.8874;1.7382;0.0099;-0.1195;-0.0346
0001374214;6.4117;2.6288;1.6975;-0.0342;-0.1146;-0.0410
0001374227;6.6607;2.5953;1.5060;-0.0460;-0.1150;-0.0648
0001374236;6.4356;2.2889;1.4293;-0.0258;-0.1195;-0.0679
0001374248;6.3614;2.2697;1.2905;0.0249;-0.1315;-0.0718
0001374257;6.1866;2.3152;1.3767;0.0811;-0.1439;-0.0791
0001374266;6.1627;2.2817;1.5179;0.1231;-0.1623;-0.0891
0001374279;5.6120;2.3703;1.6281;0.1765;-0.1831;-0.0817
0001374288;5.3798;2.2817;1.6544;0.1961;-0.1828;-0.0562
0001374304;5.5617;2.5211;1.4748;0.2085;-0.1990;-0.0173
0001374313;5.4995;2.3679;1.4653;0.2117;-0.2165;-0.0075
0001374326;5.6144;2.1691;1.4293;0.2041;-0.2360;0.0051
0001374335;5.5234;1.8435;1.4509;0.2302;-0.2483;-0.0057
0001374344;5.6048;1.6328;1.3072;0.2691;-0.2575;-0.0192
0001374356;5.8802;1.6616;1.3958;0.3222;-0.2465;-0.0221
0001374365;5.8323;1.6281;1.3671;0.3728;-0.2426;-0.0340
0001374434;7.0485;3.3854;1.4150;0.0265;-0.0137;-0.0109
0001374443;6.7876;3.3064;1.3288;-0.0781;-0.0035;0.0286
0001374455;6.4787;3.0430;1.3719;-0.1896;0.0164;0.0958
0001374464;6.3782;2.8252;1.4006;-0.2366;0.0309;0.1448
0001374473;6.1842;2.5618;1.4102;-0.2686;0.0350;0.2032
0001374486;6.3398;2.1500;1.5802;-0.2348;0.0450;0.2685
0001374495;6.6487;2.2051;1.5443;-0.1765;0.0549;0.2906
0001374507;6.9743;2.0973;1.5658;-0.1001;0.0649;0.2729
0001374516;7.1874;2.2362;1.4748;-0.0537;0.0738;0.2305
0001374529;7.0270;2.3798;1.9154;-0.0028;0.0738;0.1696
0001374538;6.8498;2.7222;2.2051;0.0473;0.0500;0.1303
0001374547;6.7540;3.1436;2.2649;0.0742;0.0521;0.1017
0001374559;6.5625;3.2394;2.0782;0.0572;0.0504;0.0486
0001374568;6.3997;3.3112;1.8986;0.0160;0.0484;-0.0003
0001374581;6.0932;2.8611;1.7573;-0.0978;0.0489;-0.0453
0001374590;6.0358;2.6025;1.5945;-0.1923;0.0549;-0.0727
0001374602;5.9975;2.1332;1.4964;-0.2871;0.0470;-0.1179
0001374611;5.8778;1.9704;1.2594;-0.3258;0.0289;-0.1539
0001374624;5.6862;1.7813;1.3312;-0.3269;-0.0240;-0.1720
0001374633;5.3415;1.6185;1.4461;-0.2944;-0.0814;-0.1611
0001374642;5.1667;1.6855;1.5203;-0.2377;-0.1328;-0.1259
0001374654;5.0326;1.7526;1.2977;-0.1685;-0.1769;-0.0470
0001374663;5.1739;1.7406;1.1588;-0.1379;-0.1980;0.0225
0001374732;7.6734;3.7948;1.5993;-0.0159;-0.0612;0.0505
0001374741;7.3622;3.9456;1.6712;-0.0914;-0.0318;0.0787
0001374753;7.1706;4.1348;1.9034;-0.1787;-0.0019;0.1404
0001374762;7.1204;3.9768;2.2290;-0.2485;0.0120;0.2105
0001374771;6.8091;3.4644;2.5905;-0.3058;0.0168;0.2587
0001374784;6.9863;2.8563;2.6408;-0.3288;0.0468;0.2718
0001374793;6.6224;2.3583;2.4421;-0.3159;0.0782;0.2435
0001374805;6.4236;2.1859;1.9704;-0.2994;0.1160;0.1780
0001374814;6.2920;2.0853;1.5347;-0.3072;0.1368;0.1342
0001374827;5.7413;1.9201;0.8835;-0.3191;0.1572;0.0941
0001374836;5.3415;1.9489;0.7518;-0.3136;0.1510;0.0911
0001374845;5.0374;1.9178;0.9816;-0.2934;0.1282;0.1299
0001374857;5.1667;2.3032;1.4605;-0.1645;0.0524;0.2108
0001374866;5.2960;2.3750;1.5371;-0.0472;-0.0073;0.2605
0001374879;5.7102;2.8683;1.5562;0.0390;-0.0831;0.2719
0001374888;5.7365;3.0694;1.3455;0.0143;-0.1057;0.2348
0001374900;5.9400;3.5745;0.9122;-0.0857;-0.1223;0.1492
0001374909;5.5545;3.4237;0.5291;-0.1845;-0.1155;0.0974
0001374922;5.4588;3.2729;0.3831;-0.2836;-0.1042;0.0778
0001374931;5.7126;3.0742;0.4070;-0.2912;-0.1248;0.0947
0001374940;6.1962;2.9688;0.7063;-0.2570;-0.1266;0.1367
0001374952;7.0366;2.7892;1.2857;-0.1275;-0.1354;0.1689
0001374961;7.2425;2.6887;1.7741;-0.0326;-0.1480;0.1653
0001375028;6.6415;3.7397;1.8004;0.1402;-0.0005;0.1684
0001375037;6.9097;4.0175;2.2769;0.1643;-0.0237;0.1504
0001375049;7.2185;4.4484;2.9113;0.1487;-0.0388;0.0737
0001375058;7.1635;4.5562;3.1364;0.1077;-0.0290;-0.0225
0001375067;6.8857;4.6376;3.2465;0.0414;-0.0013;-0.1324
0001375080;5.9376;4.5921;2.7797;-0.1095;0.0440;-0.2526
0001375089;5.5881;4.4748;2.6528;-0.2070;0.0360;-0.2765
0001375101;5.8251;4.3215;2.7031;-0.2782;-0.0136;-0.2695
0001375110;6.0430;4.0031;2.8994;-0.2695;-0.0536;-0.2727
0001375123;6.3614;3.6392;3.2274;-0.1845;-0.1006;-0.2942
0001375132;6.1555;3.2872;3.4022;-0.1166;-0.1402;-0.3240
0001375144;6.1531;3.3279;3.3926;-0.0759;-0.1688;-0.3383
0001375153;6.0501;3.2585;3.3160;-0.0621;-0.1997;-0.3517
0001375162;5.8682;3.1939;3.0861;-0.0774;-0.2057;-0.3451
0001375175;5.7078;2.9257;2.8850;-0.1011;-0.2386;-0.3143
0001375184;5.7102;2.7485;2.7222;-0.1214;-0.2755;-0.2633
0001375196;6.1411;2.4684;2.7246;-0.1163;-0.3292;-0.2072
0001375205;6.6080;2.5091;2.7725;-0.0930;-0.3489;-0.1817
0001375218;7.1108;2.4684;2.7557;-0.0320;-0.3348;-0.1621
0001375227;7.3885;2.2266;2.6456;0.0093;-0.2962;-0.1552
0001375239;7.7835;2.5666;2.6432;0.0502;-0.2176;-0.1462
0001375248;8.1331;2.8419;2.7222;0.0713;-0.1671;-0.1350
0001375257;7.9966;3.0047;2.6001;0.0801;-0.1108;-0.1206
0001375326;7.2281;3.3016;3.0670;-0.0112;0.0935;0.0425
0001375335;7.1994;3.3830;3.1723;-0.0292;0.0938;0.0528
0001375347;6.9145;3.2130;2.9568;-0.0592;0.0885;0.0730
0001375356;6.8354;3.1699;2.9377;-0.0782;0.0758;0.0801
0001375369;6.7349;3.1101;2.7797;-0.1407;0.0662;0.0933
0001375378;6.6894;2.8252;2.4565;-0.1779;0.0609;0.0934
0001375387;6.7684;2.7031;2.3918;-0.2152;0.0585;0.0878
0001375399;6.7636;2.4732;2.2649;-0.2277;0.0618;0.0763
0001375408;7.1228;2.6600;2.3942;-0.2106;0.0444;0.0618
0001375421;6.9097;2.2577;2.5786;-0.1777;0.0360;0.0586
0001375430;7.0749;2.2075;2.7533;-0.1408;0.0246;0.0616
0001375442;7.0581;2.2051;2.9425;-0.1019;0.0225;0.0669
0001375451;6.8833;2.1548;2.9353;-0.0833;0.0161;0.0581
0001375460;6.9528;2.2841;2.8922;-0.0767;0.0181;0.0484
0001375473;6.7397;2.3942;2.8347;-0.1046;0.0234;0.0369
0001375482;6.9839;2.5905;2.7725;-0.1315;0.0337;0.0453
0001375494;6.6870;2.3272;2.8635;-0.1607;0.0436;0.0437
0001375503;6.7373;2.2769;3.0526;-0.1885;0.0608;0.0518
0001375516;7.0054;2.2625;2.9042;-0.2008;0.0779;0.0498
0001375525;6.9384;2.1237;2.8659;-0.1980;0.0978;0.0621
0001375534;7.1563;2.2122;2.8515;-0.1883;0.1055;0.0709
0001375546;7.0461;2.0423;2.8683;-0.1519;0.0978;0.0785
0001375555;7.0605;2.2529;2.7940;-0.1120;0.0874;0.0874
0001375624;6.7253;2.3272;2.3966;0.1428;-0.0193;0.0568
0001375633;7.0749;2.4493;2.2003;0.1532;-0.0292;0.0578
0001375645;7.1563;2.7605;2.0566;0.1496;-0.0433;0.0574
0001375654;7.1754;2.7677;1.9800;0.1370;-0.0408;0.0671
0001375663;7.1204;2.8012;2.0375;0.1372;-0.0429;0.0612
0001375676;7.1754;2.7390;2.0303;0.1330;-0.0365;0.0542
0001375685;7.4795;2.8395;2.1189;0.1442;-0.0398;0.0344
0001375697;7.2113;2.8204;2.1117;0.1448;-0.0353;0.0045
0001375706;7.2640;2.9137;1.9513;0.1348;-0.0333;-0.0049
0001375719;7.1419;2.6815;2.0446;0.1147;-0.0342;-0.0248
0001375728;7.0437;2.4397;2.0901;0.1095;-0.0453;-0.0410
0001375737;6.9025;2.0710;1.9369;0.1046;-0.0522;-0.0406
0001375749;6.8953;1.7933;1.7190;0.1115;-0.0646;-0.0420
0001375758;6.7995;1.5658;1.7789;0.1294;-0.0633;-0.0374
0001375771;6.7660;1.3503;1.7190;0.2044;-0.0530;-0.0553
0001375780;6.8666;1.2881;1.7693;0.2745;-0.0440;-0.0829
0001375791;6.9599;1.4198;1.7669;0.3580;-0.0276;-0.1132
0001375800;6.8402;1.3910;1.8076;0.3957;-0.0057;-0.1315
0001375814;6.7229;1.6281;1.7214;0.4028;0.0187;-0.1238
0001375823;6.6990;1.7286;1.6209;0.3852;0.0241;-0.1010
0001375832;6.8881;2.0039;1.4988;0.3421;0.0392;-0.0464
0001375845;6.9863;1.9106;1.6352;0.3186;0.0356;0.0164
0001375854;7.1204;1.7286;1.5826;0.3236;0.0389;0.0410
0001375923;6.8043;0.7542;1.0774;0.2902;0.1583;0.1532
0001375932;6.5888;0.6608;0.7638;0.2742;0.1617;0.1769
0001375941;6.4500;0.8092;0.4645;0.2443;0.1672;0.1996
0001375954;6.3063;1.1564;0.4669;0.2364;0.1460;0.1880
0001375963;6.4189;1.5443;0.6560;0.2687;0.1227;0.1227
0001375975;6.1914;1.6855;0.9936;0.3296;0.1096;-0.0092
0001375984;6.4117;2.3727;1.1277;0.3941;0.1009;-0.1295
0001375997;6.0717;2.8395;1.6544;0.4503;0.1106;-0.2610
0001376006;6.1004;3.1819;1.7238;0.4394;0.1159;-0.3095
0001376015;5.9448;3.2322;1.4269;0.3605;0.1118;-0.3058
0001376027;6.2249;3.5171;1.1396;0.2112;0.0778;-0.2499
0001376036;6.6391;3.4477;0.9361;0.0991;0.0578;-0.1839
0001376049;6.8139;3.0119;0.5028;-0.0238;0.0406;-0.1423
0001376058;6.8594;2.8970;0.4070;-0.0793;0.0402;-0.1430
0001376070;6.8211;2.8060;0.6464;-0.0951;0.0445;-0.2017
0001376079;6.8929;2.8252;1.0032;-0.0662;0.0645;-0.2658
0001376092;6.3327;3.0047;1.5419;0.0164;0.1021;-0.3487
0001376101;6.2465;3.0502;1.7980;0.0710;0.1222;-0.3812
0001376110;6.0166;3.1196;1.4868;0.0606;0.1302;-0.3585
0001376122;6.1651;3.1771;0.8811;-0.0400;0.1128;-0.2650
0001376131;6.5242;2.8994;0.5890;-0.1322;0.0941;-0.1720
0001376144;7.1323;2.7581;0.4717;-0.1949;0.0524;-0.0641
0001376153;7.3478;2.5762;0.3065;-0.1912;0.0340;-0.0076
0001376222;6.6248;4.5322;0.3232;0.0513;0.2245;-0.0798
0001376231;6.5960;4.5011;0.0311;-0.0374;0.1960;-0.0464
0001376240;6.4931;4.2258;0.3352;-0.0630;0.1531;-0.0326
0001376253;6.0047;3.8642;0.7446;-0.0305;0.1135;-0.0302
0001376262;5.8035;3.9361;0.9720;0.0040;0.0810;-0.0398
0001376274;5.5330;3.9552;1.1325;0.0079;0.0301;-0.0369
0001376283;5.6958;4.2665;1.3216;-0.0180;-0.0149;-0.0337
0001376296;6.0454;4.1587;1.2402;-0.0990;-0.0874;-0.0212
0001376305;6.5050;4.1539;1.1109;-0.1510;-0.1270;-0.0209
0001376314;6.8019;4.1827;1.0702;-0.1913;-0.1540;-0.0425
0001376326;6.9192;4.0749;0.9266;-0.2002;-0.1816;-0.0742
0001376335;6.7469;3.7397;0.7398;-0.1827;-0.1847;-0.0845
0001376348;6.6726;3.5362;0.9792;-0.1292;-0.1860;-0.0837
0001376357;6.7708;3.7733;1.0822;-0.1104;-0.1709;-0.0617
0001376369;6.7014;3.6464;1.1396;-0.1054;-0.1700;-0.0317
0001376378;6.6918;3.6631;1.1708;-0.1148;-0.1889;0.0063
0001376391;6.6750;4.3766;1.3743;-0.1051;-0.2511;0.1002
0001376400;6.2704;4.8123;1.3623;-0.0620;-0.3084;0.1823
0001376409;5.8419;5.0877;1.4868;0.0036;-0.3619;0.2609
0001376421;5.7341;5.3008;1.9417;0.1256;-0.4347;0.2711
0001376430;5.9831;5.4085;2.1572;0.1867;-0.4242;0.2218
0001376443;6.9815;5.5905;1.9465;0.1933;-0.3162;0.0941
0001376452;7.4101;5.0781;1.7430;0.1474;-0.2162;0.0163
0001376521;7.4723;1.9130;2.1859;-0.2098;0.2793;0.2922
0001376530;6.9384;2.1955;2.0758;-0.1613;0.2770;0.3130
0001376539;6.4021;2.4565;2.0638;-0.1132;0.2418;0.2906
0001376552;5.5402;2.6336;2.4541;-0.0325;0.1817;0.2437
0001376561;4.9967;2.9090;2.5139;0.0237;0.1256;0.1892
0001376573;4.6040;3.3782;2.8108;0.0550;0.0492;0.1168
0001376582;4.6376;3.5698;2.7677;0.0505;0.0007;0.0679
0001376595;4.9321;4.0223;2.6815;0.0104;-0.0562;-0.0113
0001376604;5.1667;3.8283;2.6025;-0.0242;-0.0853;-0.0669
0001376613;5.6288;3.7517;2.3942;-0.0662;-0.1196;-0.1383
0001376625;5.9065;3.4692;2.2338;-0.1342;-0.1431;-0.2176
0001376634;5.9711;3.1460;2.2170;-0.1527;-0.1623;-0.2721
0001376647;6.0741;2.7031;2.0207;-0.1552;-0.1936;-0.2994
0001376656;5.8993;2.2865;2.0518;-0.1366;-0.2233;-0.3052
0001376668;6.2704;2.0925;1.8268;-0.1214;-0.2483;-0.2810
0001376677;6.3159;2.1500;1.9249;-0.1010;-0.2868;-0.2665
0001376690;6.6798;2.2458;1.8938;-0.0766;-0.3068;-0.2193
0001376699;6.6774;2.3439;1.9992;-0.0608;-0.3174;-0.1937
0001376711;6.8474;2.4828;2.0351;-0.0541;-0.3052;-0.1486
0001376720;6.8307;2.8228;2.1117;-0.0554;-0.2990;-0.1311
0001376729;6.7038;2.5786;2.1931;-0.0544;-0.2803;-0.1222
0001376742;6.7445;2.7294;2.2098;-0.0508;-0.2497;-0.1096
0001376751;6.8426;2.8539;2.0782;-0.0604;-0.2201;-0.0949
0001376820;6.3422;2.6839;1.8387;-0.1127;-0.1605;-0.1154
0001376829;6.3949;2.5307;1.7502;-0.1258;-0.1568;-0.1167
0001376842;6.5721;2.5163;1.8100;-0.1243;-0.1587;-0.1163
0001376851;6.6224;2.4756;1.8196;-0.1135;-0.1645;-0.1054
0001376863;6.6152;2.4038;1.6999;-0.1037;-0.1789;-0.0966
0001376872;6.7445;2.5067;1.7957;-0.0917;-0.1772;-0.0830
0001376881;6.4907;2.5163;1.8196;-0.0853;-0.1753;-0.0682
0001376894;6.2752;2.5426;1.7861;-0.0653;-0.1741;-0.0485
0001376903;6.5050;2.6528;1.8148;-0.0641;-0.1652;-0.0334
0001376915;6.2177;2.7222;1.8196;-0.0654;-0.1568;-0.0244
0001376924;6.4859;2.9664;1.7286;-0.0598;-0.1537;-0.0306
0001376937;6.2249;2.5714;1.7238;-0.0538;-0.1478;-0.0501
0001376946;6.3494;2.6528;1.7238;-0.0381;-0.1527;-0.0698
0001376958;6.0597;2.4517;1.6688;-0.0117;-0.1516;-0.0887
0001376967;6.0837;2.3966;1.5778;0.0141;-0.1637;-0.1081
0001376976;5.9233;2.3200;1.4700;0.0245;-0.1640;-0.1092
0001376989;5.7078;1.9417;1.4533;0.0492;-0.1835;-0.1207
0001376998;5.8012;2.0159;1.3910;0.0601;-0.1935;-0.1246
0001377010;5.5282;1.8004;1.3695;0.0889;-0.2114;-0.1334
0001377019;5.7389;1.7957;1.3384;0.1278;-0.2290;-0.1419
0001377032;5.7197;1.7190;1.3838;0.1936;-0.2606;-0.1440
0001377041;5.6910;1.6472;1.5299;0.2385;-0.2951;-0.1482
0001377050;5.9903;1.7119;1.7142;0.2746;-0.3273;-0.1588
0001377119;5.8179;1.2522;1.5874;-0.0601;-0.4318;-0.3068
0001377128;5.9017;1.1875;1.5323;-0.1176;-0.4118;-0.3202
0001377141;6.2106;1.0989;1.4629;-0.1908;-0.3693;-0.3397
0001377150;6.3303;0.7781;1.1612;-0.2487;-0.3309;-0.3417
0001377162;6.8905;0.8715;0.9002;-0.3022;-0.2631;-0.3344
0001377171;6.9695;0.6752;0.6776;-0.3360;-0.2100;-0.3126
0001377184;7.3287;0.8284;0.1652;-0.3405;-0.1208;-0.2491
0001377193;7.6638;1.0918;-0.0455;-0.3082;-0.0593;-0.1872
0001377202;7.4939;1.1684;0.3352;-0.2214;-0.0136;-0.1107
0001377214;7.4508;1.7166;1.1923;-0.0236;0.0249;0.0433
0001377223;7.1706;1.9273;1.8028;0.1656;0.0185;0.1536
0001377236;6.9480;2.5355;1.9609;0.3591;0.0165;0.2486
0001377245;6.8761;3.0191;1.4605;0.3679;0.0592;0.2401
0001377257;6.7373;3.3519;0.9673;0.2825;0.1512;0.1717
0001377266;6.6367;3.4836;1.0870;0.1763;0.2085;0.1007
0001377275;6.2249;3.2633;1.2019;0.0930;0.2546;0.0396
0001377289;6.2153;3.2082;1.1349;0.0165;0.3211;-0.0052
0001377298;6.2369;3.2417;0.9242;-0.0011;0.3532;-0.0224
0001377311;6.2321;2.9592;1.2929;0.0262;0.3830;-0.0394
0001377320;6.3231;3.0598;1.4796;0.0718;0.3898;-0.0401
0001377332;6.3039;3.0670;1.3886;0.1163;0.4036;-0.0485
0001377341;6.2441;3.2441;1.3264;0.1318;0.4121;-0.0778
0001377350;5.8275;3.1460;0.9960;0.1142;0.4135;-0.1057
0001377419;4.6208;3.7757;0.9912;-0.0288;-0.1003;0.0052
0001377428;4.5274;3.8618;0.8260;-0.1070;-0.1527;0.0161
0001377440;4.9512;3.9145;0.9194;-0.1747;-0.1856;0.0669
0001377449;5.3391;3.6464;0.9553;-0.1889;-0.2032;0.1179
0001377462;6.1028;3.4429;1.0702;-0.1697;-0.2164;0.1647
0001377471;6.2824;3.0622;1.2402;-0.1366;-0.1960;0.1828
0001377483;6.3494;2.8515;1.2522;-0.0589;-0.1660;0.1672
0001377492;6.5410;3.1053;1.1516;-0.0124;-0.1211;0.1355
0001377501;6.2584;3.2322;0.9840;0.0417;-0.0833;0.1013
0001377514;5.9472;3.9097;0.8739;0.0572;-0.0561;0.0570
0001377523;5.6455;3.9768;0.9768;0.0278;-0.0318;0.0456
0001377535;5.3439;4.1731;1.2330;-0.0188;-0.0252;0.0277
0001377544;5.2457;4.2401;1.2546;-0.0641;-0.0220;0.0139
0001377557;5.3582;4.0965;1.2091;-0.1500;-0.0394;0.0179
0001377566;5.2337;3.8140;1.2186;-0.2141;-0.0558;0.0358
0001377575;5.4755;3.7110;1.2641;-0.2495;-0.0807;0.0324
0001377587;5.8179;3.7062;1.5538;-0.2754;-0.1066;0.0212
0001377596;5.6216;3.5051;1.7023;-0.2723;-0.1246;-0.0193
0001377609;5.7820;3.7469;1.8818;-0.2815;-0.1018;-0.0747
0001377618;5.8059;3.7182;1.9656;-0.2789;-0.0628;-0.1091
0001377630;5.7317;3.9313;2.1644;-0.2669;-0.0216;-0.1202
0001377639;5.6383;3.9337;2.2458;-0.2538;-0.0021;-0.0823
0001377708;6.0813;3.1843;2.4900;-0.3641;0.1295;0.0281
0001377717;5.6719;2.9688;2.6288;-0.3595;0.1414;0.0031
0001377726;5.2816;2.9928;2.6671;-0.3395;0.1280;-0.0276
0001377738;5.2098;3.1484;2.5809;-0.3016;0.0931;-0.0598
0001377747;5.1380;3.0694;2.5857;-0.2758;0.0533;-0.0825
0001377760;4.9464;3.2106;2.6911;-0.2356;-0.0164;-0.1184
0001377769;4.9752;3.2441;2.7270;-0.1904;-0.0687;-0.1655
0001377781;5.1643;3.2968;2.6600;-0.1202;-0.1026;-0.2284
0001377790;5.1092;3.1987;2.8467;-0.0661;-0.1338;-0.2690
0001377799;5.1906;3.1603;2.7557;-0.0293;-0.1567;-0.2934
0001377812;5.4037;2.9951;2.7222;-0.0096;-0.1739;-0.2579
0001377821;5.6743;2.8515;2.5283;-0.0052;-0.1731;-0.1953
0001377833;6.1292;2.5953;2.3559;0.0103;-0.1671;-0.1014
0001377842;6.6200;2.5809;2.3655;0.0458;-0.1625;-0.0353
0001377855;7.2065;2.3439;2.2529;0.1194;-0.1358;0.0301
0001377864;7.2688;2.1524;2.2553;0.1716;-0.1059;0.0594
0001377876;7.3358;2.3487;2.2529;0.2356;-0.0843;0.0727
0001377885;7.2449;2.4038;2.3296;0.2610;-0.0584;0.0799
0001377894;7.0318;2.6360;2.4517;0.2846;-0.0434;0.0733
0001377907;6.8354;2.9066;2.4756;0.2991;-0.0258;0.0686
0001377916;6.6607;3.0837;2.5809;0.2923;-0.0220;0.0596
0001377928;6.3494;3.1053;2.4062;0.2506;-0.0217;0.0472
0001377937;6.3470;3.4189;2.1668;0.2022;-0.0164;0.0416
0001378006;5.8155;2.9736;2.1883;-0.0033;-0.1863;0.0356
0001378015;5.8442;2.9616;2.1428;-0.0004;-0.2256;0.0245
0001378024;5.9328;2.9018;2.1500;-0.0079;-0.2427;0.0177
0001378036;6.2249;2.9856;2.2458;-0.0240;-0.2671;0.0089
0001378045;6.3159;3.0765;2.1548;-0.0386;-0.2832;0.0089
0001378058;6.4548;2.9233;2.2338;-0.0694;-0.2805;0.0128
0001378067;6.6415;2.8611;2.2673;-0.0861;-0.2710;0.0245
0001378079;6.5457;2.6312;2.2027;-0.1102;-0.2502;0.0417
0001378088;6.6295;2.5211;2.2721;-0.1158;-0.2410;0.0377
0001378101;6.6295;2.3870;2.4229;-0.1283;-0.2017;0.0492
0001378110;6.7421;2.2889;2.3583;-0.1226;-0.1877;0.0500
0001378119;6.5098;2.0758;2.2625;-0.1081;-0.1635;0.0612
0001378131;6.7540;2.1763;2.4134;-0.0598;-0.1398;0.0758
0001378140;6.6798;2.1404;2.3535;-0.0269;-0.1180;0.0970
0001378153;6.6607;2.3679;2.2410;0.0244;-0.0857;0.1182
0001378162;6.6583;2.3990;2.2314;0.0512;-0.0749;0.1308
0001378174;6.6152;2.4014;2.2146;0.0722;-0.0485;0.1434
0001378183;6.6200;2.4780;2.3128;0.0677;-0.0218;0.1601
0001378192;6.5864;2.5139;2.2865;0.0683;-0.0109;0.1620
0001378205;6.7924;2.3631;2.2841;0.0541;-0.0012;0.1687
0001378214;6.8738;2.2098;2.3080;0.0489;0.0037;0.1736
0001378226;6.8378;1.8172;2.2194;0.0537;0.0047;0.1733
0001378235;7.0653;1.6592;1.9920;0.0711;-0.0032;0.1703
0001378304;7.4412;0.5435;1.7047;0.4239;0.0320;0.2433
0001378313;7.3981;0.5962;1.5299;0.4261;0.0346;0.2683
0001378322;7.4651;0.9409;1.3575;0.3885;0.0424;0.3096
0001378334;7.3287;0.9266;1.0702;0.3175;0.0445;0.3473
0001378343;7.4268;1.0415;0.8045;0.2457;0.0362;0.3605
0001378356;7.2329;1.1971;0.4788;0.1581;0.0199;0.3272
0001378365;7.1874;1.4006;0.5291;0.1081;0.0349;0.2863
0001378374;6.5673;1.3551;0.9218;0.0863;0.0534;0.2254
0001378386;6.6176;1.6927;1.3862;0.1037;0.0702;0.1318
0001378395;6.7349;2.0207;1.4820;0.1259;0.0869;0.0818
0001378408;6.4380;2.0566;1.3048;0.1236;0.0970;0.0365
0001378417;6.4452;2.2553;0.9074;0.0838;0.0879;0.0286
0001378429;6.5817;2.5019;0.8428;0.0004;0.0789;0.0500
0001378438;6.9168;2.4134;0.9864;-0.0401;0.0746;0.0596
0001378447;6.8761;2.2841;0.9529;-0.0510;0.0783;0.0520
0001378460;7.1443;2.4134;0.8595;-0.0212;0.0653;0.0107
0001378469;7.2927;2.7270;0.6273;0.0087;0.0616;-0.0252
0001378481;6.9791;3.0143;0.3950;0.0572;0.0274;-0.0854
0001378490;6.2201;2.8635;0.7590;0.0806;0.0200;-0.1127
0001378503;6.0166;3.1029;1.2857;0.1146;-0.0088;-0.1394
0001378512;5.9664;3.0598;1.3982;0.1222;-0.0337;-0.1435
0001378521;5.8347;3.1029;1.4940;0.0969;-0.0648;-0.1332
0001378533;5.9544;2.9688;1.0918;0.0325;-0.1077;-0.1033
0001378542;6.3997;3.1268;0.5674;-0.0269;-0.1314;-0.0754
0001378611;7.3071;3.2561;0.9481;0.1286;-0.1503;-0.0855
0001378620;7.5561;3.4524;0.4645;0.1031;-0.1330;-0.0536
0001378632;7.7788;3.4453;0.1867;0.0281;-0.1034;-0.0028
0001378641;7.8721;3.5051;0.0910;-0.0211;-0.0830;0.0131
0001378654;7.7596;3.4860;0.0934;-0.0377;-0.0330;0.0093
0001378663;7.6734;3.4141;0.2346;-0.0199;0.0071;-0.0183
0001378672;7.4579;3.5123;0.1939;0.0135;0.0344;-0.0560
0001378684;7.0413;3.7302;0.3903;0.0477;0.0743;-0.0959
0001378693;6.6942;3.7158;0.4717;0.0624;0.0953;-0.1135
0001378706;6.5122;3.9217;0.5650;0.0645;0.0938;-0.0867
0001378715;6.6415;4.1300;0.3496;0.0416;0.0854;-0.0376
0001378727;6.7157;4.1755;0.2514;0.0113;0.0470;0.0083
0001378736;7.1275;4.3311;0.4788;0.0200;0.0153;0.0161
0001378745;7.2832;4.4748;0.5962;0.0396;-0.0021;-0.0052
0001378758;7.1778;4.7669;0.7183;0.0817;-0.0141;-0.0673
0001378767;6.9599;4.7285;0.8739;0.0759;-0.0101;-0.0985
0001378779;7.2065;5.1571;0.8164;0.0301;-0.0044;-0.1079
0001378788;6.8402;5.1140;0.9457;-0.0274;0.0207;-0.0697
0001378802;7.1156;5.1954;0.9960;-0.1094;0.0493;0.0333
0001378811;7.3191;5.2481;0.6919;-0.1490;0.0663;0.0927
0001378820;7.4172;4.9368;0.5507;-0.1648;0.0797;0.1170
0001378889;5.9137;4.4460;1.9561;0.0501;-0.0719;0.1703
0001378898;6.3662;4.1946;1.8387;0.0296;-0.0974;0.2222
0001378910;7.3143;4.0582;1.5682;0.0147;-0.1268;0.1985
0001378919;7.5441;3.6847;1.7071;0.0232;-0.1367;0.1410
0001378932;7.6231;3.4716;1.9297;0.0426;-0.1079;0.0424
0001378941;7.6495;3.1627;2.2051;0.0538;-0.0713;-0.0129
0001378950;7.4747;3.0909;2.4253;0.0462;-0.0416;-0.0478
0001378962;7.0701;2.8754;2.5786;0.0095;-0.0171;-0.0652
0001378971;6.6559;2.8491;2.6647;-0.0304;-0.0237;-0.0648
0001378984;6.2608;2.5977;2.6791;-0.0847;-0.0425;-0.0418
0001378993;5.8299;2.3535;2.6911;-0.1053;-0.0602;-0.0181
0001379005;5.9616;2.5115;2.5642;-0.0911;-0.1073;-0.0125
0001379014;5.8442;2.4636;2.5283;-0.0815;-0.1455;-0.0173
0001379027;5.6695;2.6767;2.2122;-0.0663;-0.2089;-0.0505
0001379036;5.4013;2.8347;2.1931;-0.0509;-0.2553;-0.0989
0001379045;5.3271;2.8874;2.1979;-0.0418;-0.2847;-0.1259
0001379057;5.4181;2.9233;2.2458;-0.0241;-0.3303;-0.1643
0001379066;5.7054;3.1196;2.0518;-0.0189;-0.3589;-0.2034
0001379079;6.1244;2.9377;1.9130;-0.0246;-0.3701;-0.2485
0001379088;6.5338;3.0335;1.9824;-0.0226;-0.3749;-0.2806
0001379100;6.9168;2.9928;1.6927;-0.0163;-0.3612;-0.3023
0001379109;6.9983;2.8539;1.7885;-0.0217;-0.3379;-0.2926
0001379178;6.8881;2.9042;2.0351;-0.1569;-0.1268;-0.1507
0001379187;6.4572;2.8180;2.0183;-0.1887;-0.1034;-0.1547
0001379196;6.6702;2.7509;1.9369;-0.2094;-0.0889;-0.1563
0001379208;6.4452;2.4852;1.8723;-0.2381;-0.0813;-0.1583
0001379217;6.2441;2.3104;1.8076;-0.2290;-0.0870;-0.1731
0001379230;6.1603;2.2697;1.7861;-0.2040;-0.0959;-0.1787
0001379239;6.0765;2.1691;1.7454;-0.1721;-0.1027;-0.1760
0001379251;6.2130;2.2649;1.6328;-0.1334;-0.1088;-0.1685
0001379260;6.2608;2.4229;1.6927;-0.1136;-0.1015;-0.1553
0001379273;6.3590;2.5139;1.5754;-0.0997;-0.1014;-0.1320
0001379282;6.3997;2.5067;1.6257;-0.0954;-0.1043;-0.1215
0001379291;6.6487;2.6480;1.7933;-0.1029;-0.1062;-0.1108
0001379303;6.8235;2.7342;1.7957;-0.1356;-0.0975;-0.0922
0001379312;6.8857;2.9113;1.7142;-0.1645;-0.1038;-0.0931
0001379325;6.6679;2.8036;1.8268;-0.2270;-0.0977;-0.0883
0001379334;6.5601;2.8180;1.7765;-0.2734;-0.0925;-0.0855
0001379346;6.2584;2.4014;1.8364;-0.3134;-0.0885;-0.0962
0001379355;5.9999;2.2362;1.8531;-0.3076;-0.0869;-0.1203
0001379368;6.0094;1.9297;1.8268;-0.2529;-0.0957;-0.1548
0001379377;5.8299;1.8340;1.5562;-0.2010;-0.0899;-0.1543
0001379386;5.8275;1.7238;1.5467;-0.1494;-0.1077;-0.1561
0001379398;5.8993;1.5826;1.5993;-0.1009;-0.1063;-0.1354
0001379407;6.0406;1.5562;1.6400;-0.0652;-0.1100;-0.1224
0001379476;7.1563;2.7294;1.7502;-0.0654;-0.0024;0.0189
0001379485;6.9887;2.5498;1.7238;-0.1581;0.0216;0.0477
0001379497;6.5912;1.9800;1.6951;-0.2671;0.0601;0.0642
0001379506;6.5481;1.7478;1.8268;-0.3248;0.0979;0.0662
0001379519;6.6080;1.2210;1.8124;-0.3603;0.1548;0.0582
0001379528;6.4524;0.8116;1.6975;-0.3668;0.2020;0.0502
0001379537;6.3446;0.6201;1.6305;-0.3555;0.2414;0.0384
0001379549;6.2991;0.2729;1.5395;-0.3126;0.2847;0.0209
0001379558;6.2560;0.1676;1.7693;-0.2602;0.2903;0.0164
0001379571;6.2680;0.3735;1.9489;-0.1720;0.2807;0.0101
0001379580;5.9783;0.5243;1.7813;-0.1031;0.2790;-0.0100
0001379592;5.7197;0.7518;1.4988;-0.0195;0.2862;-0.0282
0001379601;5.6288;1.2282;1.3240;0.0230;0.2819;-0.0232
0001379610;5.5833;1.4868;1.4198;0.0601;0.2683;-0.0145
0001379623;5.7557;1.9082;1.4557;0.0942;0.2333;0.0176
0001379632;5.8203;1.9920;1.6712;0.1139;0.2070;0.0265
0001379644;5.9113;2.4612;1.6831;0.1275;0.1997;0.0361
0001379653;5.8083;2.7366;1.6305;0.1283;0.1876;0.0350
0001379666;5.8658;3.4405;1.7430;0.0994;0.1490;0.0703
0001379675;5.6767;3.9265;1.8866;0.0714;0.1182;0.1224
0001379684;5.4899;4.2784;2.0135;0.0394;0.0790;0.1869
0001379696;5.7844;4.5131;1.8914;-0.0274;0.0337;0.2506
0001379705;5.8706;4.3934;1.9824;-0.1038;0.0238;0.2694
0001379774;5.8682;2.1332;1.2450;-0.2392;0.2297;-0.1680
0001379783;5.5857;2.2529;1.3001;-0.2200;0.2292;-0.1747
0001379795;4.9895;2.6384;1.5993;-0.1533;0.1837;-0.1049
0001379804;4.9297;2.8730;1.6520;-0.0858;0.1280;-0.0324
0001379813;4.6663;3.1795;1.5227;-0.0229;0.0717;0.0384
0001379826;4.8914;3.1771;1.3431;0.0047;0.0089;0.0957
0001379835;5.5833;3.3543;1.1636;-0.0029;-0.0147;0.0933
0001379847;6.2010;3.3878;1.0989;-0.0310;0.0011;0.0715
0001379856;6.4859;3.4093;1.1756;-0.0361;0.0264;0.0572
0001379869;6.9312;3.2130;1.1372;-0.0510;0.0941;0.0488
0001379878;7.1994;3.3567;1.2043;-0.0498;0.1502;0.0624
0001379887;6.9121;3.2777;1.3384;-0.0510;0.2082;0.0737
0001379899;6.8761;3.3830;1.6233;-0.0224;0.2631;0.1059
0001379908;6.7756;3.3926;1.6137;-0.0209;0.3018;0.1240
0001379921;6.6128;3.3351;1.5826;-0.0314;0.3320;0.1186
0001379930;6.3973;3.1987;1.6281;-0.0356;0.3332;0.0909
0001379942;6.3518;3.0239;1.3575;-0.0280;0.3190;0.0377
0001379951;6.1004;2.8228;1.3719;-0.0276;0.3171;0.0057
0001379960;5.8442;2.6408;1.5395;-0.0063;0.3156;-0.0302
0001379973;5.7150;2.7174;1.9249;0.0476;0.3136;-0.0809
0001379982;5.8490;2.9592;1.9680;0.0779;0.3321;-0.1130
0001379994;5.9304;3.1268;1.7813;0.1166;0.3627;-0.1416
0001380003;6.0023;3.3543;1.8364;0.1283;0.3766;-0.1246
0001380070;6.6990;3.4692;3.5003;0.0137;0.3150;-0.0987
0001380079;6.1770;3.4069;3.2992;0.0253;0.3010;-0.1909
0001380088;5.6886;3.5386;2.8323;0.0486;0.2781;-0.2629
0001380100;4.7836;3.6272;2.5498;0.0601;0.2431;-0.2541
0001380109;4.5945;3.8882;2.5450;0.0859;0.1675;-0.2106
0001380122;4.3622;4.0510;2.7222;0.1174;0.0016;-0.1322
0001380131;4.3167;3.9720;2.7031;0.1083;-0.1182;-0.1085
0001380143;4.0534;3.8451;2.5618;0.0342;-0.2726;-0.1268
0001380152;3.5602;3.4524;2.5211;-0.0420;-0.3916;-0.1837
0001380165;3.6583;3.1125;2.4924;-0.1286;-0.5293;-0.2847
0001380174;3.7685;2.8347;2.3966;-0.1414;-0.5965;-0.3492
0001380183;4.1922;2.6576;2.4469;-0.1256;-0.6326;-0.4014
0001380195;5.2122;2.7198;2.4134;-0.0413;-0.6547;-0.4397
0001380204;5.9592;2.8635;2.3128;0.0357;-0.6474;-0.4478
0001380217;6.6894;3.2513;2.2122;0.1563;-0.5776;-0.4421
0001380226;7.1275;3.4022;2.2458;0.2093;-0.5083;-0.4157
0001380238;7.7117;3.7230;2.1835;0.2415;-0.4014;-0.3380
0001380247;8.0278;3.9863;2.2003;0.2301;-0.3176;-0.2571
0001380256;7.9942;4.1372;2.4086;0.2086;-0.2521;-0.1759
0001380270;7.7835;4.1420;2.5594;0.1358;-0.1696;-0.0746
0001380279;7.3933;4.1851;2.5067;0.0810;-0.1375;-0.0309
0001380292;6.4883;3.8403;2.5067;-0.0065;-0.1238;0.0273
0001380301;5.8945;3.4860;2.5379;-0.0529;-0.1220;0.0677
0001380370;6.4308;2.9233;2.7078;0.0394;-0.1288;0.2049
0001380379;6.2345;2.9449;2.6408;0.0125;-0.1364;0.1985
0001380392;6.1579;3.4285;2.7461;-0.0749;-0.1450;0.1693
0001380401;6.3039;3.5051;2.6600;-0.1448;-0.1525;0.1448
0001380410;6.0765;3.2633;2.7174;-0.2265;-0.1484;0.1302
0001380422;6.4093;3.2346;2.4708;-0.3223;-0.1584;0.1005
0001380431;6.4763;2.9281;2.4421;-0.3834;-0.1579;0.0874
0001380444;6.6655;2.6815;2.6887;-0.4005;-0.1553;0.0758
0001380453;6.3327;2.2362;2.8323;-0.3749;-0.1603;0.0642
0001380465;6.4380;2.0662;2.9473;-0.3114;-0.1559;0.0638
0001380474;6.0980;1.7095;2.9904;-0.2527;-0.1591;0.0462
0001380483;6.2704;1.9992;2.9640;-0.2117;-0.1460;0.0422
0001380496;6.1818;2.0327;2.7605;-0.1851;-0.1379;0.0229
0001380505;6.3207;2.1763;2.6983;-0.1793;-0.1252;0.0242
0001380517;6.2920;2.1284;2.5211;-0.1960;-0.1123;0.0278
0001380526;6.6176;2.3343;2.5283;-0.2092;-0.0938;0.0350
0001380539;6.6415;2.2960;2.6600;-0.2044;-0.0777;0.0466
0001380548;6.6104;2.2146;2.4876;-0.1795;-0.0640;0.0546
0001380560;6.6056;2.1787;2.3463;-0.1415;-0.0454;0.0504
0001380569;6.5098;2.2218;2.2218;-0.1170;-0.0240;0.0597
0001380578;6.4572;2.1835;2.1763;-0.0931;-0.0245;0.0512
0001380591;6.1435;2.3703;2.0399;-0.0437;-0.0244;0.0638
0001380600;6.1196;2.4229;2.0830;-0.0137;-0.0298;0.0701
0001380669;6.6655;2.5738;1.6496;0.1765;0.0999;0.1274
0001380678;6.5027;2.5666;1.5921;0.1527;0.1242;0.1382
0001380691;6.4787;2.5714;1.7214;0.1270;0.1483;0.1332
0001380700;6.3422;2.3487;1.7214;0.1114;0.1688;0.1280
0001380709;6.2704;2.1428;1.7119;0.0915;0.1909;0.1248
0001380721;6.2345;1.6568;1.7047;0.1019;0.2213;0.1254
0001380730;6.2153;1.3503;1.7837;0.1212;0.2489;0.1343
0001380743;6.5386;0.7374;1.7454;0.1957;0.3060;0.1440
0001380752;6.8139;0.3304;1.6089;0.2603;0.3460;0.1597
0001380764;7.1706;-0.1101;1.5395;0.3778;0.4081;0.1896
0001380773;7.3646;-0.4094;1.5419;0.4730;0.4482;0.2054
0001380782;7.4531;-0.4932;1.5443;0.5625;0.4815;0.2361
0001380795;7.5178;-0.4453;1.4605;0.6989;0.5155;0.2709
0001380804;7.3957;-0.1748;1.2546;0.7685;0.5244;0.3036
0001380816;7.3119;0.4094;0.9122;0.7983;0.4962;0.3464
0001380825;6.8450;0.6345;0.4956;0.7593;0.4610;0.3744
0001380834;6.5338;0.7685;0.3400;0.6686;0.4261;0.4032
0001380847;6.5218;1.0965;0.0455;0.4986;0.3697;0.4275
0001380856;6.2345;1.1468;-0.1844;0.3790;0.3162;0.4219
0001380868;6.0741;1.2953;-0.1317;0.2569;0.2511;0.3858
0001380877;6.2537;1.5874;-0.1053;0.2117;0.2104;0.3187
0001380890;6.3087;2.1476;0.4334;0.2085;0.1719;0.1753
0001380899;6.3805;2.4134;1.1325;0.2465;0.1807;0.0586
0001380908;6.2584;2.9784;1.5969;0.3080;0.1837;-0.0548
0001380977;6.0430;3.2274;1.1205;0.0312;-0.1074;-0.1548
0001380986;5.8586;3.0670;1.1085;0.0765;-0.1446;-0.1784
0001380999;6.1770;3.4477;0.5507;0.1134;-0.1752;-0.2090
0001381008;6.1770;3.6727;0.7230;0.1327;-0.1744;-0.2224
0001381020;6.2441;3.8499;0.8356;0.1583;-0.1747;-0.2306
0001381029;6.6272;4.3407;0.8787;0.1424;-0.1541;-0.2181
0001381042;6.7804;4.5322;0.9505;0.1127;-0.1327;-0.1915
0001381051;7.0222;4.4125;1.0894;0.0698;-0.1215;-0.1771
0001381060;7.4244;4.5873;0.8236;0.0085;-0.0959;-0.1516
0001381072;7.5154;4.6017;0.5507;-0.0833;-0.0667;-0.1240
0001381081;7.2042;4.4532;0.3112;-0.1478;-0.0514;-0.1107
0001381094;7.0725;4.4125;0.3184;-0.2222;-0.0196;-0.0835
0001381103;6.9647;4.2593;0.4238;-0.2541;0.0133;-0.0558
0001381115;7.0102;4.1587;0.3831;-0.2838;0.0730;-0.0250
0001381124;7.1970;4.1659;0.4836;-0.3011;0.1079;-0.0021
0001381133;6.9025;3.7876;0.4142;-0.3162;0.1411;0.0310
0001381146;7.1730;3.6176;0.3352;-0.2948;0.1724;0.0849
0001381155;7.0390;3.4788;0.1101;-0.2685;0.1883;0.1136
0001381167;7.2568;3.5410;0.3184;-0.1955;0.1939;0.1138
0001381176;6.9887;3.5147;0.6273;-0.1384;0.2002;0.1132
0001381189;6.7947;3.4931;0.9625;-0.0875;0.2142;0.1138
0001381198;6.6870;3.9361;0.8452;-0.0894;0.2101;0.1207
0001381207;6.4045;4.1851;0.7638;-0.1166;0.2041;0.1164
0001381276;6.1818;3.7828;1.1013;-0.3898;0.1358;0.0645
0001381285;6.2608;3.5602;1.3838;-0.3908;0.1119;0.0364
0001381298;5.9137;3.7828;1.7717;-0.3123;0.0381;0.0811
0001381307;5.6790;4.2880;2.0782;-0.2205;-0.0377;0.1805
0001381319;5.4660;4.4508;2.8132;-0.0564;-0.1331;0.3467
0001381328;5.6216;4.2808;3.1987;0.0653;-0.1933;0.4443
0001381341;6.4620;4.0941;3.4357;0.1422;-0.1885;0.4463
0001381350;6.9719;3.7278;3.2178;0.1171;-0.1234;0.3812
0001381359;7.4843;3.4333;2.9185;0.0671;-0.0550;0.2878
0001381371;8.0302;2.8706;2.7102;-0.0061;0.0325;0.1823
0001381380;8.5617;2.4684;2.7007;-0.0609;0.0915;0.1251
0001381393;8.4324;1.7166;2.6911;-0.1486;0.1801;0.0810
0001381402;8.2744;1.5083;2.8252;-0.1753;0.2192;0.0669
0001381414;7.5705;1.5419;2.9329;-0.1584;0.2590;0.0568
0001381423;6.8091;1.5036;2.8180;-0.1172;0.2590;0.0534
0001381432;6.1962;1.9872;2.8276;-0.0654;0.2182;0.0438
0001381445;5.1068;2.4157;2.8659;-0.0031;0.1334;0.0372
0001381454;4.9033;2.8036;2.9209;0.0044;0.0624;0.0294
0001381466;4.4580;3.0981;2.6839;-0.0041;-0.0349;-0.0020
0001381475;4.2473;3.1149;2.5690;-0.0245;-0.1118;-0.0261
0001381488;4.6352;3.2394;2.1979;-0.0460;-0.2289;-0.0742
0001381497;4.7764;3.0837;2.0590;-0.0580;-0.3039;-0.1029
0001381506;5.0182;2.8635;2.0016;-0.0187;-0.3786;-0.1488
0001381575;7.7907;3.4141;2.2266;0.0734;-0.3589;-0.2609
0001381584;7.4436;3.2082;2.2913;0.0249;-0.3319;-0.2638
0001381597;7.0916;3.1340;2.0662;-0.0548;-0.3038;-0.2541
0001381606;6.8378;3.0287;2.1596;-0.1058;-0.2855;-0.2418
0001381620;6.2321;2.6528;2.1476;-0.1723;-0.2836;-0.2221
0001381629;6.2058;2.7438;2.0016;-0.1917;-0.3004;-0.2113
0001381642;5.8562;2.4900;2.0279;-0.2088;-0.3182;-0.1951
0001381651;5.7341;2.4612;2.0470;-0.1931;-0.3416;-0.1848
0001381660;5.9376;2.6193;1.8435;-0.1785;-0.3617;-0.1811
0001381672;5.7700;2.3367;1.6664;-0.1378;-0.3925;-0.1871
0001381681;6.2680;2.4948;1.6352;-0.1115;-0.4166;-0.1917
0001381694;6.1986;2.3080;1.5347;-0.0719;-0.4361;-0.1867
0001381703;6.6056;2.5091;1.5634;-0.0458;-0.4491;-0.1941
0001381715;7.0270;2.7557;1.6065;-0.0394;-0.4282;-0.1876
0001381724;7.1539;2.6600;1.6089;-0.0285;-0.4078;-0.1855
0001381737;6.8474;2.6935;1.5706;-0.0346;-0.3818;-0.1799
0001381746;6.9647;2.8970;1.4533;-0.0502;-0.3659;-0.1773
0001381755;6.8546;2.8826;1.4389;-0.0655;-0.3556;-0.1720
0001381767;6.5625;2.7916;1.5083;-0.0729;-0.3324;-0.1667
0001381776;6.5434;2.8491;1.5395;-0.0697;-0.3276;-0.1685
0001381845;6.7373;2.3727;1.4389;-0.0097;-0.2634;-0.1170
0001381854;6.9408;2.2051;1.5490;0.0109;-0.2434;-0.1069
0001381867;7.0174;2.3870;1.4844;0.0382;-0.2281;-0.0955
0001381876;6.9959;2.3008;1.4581;0.0406;-0.2178;-0.0866
0001381888;6.6559;2.0279;1.0726;0.0312;-0.1940;-0.0691
0001381897;6.6248;1.6712;1.1013;0.0330;-0.1948;-0.0608
0001381906;6.2369;1.3336;1.0558;0.0338;-0.1837;-0.0350
0001381919;6.3805;1.4006;0.9936;0.0545;-0.1860;-0.0077
0001381928;6.5649;1.2617;1.1612;0.0831;-0.2005;0.0120
0001381940;6.6559;1.0965;1.4676;0.1332;-0.2242;0.0370
0001381949;6.5529;1.0056;1.5203;0.1609;-0.2310;0.0525
0001381962;6.5290;1.3168;1.3336;0.1836;-0.2395;0.0209
0001381971;6.3542;1.4269;0.9002;0.1647;-0.2345;-0.0109
0001381980;6.2441;1.6903;0.6225;0.1204;-0.2376;-0.0480
0001381992;6.1148;1.8962;0.6608;0.0269;-0.2477;-0.0717
0001382001;6.0262;1.9824;0.7374;-0.0498;-0.2638;-0.0725
0001382014;5.8969;2.0087;1.1325;-0.1419;-0.3152;-0.0773
0001382023;5.9951;2.2218;1.4988;-0.1965;-0.3533;-0.0767
0001382035;5.9233;2.0183;1.5490;-0.2689;-0.4068;-0.0767
0001382044;6.0190;1.9920;1.3719;-0.3477;-0.4233;-0.0847
0001382113;7.5202;0.7877;2.4373;-0.1359;-0.2998;0.1462
0001382122;7.6638;0.9218;2.2793;-0.0075;-0.2497;0.1334
0001382131;7.6567;1.3048;1.7621;0.0357;-0.1893;0.0809
0001382143;7.4124;1.7621;1.1899;0.0101;-0.1027;-0.0005
0001382152;7.0892;2.0518;0.8691;-0.0493;-0.0358;-0.0366
0001382165;6.2704;2.2146;0.6273;-0.1194;0.0361;-0.0494
0001382174;6.0334;2.2386;0.6321;-0.1387;0.0589;-0.0349
0001382186;5.5737;2.3343;0.9481;-0.1326;0.0706;0.0217
0001382195;5.5976;2.4445;1.3479;-0.0659;0.0608;0.0874
0001382204;5.7676;2.7461;1.5634;0.0452;0.0445;0.1412
0001382217;5.9041;3.3303;1.7789;0.2193;0.0019;0.1986
0001382226;6.1866;4.1731;1.3910;0.2763;-0.0201;0.2160
0001382238;6.3590;4.8459;1.0463;0.2670;-0.0175;0.2184
0001382247;6.4212;5.1930;1.0582;0.2046;-0.0105;0.2105
0001382260;6.6631;5.6048;1.1420;0.0482;0.0008;0.2144
0001382269;6.6367;5.2912;1.1756;-0.0837;-0.0040;0.1977
0001382278;6.5601;4.7669;1.1875;-0.1845;-0.0116;0.1447
0001382290;6.5098;4.0318;1.5060;-0.2701;0.0165;0.0496
0001382299;6.3901;3.8690;1.6233;-0.2753;0.0285;-0.0530
0001382312;6.0693;3.9911;1.7023;-0.2587;0.0602;-0.1748
0001382321;5.4755;4.1180;1.7909;-0.2310;0.0620;-0.2253
0001382333;5.4061;4.5705;1.8890;-0.2080;0.0346;-0.2401
0001382342;5.4277;4.9560;2.3511;-0.1888;0.0019;-0.2277
0001382411;6.0932;3.6081;2.9185;-0.5349;-0.0498;-0.3421
0001382420;6.5553;3.5099;3.0550;-0.4403;-0.0589;-0.2024
0001382429;6.9767;3.3830;3.2250;-0.3127;-0.0697;-0.0544
0001382441;7.5776;3.1388;3.6727;-0.1559;-0.0759;0.0667
0001382450;7.9464;3.1987;3.9217;-0.0803;-0.0461;0.0574
0001382463;7.7716;3.0119;4.0438;-0.0361;0.0238;-0.0951
0001382472;7.4244;3.3567;3.8164;-0.0592;0.0967;-0.2081
0001382484;6.3542;3.5578;3.8427;-0.0950;0.1478;-0.2890
0001382493;5.8514;3.6152;3.7613;-0.1227;0.1478;-0.2665
0001382502;5.5091;3.6871;3.6775;-0.1432;0.1191;-0.2090
0001382515;5.6048;3.1053;3.8786;-0.1548;0.0743;-0.1174
0001382524;5.9903;2.7557;3.8978;-0.1664;0.0341;-0.0795
0001382536;6.1986;2.0973;4.0031;-0.1823;-0.0161;-0.0655
0001382545;6.1363;1.6664;3.9217;-0.1909;-0.0474;-0.0843
0001382558;6.0023;1.0798;3.8858;-0.1917;-0.0771;-0.1315
0001382567;5.7964;0.7015;3.6943;-0.1712;-0.0802;-0.1518
0001382579;5.8419;0.6488;3.6224;-0.1057;-0.1010;-0.1741
0001382588;5.8754;0.7326;3.3615;-0.0340;-0.1223;-0.1751
0001382597;6.1699;0.9673;3.0813;0.0442;-0.1503;-0.1613
0001382610;6.3087;1.3288;2.8706;0.1576;-0.1809;-0.1259
0001382619;6.3614;1.5778;2.7677;0.2362;-0.1905;-0.1005
0001382631;6.6607;2.1931;2.5953;0.3200;-0.1804;-0.0590
0001382640;6.7564;2.6025;2.6480;0.3687;-0.1697;-0.0360
0001382709;6.5266;3.2705;2.5570;0.2679;-0.0735;0.0620
0001382718;6.7133;3.2513;2.5115;0.2053;-0.0721;0.0785
0001382730;6.7947;3.1149;2.2841;0.1214;-0.0803;0.0754
0001382739;6.6607;3.0358;2.3415;0.0869;-0.0999;0.0521
0001382748;6.4404;2.8635;2.3415;0.0673;-0.1043;0.0277
0001382761;6.0908;2.8635;2.4397;0.0762;-0.1387;-0.0148
0001382770;5.8419;2.7749;2.3655;0.0871;-0.1696;-0.0304
0001382782;5.3678;2.7390;2.2960;0.1058;-0.2122;-0.0301
0001382791;5.6910;2.8659;2.1596;0.1148;-0.2437;-0.0320
0001382804;5.8658;2.7940;2.0662;0.1094;-0.2826;-0.0300
0001382813;5.9783;2.7054;1.9944;0.1059;-0.2919;-0.0341
0001382822;6.4452;2.8467;2.1093;0.0941;-0.2883;-0.0413
0001382834;6.5864;2.7270;2.1284;0.0953;-0.2753;-0.0629
0001382843;6.8115;2.7318;2.1284;0.1018;-0.2595;-0.0722
0001382856;6.9576;2.6624;2.0279;0.1063;-0.2250;-0.0795
0001382865;6.8809;2.6264;1.9728;0.1204;-0.2097;-0.0769
0001382877;6.6176;2.5714;1.9369;0.1107;-0.1779;-0.0596
0001382886;6.5577;2.4852;1.9656;0.1085;-0.1681;-0.0389
0001382895;6.4236;2.3463;1.9417;0.1047;-0.1506;-0.0035
0001382908;6.2920;1.8842;1.9249;0.1017;-0.1423;0.0508
0001382917;6.2177;1.7549;1.6855;0.1122;-0.1514;0.0762
0001382929;6.2848;1.7214;1.5730;0.1092;-0.1412;0.1164
0001382938;6.2345;1.5179;1.5610;0.1254;-0.1452;0.1370
0001383007;6.9384;0.9505;0.9002;0.3264;-0.0362;0.0843
0001383016;6.9504;0.9313;0.9026;0.3377;-0.0308;0.0686
0001383028;6.8618;1.0104;0.8619;0.3284;-0.0256;0.0541
0001383037;6.7038;0.9194;0.8906;0.2898;-0.0125;0.0568
0001383046;6.6679;1.0295;0.9170;0.2466;-0.0027;0.0662
0001383059;6.9097;1.1851;0.9553;0.1751;0.0272;0.0669
0001383068;7.0749;1.3862;0.9625;0.1283;0.0533;0.0576
0001383080;7.2161;1.5945;0.9912;0.0759;0.0682;0.0093
0001383089;7.0557;1.7573;0.8859;0.0370;0.0690;-0.0250
0001383098;6.9767;2.1763;1.0319;0.0112;0.0616;-0.0640
0001383111;6.3494;2.1332;1.1851;-0.0296;0.0424;-0.0933
0001383120;5.7581;2.0087;1.2354;-0.0733;0.0028;-0.0989
0001383132;5.6216;2.0375;1.3336;-0.1541;-0.0734;-0.0667
0001383141;5.4947;1.7669;1.2546;-0.2168;-0.1382;-0.0416
0001383154;5.7724;1.3815;1.4509;-0.2970;-0.1891;-0.0124
0001383163;6.0669;0.9170;1.3719;-0.3313;-0.1948;-0.0031
0001383175;6.6200;0.6584;0.8452;-0.3276;-0.1939;-0.0005
0001383184;6.6655;0.6369;0.2346;-0.3086;-0.2104;-0.0088
0001383193;6.4500;0.6656;-0.2298;-0.2451;-0.2322;-0.0212
0001383206;6.4284;1.4700;0.0455;-0.0697;-0.2313;-0.0473
0001383215;5.9975;1.7957;0.8260;0.1152;-0.2317;-0.0787
0001383227;5.7988;2.7725;1.5227;0.3820;-0.2663;-0.1340
0001383236;5.7174;3.6009;1.9082;0.5464;-0.3076;-0.1956
0001383305;7.5441;4.8746;0.1724;0.0207;-0.4554;-0.0136
0001383314;7.4101;4.4269;0.3639;0.0446;-0.4495;-0.0300
0001383325;7.4292;3.8618;0.5698;0.0879;-0.4025;-0.0697
0001383334;7.3167;3.7565;0.7638;0.1202;-0.3619;-0.0877
0001383343;6.9408;3.6823;0.4908;0.1174;-0.3455;-0.0769
0001383357;6.3734;3.9313;0.1149;0.0598;-0.3300;-0.0205
0001383366;6.3566;4.2593;0.1341;0.0273;-0.3405;0.0336
0001383379;6.2991;4.6471;0.1963;-0.0100;-0.3868;0.1178
0001383388;6.4308;4.7333;0.4118;-0.0394;-0.4370;0.1371
0001383400;6.6295;4.9392;0.5387;-0.0766;-0.4902;0.1316
0001383409;6.8642;5.1140;0.5124;-0.1065;-0.5023;0.0987
0001383418;6.7157;4.9225;0.1987;-0.1159;-0.5179;0.0396
0001383431;6.4524;4.7262;0.1556;-0.0831;-0.5095;-0.0608
0001383440;5.9280;4.5945;0.2514;-0.0390;-0.5127;-0.1270
0001383452;5.7150;4.8411;0.6249;0.0136;-0.5055;-0.1637
0001383461;5.5067;5.1571;0.8260;0.0393;-0.5109;-0.1522
0001383474;5.9041;5.9041;1.6233;0.0469;-0.5345;-0.1069
0001383483;5.7868;5.9831;2.5977;0.0274;-0.5717;-0.0617
0001383495;5.7988;5.8706;3.4381;-0.0276;-0.6014;-0.0028
0001383504;6.1507;5.5785;3.8475;-0.0846;-0.5902;0.0189
0001383513;6.4189;5.1116;3.7852;-0.1611;-0.5652;0.0324
0001383526;7.0605;4.1922;3.6799;-0.2590;-0.5413;0.0582
0001383535;7.6974;3.6129;3.5314;-0.2835;-0.5252;0.0629
0001383604;5.8682;1.8340;2.3008;0.1500;-0.5391;-0.2964
0001383613;5.5019;2.4828;2.3056;0.2238;-0.6118;-0.3332
0001383626;4.5825;3.3351;2.3846;0.2960;-0.7429;-0.3553
0001383635;4.3167;4.1803;2.3822;0.2898;-0.8388;-0.3431
0001383647;3.7541;5.1164;2.2769;0.2282;-0.9975;-0.3136
0001383656;3.5530;5.4875;2.2553;0.1424;-1.1154;-0.2802
0001383665;3.8140;5.8754;2.3942;0.0293;-1.2161;-0.2491
0001383678;4.2689;5.6958;2.7725;-0.1408;-1.3598;-0.2783
0001383687;4.8985;5.5210;2.9305;-0.2525;-1.4178;-0.3315
0001383699;5.6886;4.7214;2.9664;-0.3985;-1.4625;-0.4305
0001383708;6.3494;4.3598;2.8371;-0.5060;-1.4886;-0.5240
0001383721;6.8905;3.3926;2.5905;-0.6604;-1.4881;-0.6423
0001383730;7.1587;2.8515;2.5139;-0.7190;-1.4552;-0.6899
0001383739;7.1539;2.1380;2.2553;-0.7244;-1.4341;-0.7276
0001383751;6.9887;1.7119;1.8747;-0.6755;-1.4228;-0.7360
0001383760;6.9719;1.6281;1.9393;-0.6181;-1.4092;-0.7091
0001383773;6.2560;1.5131;1.9393;-0.5275;-1.4065;-0.6487
0001383782;6.0645;1.7693;2.0207;-0.4771;-1.4192;-0.6198
0001383794;5.6599;2.1045;2.3080;-0.4330;-1.4298;-0.5676
0001383803;5.5545;2.3080;2.3272;-0.4361;-1.4480;-0.5489
0001383816;5.2146;2.6600;2.2841;-0.4615;-1.4738;-0.5352
0001383825;4.9344;2.7366;2.1691;-0.4948;-1.4989;-0.5344
0001383834;4.8602;2.8443;2.0518;-0.5448;-1.5290;-0.5341
0001383903;6.6343;2.9640;1.6257;-0.6243;-1.7159;-0.5764
0001383912;6.7157;2.3966;1.6688;-0.6197;-1.6947;-0.5757
0001383925;7.0437;2.2098;1.7023;-0.6019;-1.6646;-0.5788
0001383934;7.1275;2.1524;1.8675;-0.5680;-1.6555;-0.5857
0001383946;7.0174;2.0997;2.2434;-0.5225;-1.6118;-0.5580
0001383955;6.7828;2.0423;2.3846;-0.4836;-1.6092;-0.5424
0001383968;6.3207;1.9824;2.3727;-0.4349;-1.5900;-0.5223
0001383977;6.1866;2.0518;2.3008;-0.4150;-1.5651;-0.4958
0001383989;5.9568;1.8196;2.3607;-0.4081;-1.5597;-0.4678
0001383998;5.9041;1.9178;2.1332;-0.3868;-1.5894;-0.4622
0001384007;5.8131;1.6616;2.3008;-0.3500;-1.5996;-0.4550
0001384020;5.8778;1.4246;2.5450;-0.2679;-1.6057;-0.4730
0001384029;5.9424;1.4988;2.6887;-0.1912;-1.6173;-0.4962
0001384041;5.9640;1.5610;2.8323;-0.1009;-1.5942;-0.5141
0001384050;5.7437;1.5850;2.8371;-0.0272;-1.5892;-0.5384
0001384063;6.0621;2.1141;2.7653;0.0301;-1.5571;-0.5488
0001384072;6.1411;2.4110;2.6217;0.0309;-1.5447;-0.5355
0001384081;6.0693;2.5139;2.4541;-0.0081;-1.5199;-0.5024
0001384093;6.1483;2.5091;2.3463;-0.0554;-1.5086;-0.4682
0001384102;6.1172;2.3080;2.3487;-0.0831;-1.4794;-0.4291
0001384115;6.1770;2.2122;2.4995;-0.1170;-1.4194;-0.3652
0001384124;6.2489;2.3463;2.6791;-0.1383;-1.3888;-0.3292
0001384193;6.8570;2.3727;4.0941;-0.1627;-1.1076;-0.4369
0001384202;6.8474;2.2338;3.9145;-0.1518;-1.0677;-0.4638
0001384215;6.8139;2.0375;3.8499;-0.1548;-1.0419;-0.4658
0001384224;6.8091;1.9178;3.8762;-0.1755;-1.0445;-0.4712
0001384236;6.5936;2.0111;3.7709;-0.2000;-1.0316;-0.4712
0001384245;6.4763;2.0877;3.7086;-0.2036;-1.0276;-0.4838
0001384254;5.7892;1.8052;3.7685;-0.2122;-1.0176;-0.4726
0001384267;5.4277;1.7502;3.9911;-0.2160;-1.0740;-0.4506
0001384276;5.3319;1.7047;4.0917;-0.1949;-1.1254;-0.4191
0001384288;5.6575;1.8411;4.0127;-0.1527;-1.2156;-0.4052
0001384297;5.6599;1.7382;3.7110;-0.1280;-1.2702;-0.4084
0001384310;5.6886;1.8411;3.5434;-0.1071;-1.3491;-0.4157
0001384319;5.8155;1.6999;3.4548;-0.0953;-1.4048;-0.4207
0001384331;6.3518;1.7119;3.4165;-0.0777;-1.4666;-0.4301
0001384340;6.6894;1.7214;3.4141;-0.0406;-1.5187;-0.4554
0001384349;6.9815;1.6544;3.3758;0.0056;-1.5563;-0.4710
0001384362;7.2880;1.7645;2.9449;0.0711;-1.6197;-0.4934
0001384371;7.4196;1.7933;2.7557;0.1059;-1.6599;-0.5131
0001384383;7.4555;1.6592;2.5666;0.1483;-1.7092;-0.5373
0001384392;7.1778;1.3575;2.3822;0.1877;-1.7661;-0.5588
0001384405;6.9743;1.4653;1.9848;0.2325;-1.8239;-0.5736
0001384414;6.7349;1.4150;2.0231;0.2685;-1.8972;-0.5613
0001384423;6.5912;1.4581;2.2122;0.3276;-1.8914;-0.5588
0001384492;9.0405;4.9488;2.3511;0.3115;-1.7599;-0.5995
0001384501;9.0644;5.4947;2.4445;0.2599;-1.6819;-0.6384
0001384514;8.5401;5.9592;2.4134;0.1596;-1.5926;-0.6335
0001384523;7.8290;5.8778;2.3296;0.0854;-1.5683;-0.5994
0001384535;7.0509;5.5138;2.1213;-0.0292;-1.5577;-0.5111
0001384544;6.5577;5.1499;1.9178;-0.1139;-1.5859;-0.4542
0001384557;6.1651;4.1659;1.8866;-0.2113;-1.6522;-0.3972
0001384566;6.2560;3.5985;1.7071;-0.2602;-1.6870;-0.3822
0001384575;5.9304;2.7701;1.6400;-0.2707;-1.7455;-0.3942
0001384587;6.2273;2.3703;1.6951;-0.2566;-1.7950;-0.3994
0001384596;6.5817;2.1572;1.6161;-0.2189;-1.8187;-0.3950
0001384609;6.8905;1.8100;1.7190;-0.1569;-1.8426;-0.3740
0001384618;7.3646;1.9489;1.7190;-0.1015;-1.8431;-0.3637
0001384630;7.8051;2.1931;1.6448;-0.0778;-1.8719;-0.3549
0001384639;8.1187;2.4014;1.5874;-0.0810;-1.8183;-0.3600
0001384650;8.0517;2.5163;1.6017;-0.1295;-1.7601;-0.3746
0001384658;8.1547;2.6887;1.6712;-0.1793;-1.7114;-0.3868
0001384666;7.9823;2.6097;1.6281;-0.2230;-1.6751;-0.4030
0001384677;7.8817;2.5546;1.8483;-0.2758;-1.6266;-0.4205
0001384685;8.0086;2.8347;1.7789;-0.2991;-1.5944;-0.4327
0001384697;8.0445;2.8132;1.8124;-0.3236;-1.5591;-0.4534
0001384705;8.1235;2.7964;1.8675;-0.3321;-1.5274;-0.4626
0001384773;8.4132;2.6576;2.0303;-0.2272;-1.2268;-0.4207
0001384781;8.5377;2.8276;2.1356;-0.2050;-1.1859;-0.4042
0001384794;8.4922;2.5283;2.0638;-0.1643;-1.1052;-0.3825
0001384802;8.5329;2.4253;1.9800;-0.1339;-1.0640;-0.3770
0001384810;8.4156;2.2817;1.9369;-0.1151;-1.0203;-0.3697
0001384822;8.2337;2.5402;1.6975;-0.0958;-0.9523;-0.3611
0001384830;8.0086;2.5115;1.5562;-0.0790;-0.9280;-0.3624
0001384841;7.7117;2.5019;1.3767;-0.0655;-0.8820;-0.3517
0001384849;7.8434;2.7940;1.3719;-0.0406;-0.8628;-0.3525
0001384861;7.7788;2.9305;1.4006;-0.0200;-0.8316;-0.3461
0001384869;7.8410;2.9161;1.4700;-0.0048;-0.8172;-0.3331
0001384880;8.0589;2.9353;1.9680;0.0172;-0.7959;-0.3317
0001384888;7.7907;2.7222;2.4086;0.0373;-0.7978;-0.3413
