time;acc_x;acc_y;acc_z;gyro_x;gyro_y;gyro_z
0001689332;5.5306;-15.8568;2.5857;-0.0330;-0.0356;-0.0009
0001689340;5.6910;-15.7108;2.6049;-0.0290;-0.0398;0.0016
0001689347;5.6551;-15.8017;2.5786;-0.0285;-0.0345;0.0048
0001689355;5.5785;-15.7323;2.4804;-0.0300;-0.0341;0.0028
0001689364;5.5138;-15.9238;2.4924;-0.0208;-0.0417;0.0013
0001689372;5.5067;-15.8999;2.6456;-0.0253;-0.0336;0.0068
0001689384;5.5186;-15.7491;2.5546;-0.0266;-0.0320;0.0044
0001689392;5.4779;-15.8855;2.5594;-0.0338;-0.0325;0.0015
0001689400;5.6168;-15.8089;2.6193;-0.0269;-0.0324;-0.0051
0001689411;5.5737;-15.9861;2.6001;-0.0274;-0.0215;-0.0061
0001689419;5.8227;-15.9574;2.6743;-0.0121;-0.0218;-0.0121
0001689431;5.7892;-15.7634;2.6288;-0.0039;-0.0100;-0.0305
0001689439;5.7174;-15.9597;2.6073;-0.0029;0.0003;-0.0346
0001689450;5.8562;-15.9167;2.6552;0.0080;0.0188;-0.0496
0001689458;5.8299;-15.8376;2.6576;0.0065;0.0402;-0.0504
0001689470;6.1316;-15.6581;2.6552;0.0211;0.0763;-0.0699
0001689478;6.2106;-15.7131;2.8515;0.0097;0.1102;-0.0751
0001689489;6.0693;-15.8209;2.8994;0.0269;0.1705;-0.0985
0001689497;6.2848;-15.7802;2.9664;0.0250;0.2088;-0.1082
0001689505;6.2656;-15.8855;2.8611;0.0376;0.2521;-0.1287
0001689517;6.3686;-15.7706;2.8706;0.0574;0.3200;-0.1428
0001689525;6.3279;-15.8879;2.6743;0.0655;0.3649;-0.1621
0001689537;6.0358;-15.8400;2.7078;0.0546;0.4134;-0.1892
0001689545;5.7030;-15.8209;2.6791;0.0474;0.4434;-0.2014
0001689612;4.9201;-15.8233;2.4828;-0.0139;0.4434;-0.1270
0001689620;4.7022;-16.1058;2.5019;-0.0242;0.4305;-0.1091
0001689631;4.9488;-15.9789;2.3583;-0.0286;0.4037;-0.0943
0001689639;4.8507;-16.0627;2.3224;-0.0421;0.3865;-0.0755
0001689647;5.1380;-15.9310;2.2841;-0.0549;0.3671;-0.0662
0001689659;4.9033;-16.1249;2.2122;-0.0566;0.3299;-0.0552
0001689667;4.9440;-15.9023;2.3415;-0.0442;0.3022;-0.0538
0001689678;4.7788;-16.1680;2.3774;-0.0305;0.2515;-0.0568
0001689686;5.0542;-15.7275;2.3511;-0.0238;0.2262;-0.0562
0001689698;4.8435;-15.9454;2.3176;-0.0088;0.1763;-0.0552
0001689706;4.7932;-15.9789;2.2338;-0.0141;0.1458;-0.0557
0001689717;4.7716;-15.9238;2.2553;-0.0013;0.1018;-0.0512
0001689725;4.9799;-15.7898;2.3463;-0.0040;0.0801;-0.0449
0001689737;5.3032;-15.6748;2.2529;-0.0031;0.0584;-0.0292
0001689745;5.3486;-15.5647;2.0997;-0.0049;0.0512;-0.0266
0001689753;5.4348;-15.7251;2.2505;-0.0096;0.0528;-0.0171
0001689764;5.6336;-15.6892;2.0782;-0.0293;0.0536;-0.0077
0001689772;5.4803;-15.9478;2.0973;-0.0345;0.0513;-0.0100
0001689784;5.4540;-15.9430;2.1548;-0.0402;0.0593;-0.0019
0001689792;5.3917;-16.1656;2.1835;-0.0344;0.0574;-0.0044
0001689804;5.2194;-16.1321;2.2051;-0.0137;0.0589;-0.0147
0001689812;5.2194;-16.2327;2.1189;0.0065;0.0506;-0.0234
0001689877;4.6519;-15.7347;1.9728;-0.0029;-0.0004;-0.0401
0001689885;4.7142;-15.8376;1.9561;-0.0064;-0.0176;-0.0456
0001689896;4.7669;-15.7993;1.9944;-0.0160;-0.0421;-0.0366
0001689904;4.5993;-16.0292;1.8914;-0.0081;-0.0663;-0.0356
0001689912;4.5466;-16.2590;1.9776;0.0065;-0.0929;-0.0362
0001689924;4.3718;-16.4625;2.0039;0.0240;-0.1424;-0.0301
0001689932;4.3335;-16.5320;1.9848;0.0477;-0.1723;-0.0264
0001689943;4.2784;-16.5631;1.9585;0.0959;-0.2193;-0.0176
0001689951;4.4269;-16.5822;1.9896;0.1284;-0.2557;-0.0168
0001689963;4.4700;-16.4410;2.0494;0.1731;-0.3054;-0.0181
0001689971;4.5945;-16.1321;2.0470;0.1955;-0.3316;-0.0197
0001689982;4.6160;-16.0962;2.1811;0.2085;-0.3577;-0.0143
0001689990;4.7980;-16.0100;2.2386;0.2186;-0.3730;-0.0176
0001690002;5.2337;-15.9047;2.6264;0.2225;-0.3620;-0.0087
0001690010;5.3654;-16.0651;2.7916;0.2305;-0.3511;-0.0128
0001690018;5.6312;-16.0866;3.2417;0.2393;-0.3279;-0.0093
0001690029;6.1483;-16.2973;3.6320;0.2385;-0.2673;0.0101
0001690037;6.4356;-16.3069;3.7876;0.2439;-0.2164;0.0233
0001690049;7.2353;-16.1441;3.7014;0.2554;-0.1212;0.0570
0001690057;7.1539;-16.2111;3.7613;0.2626;-0.0584;0.0770
0001690069;7.0222;-16.0220;3.5698;0.2713;0.0350;0.0929
0001690077;6.5649;-15.9717;3.4668;0.2797;0.0777;0.0919
0001690143;4.6136;-15.1768;3.1699;0.1171;-0.0087;0.0923
0001690151;4.5394;-15.1625;3.1196;0.1104;-0.0488;0.0981
0001690159;4.4077;-15.4091;3.1532;0.1154;-0.0918;0.0957
0001690170;4.3670;-15.7491;3.2226;0.1394;-0.1491;0.0983
0001690178;4.4748;-15.9741;3.3878;0.1725;-0.1853;0.0913
0001690190;4.4269;-16.2327;3.4261;0.2365;-0.2533;0.0645
0001690198;4.4532;-16.5296;3.4644;0.2914;-0.2962;0.0454
0001690209;4.6208;-16.4194;3.5338;0.3657;-0.3405;0.0290
0001690217;4.6543;-16.4003;3.5841;0.4153;-0.3780;0.0285
0001690229;5.0087;-15.9789;3.5243;0.4574;-0.4124;0.0409
0001690237;5.0973;-15.7395;3.3950;0.4576;-0.4337;0.0616
0001690245;4.9512;-15.6102;3.3686;0.4417;-0.4542;0.0805
0001690256;5.0566;-15.1098;3.2633;0.3956;-0.4787;0.1171
0001690264;5.1044;-14.7986;3.2010;0.3433;-0.4931;0.1436
0001690276;4.8937;-14.5974;3.1819;0.2693;-0.5339;0.1756
0001690284;4.4963;-14.8848;3.2178;0.2328;-0.5721;0.1828
0001690295;4.1970;-15.2870;3.2370;0.2029;-0.6370;0.1952
0001690303;4.3287;-15.1481;3.3064;0.1913;-0.6836;0.2062
0001690315;4.2018;-15.4234;3.4692;0.1980;-0.7556;0.2401
0001690323;4.2042;-15.3995;3.4668;0.2037;-0.7971;0.2691
0001690331;4.1492;-15.3947;3.4213;0.2209;-0.8408;0.2823
0001690343;4.4173;-15.3851;3.2633;0.2266;-0.8946;0.3010
0001690351;4.5059;-15.5767;3.3662;0.2268;-0.9133;0.3014
0001690417;6.2345;-15.3061;3.2872;0.2810;-0.8444;0.2419
0001690425;6.2728;-15.1792;3.3543;0.2466;-0.7974;0.2513
0001690436;6.2489;-15.0835;3.2920;0.2245;-0.7394;0.2499
0001690444;6.4620;-14.9829;3.4668;0.2054;-0.6833;0.2438
0001690456;6.5338;-15.0954;3.5003;0.1780;-0.6101;0.2261
0001690464;6.5649;-15.2726;3.5123;0.1669;-0.5557;0.2012
0001690472;6.6535;-15.3636;3.7661;0.1661;-0.5071;0.1731
0001690483;6.6846;-15.2846;3.7876;0.1597;-0.4258;0.1359
0001690491;6.7540;-15.4522;3.9337;0.1652;-0.3552;0.0975
0001690503;6.4620;-15.2942;4.1970;0.1797;-0.2657;0.0410
0001690511;6.9719;-15.2295;4.0821;0.1916;-0.2094;-0.0115
0001690522;6.5625;-15.2678;4.3646;0.2190;-0.1410;-0.0661
0001690530;7.0054;-15.2271;4.0438;0.2145;-0.0915;-0.1154
0001690542;6.6822;-15.1553;4.0845;0.2025;-0.0397;-0.1855
0001690550;6.0501;-15.2463;4.5011;0.1366;-0.0384;-0.2499
0001690561;6.5242;-15.2894;4.0558;0.1311;0.0024;-0.3026
0001690569;6.0932;-15.9454;4.6807;0.2321;0.0544;-0.3555
0001690577;6.3901;-16.0507;3.8642;0.2963;0.0783;-0.2991
0001690589;6.3638;-15.6246;4.2569;0.3870;0.1279;-0.2177
0001690597;6.0717;-15.5096;4.2737;0.3952;0.1451;-0.2004
0001690609;5.8347;-15.2487;4.2306;0.4001;0.1645;-0.1857
0001690617;5.6288;-15.2056;4.2282;0.3890;0.1701;-0.1711
0001690683;4.0151;-14.2838;4.4867;0.0421;-0.2174;0.0169
0001690691;3.8882;-14.3556;4.4221;-0.0028;-0.2922;0.0782
0001690703;4.0582;-14.5376;4.7309;-0.0345;-0.3838;0.1936
0001690711;4.4125;-14.5831;4.7166;-0.0372;-0.4499;0.2582
0001690719;4.6878;-14.3724;4.7262;-0.0540;-0.4963;0.3186
0001690730;5.0326;-14.2742;4.8100;-0.0919;-0.5620;0.3579
0001690738;5.3271;-13.9821;4.7381;-0.1384;-0.5828;0.3837
0001690750;5.7820;-14.1138;4.6400;-0.2084;-0.6249;0.3902
0001690758;6.3183;-14.4299;4.5801;-0.2069;-0.6289;0.3958
0001690769;6.9216;-14.6334;4.5873;-0.2092;-0.6007;0.3953
0001690777;7.0246;-14.8201;4.5969;-0.1931;-0.5764;0.3860
0001690789;7.0437;-15.1314;4.6615;-0.1579;-0.5316;0.3726
0001690797;7.2592;-15.0571;4.7597;-0.1396;-0.4904;0.3643
0001690808;6.9959;-15.2175;4.7429;-0.0911;-0.4299;0.3272
0001690816;7.0437;-15.2798;4.6376;-0.0710;-0.3934;0.2806
0001690824;7.1204;-15.0811;4.7357;-0.0477;-0.3415;0.2352
0001690836;7.0102;-15.3133;4.7908;-0.0240;-0.2679;0.1529
0001690844;7.4388;-15.0739;4.8291;-0.0173;-0.2156;0.0970
0001690855;7.4005;-15.2056;4.7621;-0.0129;-0.1407;0.0083
0001690863;7.7117;-15.2870;4.5897;0.0064;-0.0977;-0.0494
0001690875;7.7524;-15.6246;4.3862;0.0105;-0.0109;-0.1212
0001690883;7.8410;-15.8472;4.5633;0.0418;0.0432;-0.1561
0001690947;7.9296;-15.2128;4.2210;0.4102;0.5446;-0.2922
0001690955;7.8434;-14.8895;4.1563;0.4162;0.6017;-0.3305
0001690967;7.7524;-14.8153;4.2210;0.3973;0.6936;-0.3673
0001690975;7.7021;-14.5831;4.3479;0.3752;0.7386;-0.4072
0001690983;7.5705;-14.5041;4.3958;0.3517;0.7882;-0.4221
0001690994;7.2449;-14.4586;4.3718;0.2866;0.8599;-0.4409
0001691002;6.9432;-14.7986;4.7740;0.2555;0.8925;-0.4506
0001691014;6.7780;-14.9470;4.7022;0.2140;0.9394;-0.4495
0001691022;6.5194;-15.0739;4.7860;0.2134;0.9506;-0.4610
0001691033;6.1627;-15.2463;4.8818;0.2253;0.9679;-0.4495
0001691041;5.6886;-15.2559;4.9512;0.2469;0.9634;-0.4572
0001691053;5.6240;-15.1290;4.9321;0.2466;0.9418;-0.4507
0001691061;5.6192;-15.0571;4.8626;0.2741;0.9156;-0.4367
0001691069;5.5569;-14.9590;4.9752;0.2729;0.8896;-0.4094
0001691080;5.2194;-14.9925;4.8435;0.2591;0.8356;-0.3697
0001691088;5.0542;-14.9231;4.9704;0.2646;0.7942;-0.3461
0001691100;5.1547;-15.0978;4.7788;0.2701;0.7270;-0.2971
0001691108;5.2074;-15.1242;4.9009;0.2791;0.6888;-0.2553
0001691119;5.2026;-15.3827;4.9153;0.3160;0.6285;-0.2101
0001691127;5.3917;-15.4881;5.0446;0.3512;0.5938;-0.1853
0001691139;5.5043;-15.7227;5.1044;0.4169;0.5500;-0.1537
0001691147;5.4324;-15.9406;5.2026;0.4744;0.5292;-0.1459
0001691155;5.4181;-15.9095;5.1427;0.5307;0.4998;-0.1522
0001691219;5.5689;-13.6853;4.7477;0.3353;0.2320;-0.3128
0001691227;5.6216;-13.9103;4.9081;0.2990;0.2106;-0.3178
0001691239;5.4875;-14.4275;5.0087;0.2765;0.1769;-0.3399
0001691247;5.6527;-14.3461;5.0254;0.2761;0.1459;-0.3593
0001691258;5.3726;-14.6310;4.9009;0.2767;0.1224;-0.3668
0001691266;5.6360;-14.4179;4.9273;0.2643;0.1222;-0.3709
0001691278;5.8395;-14.3341;4.8052;0.2545;0.1210;-0.3829
0001691286;5.9807;-14.3508;4.5969;0.2534;0.1306;-0.4009
0001691294;6.4572;-14.1090;4.4077;0.2598;0.1310;-0.4325
0001691305;6.4667;-13.8672;4.3072;0.2647;0.1644;-0.4519
0001691313;6.2776;-13.8074;4.2880;0.2842;0.1856;-0.4811
0001691325;5.7509;-13.6948;4.3263;0.2687;0.2244;-0.5081
0001691333;5.7509;-13.6374;4.5035;0.2493;0.2457;-0.5204
0001691344;5.4468;-13.5536;4.6160;0.2050;0.2462;-0.5441
0001691352;5.0230;-13.5225;4.5849;0.1624;0.2196;-0.5590
0001691364;4.6471;-13.3453;4.6208;0.1029;0.1761;-0.5462
0001691372;4.4412;-13.3333;4.6615;0.0517;0.1420;-0.5207
0001691380;4.3215;-13.5033;4.9321;0.0061;0.1175;-0.4752
0001691391;4.5322;-13.9247;5.1404;-0.0325;0.1025;-0.4022
0001691399;4.9201;-14.2359;5.3893;-0.0361;0.0942;-0.3573
0001691411;5.1547;-14.7818;5.4731;0.0156;0.0822;-0.3090
0001691419;5.2313;-14.9422;5.4731;0.0709;0.0679;-0.2940
0001691483;4.8507;-15.0332;5.3798;0.4145;-0.0997;-0.0661
0001691491;4.8291;-14.7219;5.5067;0.4385;-0.1427;-0.0406
0001691503;4.8866;-14.3006;5.6048;0.4310;-0.2253;-0.0364
0001691511;4.8530;-14.0635;5.3151;0.4286;-0.2954;-0.0536
0001691519;4.2545;-14.2287;5.2122;0.3929;-0.3836;-0.0822
0001691530;4.4436;-14.0324;5.6336;0.3701;-0.5197;-0.1395
0001691538;4.1515;-13.7475;5.3678;0.3608;-0.6089;-0.1936
0001691550;4.4508;-13.3620;5.2505;0.3337;-0.7520;-0.2622
0001691558;4.8363;-12.9646;5.0206;0.2950;-0.8192;-0.2665
0001691569;5.1811;-12.1817;5.0230;0.1821;-0.8660;-0.2240
0001691577;5.6934;-12.2799;5.3439;0.0225;-0.8460;-0.1352
0001691589;6.8354;-13.1537;5.5043;-0.2041;-0.7910;0.0045
0001691597;7.5250;-13.8098;5.7533;-0.2534;-0.7437;0.0903
0001691608;7.6950;-14.9446;5.9328;-0.2399;-0.6514;0.2022
0001691616;7.8386;-15.4402;6.1196;-0.1434;-0.6006;0.2414
0001691624;7.7117;-15.4905;6.0525;-0.0273;-0.5466;0.2561
0001691636;7.2903;-15.3277;5.8658;0.1146;-0.5232;0.2169
0001691644;6.9623;-15.0691;5.8514;0.1447;-0.5195;0.1813
0001691655;6.5936;-14.8464;5.8849;0.1379;-0.5220;0.1400
0001691663;6.5793;-14.5520;5.9280;0.1451;-0.5253;0.1312
0001691675;6.5841;-14.5089;5.9568;0.1419;-0.5320;0.1472
0001691683;6.5434;-14.7387;5.9065;0.1652;-0.5317;0.1728
0001691751;6.5601;-13.0005;5.4636;0.1320;-0.6503;0.1191
0001691759;6.8378;-13.0125;5.3702;0.1059;-0.6379;0.1455
0001691767;6.5027;-13.9175;5.5091;0.0458;-0.6336;0.1272
0001691779;6.8881;-13.3716;5.2457;0.1885;-0.6347;0.1514
0001691787;6.9887;-13.3166;5.3870;0.1679;-0.6123;0.1660
0001691798;6.8402;-13.1921;5.5378;0.1514;-0.6034;0.1978
0001691806;6.9073;-12.6988;5.8131;0.1292;-0.6113;0.2066
0001691818;6.7995;-12.6773;5.7581;-0.0167;-0.6047;0.2441
0001691826;6.8331;-12.8856;5.6455;-0.1511;-0.5812;0.2603
0001691837;7.2209;-13.3764;5.6336;-0.2582;-0.5536;0.2651
0001691845;7.5417;-13.5632;5.6886;-0.3138;-0.5217;0.2758
0001691857;7.4771;-14.2240;5.7748;-0.3663;-0.4776;0.2682
0001691865;7.8602;-14.0228;5.5426;-0.3744;-0.4598;0.2285
0001691873;7.8626;-14.1306;5.4396;-0.3738;-0.4501;0.1727
0001691884;7.6950;-14.2766;5.3822;-0.3877;-0.4463;0.0906
0001691892;7.8362;-14.2862;5.3798;-0.4045;-0.4443;0.0213
0001691904;8.0302;-14.2623;5.2361;-0.4543;-0.4345;-0.0573
0001691912;8.1738;-14.2120;5.0422;-0.4812;-0.4197;-0.1039
0001691923;8.3653;-14.2144;4.8794;-0.5111;-0.3773;-0.1372
0001691931;8.4563;-14.2718;4.6639;-0.5084;-0.3340;-0.1418
0001691943;8.8083;-14.2694;4.6040;-0.4816;-0.2685;-0.1322
0001691951;9.0621;-14.4370;4.5705;-0.4503;-0.2092;-0.1096
0001692018;9.3134;-13.6637;4.2856;-0.3228;0.3740;-0.0185
0001692026;8.7724;-13.9654;4.2952;-0.3359;0.3976;-0.0420
0001692034;8.4707;-14.0995;4.5059;-0.3320;0.3954;-0.0798
0001692046;7.8243;-14.4825;4.8291;-0.3056;0.3773;-0.1251
0001692054;7.2233;-14.2958;4.9943;-0.2713;0.3345;-0.1338
0001692066;6.4452;-14.5735;5.0015;-0.2169;0.2437;-0.1314
0001692074;6.1651;-14.3796;5.2361;-0.1765;0.1665;-0.1027
0001692085;5.9448;-14.0540;5.3798;-0.0953;0.0482;-0.0370
0001692093;5.3463;-13.8169;6.4979;-0.0691;-0.0629;0.0173
0001692105;4.7166;-13.6781;6.5194;-0.0562;-0.2743;0.0763
0001692113;3.8762;-13.4698;7.2856;-0.0982;-0.4303;0.1098
0001692124;2.9880;-13.8241;6.8618;-0.1927;-0.6253;0.1679
0001692132;2.7916;-14.3317;6.6702;-0.2669;-0.7405;0.2240
0001692140;2.9808;-14.4682;6.9552;-0.3412;-0.8497;0.2972
0001692152;4.3431;-15.0571;6.9576;-0.4399;-0.9854;0.4397
0001692160;5.1020;-15.5719;6.5338;-0.4596;-1.0601;0.5360
0001692171;5.8083;-15.8376;6.0286;-0.4431;-1.1191;0.6732
0001692179;5.7413;-15.4306;6.2513;-0.4206;-1.1434;0.7614
0001692191;6.0118;-14.8177;6.6846;-0.4024;-1.2151;0.8404
0001692199;6.0813;-14.3556;6.7947;-0.4286;-1.3023;0.8338
0001692267;6.5434;-18.7442;5.3486;-0.3459;-1.8397;0.6773
0001692275;7.1563;-18.8615;5.7820;-0.1905;-1.7850;0.6941
0001692287;7.9727;-18.6221;5.8490;0.0321;-1.7363;0.6857
0001692295;7.8386;-18.2869;5.6360;0.1480;-1.6618;0.6823
0001692303;7.8530;-17.7003;5.5976;0.2204;-1.5886;0.6891
0001692315;8.1355;-16.9294;5.4851;0.2717;-1.4485;0.7338
0001692323;8.7460;-16.5296;5.4229;0.2918;-1.3395;0.7694
0001692335;9.1866;-16.6205;5.5952;0.3160;-1.1518;0.8023
0001692343;9.8114;-16.8312;5.5138;0.3569;-1.0288;0.8025
0001692354;10.1323;-16.9749;5.5761;0.4696;-0.8536;0.7802
0001692362;9.8641;-17.3077;5.6144;0.5658;-0.7176;0.7613
0001692374;9.3853;-16.7283;5.2816;0.7083;-0.5694;0.6963
0001692382;9.1435;-16.0771;5.1044;0.7731;-0.4946;0.6383
0001692390;8.6503;-15.6485;5.0781;0.8199;-0.4411;0.5785
0001692401;8.3653;-14.9973;4.9368;0.8184;-0.3710;0.5088
0001692409;8.1930;-14.7028;4.8794;0.7993;-0.3363;0.4584
0001692421;8.0589;-14.1904;4.6328;0.7482;-0.3035;0.3941
0001692429;8.1355;-13.9366;4.6064;0.6983;-0.2745;0.3685
0001692440;7.9033;-13.7523;4.5490;0.6470;-0.2462;0.3158
0001692448;7.9416;-13.6086;4.5897;0.6326;-0.2340;0.2814
0001692460;7.7500;-13.4841;4.4819;0.6005;-0.1943;0.2284
0001692468;7.8745;-13.2160;4.4460;0.5792;-0.1856;0.1881
0001692476;7.6806;-13.2543;4.5729;0.5368;-0.1787;0.1459
0001692544;7.3454;-13.7571;5.1260;0.2517;-0.0358;0.1230
0001692552;7.0773;-14.0803;5.2122;0.2415;-0.0330;0.1176
0001692564;7.3358;-14.0444;5.3558;0.2535;-0.0472;0.1083
0001692572;7.2353;-14.1593;5.4037;0.2598;-0.0466;0.1182
0001692583;7.0557;-14.0181;5.4660;0.2834;-0.0644;0.1126
0001692591;6.9743;-13.7307;5.6000;0.2872;-0.0711;0.1106
0001692603;6.7301;-13.6398;5.7150;0.2951;-0.1043;0.1091
0001692611;6.5673;-13.4746;5.8658;0.2894;-0.1188;0.1140
0001692619;6.3949;-13.5943;5.9185;0.2911;-0.1430;0.1027
0001692630;6.2177;-13.6446;6.2991;0.2695;-0.1928;0.0850
0001692638;6.3470;-13.6589;6.3805;0.2586;-0.2386;0.0654
0001692650;6.0190;-13.8936;6.3327;0.2454;-0.3122;0.0253
0001692658;5.9640;-13.8768;6.2560;0.2316;-0.3567;0.0191
0001692669;6.1579;-14.0588;6.1842;0.1952;-0.4009;0.0031
0001692677;6.3279;-14.1330;6.1459;0.1747;-0.4335;-0.0123
0001692689;7.0198;-14.3461;6.1316;0.1589;-0.4623;-0.0233
0001692697;7.0054;-14.6525;6.2513;0.1653;-0.4668;-0.0414
0001692705;7.6447;-14.4753;6.2058;0.1721;-0.4523;-0.0484
0001692716;7.6662;-14.7339;6.0885;0.1986;-0.4289;-0.0622
0001692724;7.8889;-14.7387;6.0286;0.2153;-0.3904;-0.0574
0001692736;8.0206;-14.4514;5.7772;0.2433;-0.3296;-0.0468
0001692744;7.7021;-14.3269;5.8155;0.2529;-0.2916;-0.0424
0001692812;6.9432;-13.7954;5.9735;0.2485;-0.2661;0.0289
0001692820;7.1180;-13.4075;6.0597;0.2411;-0.2751;0.0465
0001692832;7.1874;-13.4602;6.0262;0.2052;-0.2907;0.0545
0001692840;7.2592;-13.3740;6.1339;0.1696;-0.2944;0.0564
0001692851;7.5465;-13.3453;6.1339;0.1251;-0.2959;0.0510
0001692859;7.8506;-13.2423;6.1028;0.1055;-0.2952;0.0488
0001692867;7.8027;-13.5296;6.1579;0.0742;-0.2750;0.0545
0001692879;7.9918;-13.7116;6.0214;0.0494;-0.2350;0.0502
0001692887;8.1163;-13.8481;6.0166;0.0400;-0.2145;0.0397
0001692898;8.6000;-13.9917;5.9568;0.0292;-0.1628;0.0285
0001692906;8.8155;-14.1090;6.0765;0.0329;-0.1272;0.0081
0001692918;8.7197;-14.3245;6.0956;0.0593;-0.0609;-0.0213
0001692926;8.8538;-14.2503;6.1579;0.0677;-0.0163;-0.0465
0001692937;9.0166;-14.0468;6.1052;0.0855;0.0477;-0.0863
0001692945;8.5712;-13.8936;6.2537;0.1039;0.0827;-0.1202
0001692953;8.4731;-13.8983;6.2632;0.1045;0.1174;-0.1454
0001692965;8.5712;-13.6661;6.2680;0.0977;0.1559;-0.1947
0001692973;8.4827;-13.5584;6.2465;0.0826;0.1864;-0.2161
0001692984;8.4707;-13.4195;6.2848;0.0613;0.2185;-0.2523
0001692992;8.4515;-13.4458;6.2153;0.0492;0.2316;-0.2745
0001693004;8.3917;-13.5320;6.2489;0.0250;0.2521;-0.2883
0001693012;8.4635;-13.5679;6.2752;0.0123;0.2642;-0.2863
0001693080;7.9104;-13.8624;6.3087;0.0538;0.3192;-0.1596
0001693088;7.6495;-13.9821;6.3662;0.0561;0.3206;-0.1496
0001693096;7.6040;-13.8792;6.3782;0.0600;0.3297;-0.1396
0001693108;7.5178;-13.6158;6.3949;0.0620;0.3371;-0.1336
0001693116;7.2808;-13.5392;6.3327;0.0548;0.3352;-0.1390
0001693127;7.2975;-13.4865;6.2608;0.0448;0.3369;-0.1394
0001693135;7.1563;-13.4530;6.4284;0.0408;0.3297;-0.1475
0001693147;7.0509;-13.3549;6.3901;0.0250;0.3222;-0.1463
0001693155;6.9073;-13.5751;6.4021;0.0160;0.3075;-0.1492
0001693166;6.9791;-13.5320;6.4428;0.0177;0.2813;-0.1533
0001693174;6.7756;-13.5296;6.3901;0.0296;0.2597;-0.1539
0001693182;6.8498;-13.5153;6.3327;0.0397;0.2336;-0.1537
0001693194;6.5074;-13.7188;6.3710;0.0695;0.1884;-0.1540
0001693202;6.4117;-13.6446;6.3734;0.0733;0.1695;-0.1576
0001693213;6.4763;-13.6206;6.5027;0.0906;0.1343;-0.1580
0001693221;6.4787;-13.8409;6.5481;0.1035;0.1116;-0.1496
0001693233;6.6463;-14.0444;6.5649;0.1474;0.0869;-0.1510
0001693241;6.5434;-14.2072;6.6032;0.1760;0.0761;-0.1434
0001693252;6.4308;-14.2431;6.6535;0.2457;0.0621;-0.1370
0001693260;6.6295;-14.0779;6.7157;0.2908;0.0496;-0.1324
0001693268;6.7612;-14.1976;6.4739;0.3301;0.0481;-0.1254
0001693280;6.8809;-14.1569;6.6104;0.3687;0.0465;-0.0943
0001693288;6.9911;-13.7810;6.4332;0.4053;0.0573;-0.0650
0001693356;7.5393;-12.5863;6.5050;0.1847;0.0155;0.0103
0001693364;7.5346;-12.6749;6.4476;0.1326;0.0193;-0.0060
0001693376;7.6088;-12.9861;6.4596;0.0765;0.0336;-0.0290
0001693384;7.7476;-13.2256;6.5625;0.0525;0.0380;-0.0541
0001693396;7.8745;-13.5201;6.3351;0.0155;0.0649;-0.0886
0001693404;7.7620;-13.7858;6.4093;0.0364;0.0737;-0.1081
0001693412;7.8530;-13.7810;6.4835;0.0167;0.0843;-0.1372
0001693424;7.8913;-14.0372;6.5529;0.0309;0.1228;-0.1704
0001693432;7.9655;-14.1042;6.5410;0.0566;0.1488;-0.1905
0001693444;7.7069;-14.0779;6.6272;0.1055;0.1924;-0.2074
0001693452;7.8243;-14.0803;6.6032;0.1298;0.2038;-0.2300
0001693464;7.6207;-14.1689;6.5601;0.1735;0.2407;-0.2651
0001693472;7.8027;-13.8481;6.4787;0.2138;0.2555;-0.2691
0001693484;7.5322;-13.7092;6.6367;0.2082;0.2782;-0.2701
0001693492;7.8745;-13.6781;6.7947;0.2044;0.2916;-0.2703
0001693500;7.7620;-13.7236;6.5936;0.2284;0.3032;-0.2737
0001693512;7.5154;-14.0204;6.7014;0.2272;0.3074;-0.2709
0001693520;7.3382;-13.9702;6.6080;0.2650;0.3154;-0.2641
0001693532;7.1180;-13.7475;6.6367;0.3014;0.3223;-0.2577
0001693540;6.8283;-13.8337;6.4524;0.3391;0.3428;-0.2406
0001693552;7.1060;-13.5440;6.7421;0.3652;0.3360;-0.2298
0001693560;6.8881;-13.8648;6.8450;0.3492;0.3348;-0.2260
0001693628;7.3167;-13.1154;6.6918;0.3123;0.2705;-0.1260
0001693636;7.3550;-13.1442;6.8378;0.3171;0.2747;-0.1030
0001693644;7.0820;-13.2639;6.9168;0.3111;0.2809;-0.0865
0001693656;7.3909;-13.1897;7.0078;0.3147;0.3120;-0.0755
0001693664;7.2903;-13.9606;7.4915;0.2794;0.3411;-0.0641
0001693676;7.5106;-13.4051;7.0629;0.3681;0.3770;-0.0818
0001693684;7.5226;-13.3884;7.3502;0.3431;0.4098;-0.0851
0001693696;7.3358;-13.4387;7.2927;0.3916;0.4430;-0.1134
0001693704;7.3215;-13.0915;7.3933;0.4266;0.4543;-0.1346
0001693716;7.1275;-12.8353;7.3334;0.4968;0.4622;-0.1338
0001693724;6.9432;-12.4498;6.9456;0.4731;0.4642;-0.1323
0001693732;6.6463;-11.9471;6.8139;0.4675;0.4655;-0.1328
0001693744;6.1746;-11.6598;6.6343;0.3825;0.4487;-0.1593
0001693752;6.2728;-11.4658;6.6559;0.3328;0.4374;-0.1799
0001693764;6.2920;-11.3749;6.7421;0.2525;0.4153;-0.1815
0001693772;6.5314;-11.6358;6.6679;0.2065;0.3961;-0.1945
0001693784;6.7756;-11.5927;6.6679;0.1584;0.3734;-0.2064
0001693792;6.7516;-11.8130;6.6846;0.1251;0.3545;-0.2137
0001693804;6.7516;-11.9040;6.7660;0.0718;0.3485;-0.1929
0001693812;6.8235;-11.6813;6.9049;0.0513;0.3491;-0.1675
0001693820;6.6200;-11.8345;7.0509;0.0258;0.3504;-0.1476
0001693832;6.1531;-12.0285;7.1036;0.0148;0.3172;-0.1279
0001693840;5.8371;-11.9590;7.0916;0.0085;0.2757;-0.1232
0001693908;5.8945;-11.5496;6.9097;-0.1038;-0.0766;-0.0715
0001693916;6.0765;-11.5448;6.9360;-0.1284;-0.1070;-0.0827
0001693928;6.5074;-11.3126;6.8642;-0.1675;-0.1407;-0.1135
0001693936;6.6367;-11.3437;6.7540;-0.2070;-0.1592;-0.1376
0001693948;6.6224;-11.3174;6.7612;-0.2582;-0.1748;-0.1607
0001693956;6.5649;-11.1977;6.7828;-0.2962;-0.1801;-0.1760
0001693968;6.7708;-11.4347;6.7684;-0.3572;-0.1553;-0.1720
0001693976;6.9863;-11.3677;6.7612;-0.4054;-0.1354;-0.1787
0001693988;7.2185;-11.7771;6.8690;-0.4563;-0.0859;-0.1799
0001693996;7.3430;-12.1147;6.7971;-0.4628;-0.0516;-0.2004
0001694004;7.4077;-12.2439;6.8522;-0.4696;-0.0260;-0.2050
0001694016;7.2544;-12.8210;6.9647;-0.4706;0.0092;-0.2361
0001694024;7.2496;-12.8569;7.1060;-0.4668;0.0254;-0.2477
0001694036;6.8905;-13.1897;7.1156;-0.4318;0.0352;-0.2755
0001694044;6.7995;-13.2423;7.0629;-0.3997;0.0554;-0.2759
0001694056;6.8354;-13.2974;7.0653;-0.3399;0.0967;-0.2731
0001694064;6.9959;-13.2256;7.1874;-0.3070;0.1275;-0.2790
0001694076;7.2712;-13.1944;7.2472;-0.2766;0.1541;-0.3103
0001694084;7.3334;-13.3142;7.3622;-0.2863;0.1745;-0.3416
0001694096;7.4915;-13.5847;7.3789;-0.2514;0.1944;-0.3744
0001694104;7.2568;-13.4746;7.2927;-0.2455;0.2004;-0.3940
0001694112;7.0653;-13.4530;7.3885;-0.2368;0.2034;-0.3994
0001694178;7.0509;-12.9263;7.1826;-0.1227;0.1951;-0.3335
0001694186;7.0892;-13.1537;7.0390;-0.1298;0.1793;-0.3352
0001694198;6.8378;-12.9383;6.9073;-0.1075;0.1956;-0.2936
0001694206;6.6798;-12.9742;6.7947;-0.1398;0.1956;-0.2892
0001694218;7.2209;-12.8305;6.5649;-0.1328;0.1933;-0.3180
0001694226;7.1204;-12.5863;6.6343;-0.1392;0.2150;-0.2914
0001694238;7.0581;-12.5791;6.4979;-0.2434;0.2128;-0.3210
0001694246;7.0701;-12.5887;6.1962;-0.2522;0.2038;-0.3525
0001694258;6.8809;-12.4522;6.2896;-0.2883;0.2189;-0.3532
0001694266;6.4596;-12.5887;6.2369;-0.3432;0.2054;-0.3782
0001694274;6.5960;-12.6965;6.0885;-0.3764;0.1719;-0.4227
0001694286;6.3638;-12.5121;6.1459;-0.3781;0.1560;-0.4096
0001694294;6.2369;-12.4594;5.9592;-0.4137;0.1416;-0.4012
0001694306;6.0334;-12.5528;6.1316;-0.4682;0.1049;-0.4050
0001694314;6.1579;-12.4834;5.9807;-0.5016;0.1063;-0.3982
0001694326;6.4739;-12.7108;5.7940;-0.5698;0.1010;-0.3986
0001694334;6.6679;-12.7060;5.5952;-0.6131;0.1085;-0.3976
0001694347;6.8570;-12.5743;5.5043;-0.6576;0.1390;-0.3857
0001694356;7.0174;-12.5432;5.3439;-0.6924;0.1549;-0.3816
0001694365;7.0797;-12.5935;5.1811;-0.7321;0.1861;-0.3781
0001694378;6.9288;-12.5289;4.8626;-0.7867;0.2385;-0.3821
0001694387;6.7971;-12.6342;4.6376;-0.8471;0.2701;-0.3816
0001694455;7.3023;-12.5241;4.2545;-1.1915;0.5750;-0.3757
0001694464;7.2975;-12.8090;4.2641;-1.2009;0.5753;-0.4223
0001694477;7.4364;-12.9981;4.0390;-1.1950;0.5568;-0.4950
0001694486;7.0964;-13.1490;4.2066;-1.1784;0.5343;-0.5200
0001694499;6.3375;-13.3716;4.4508;-1.1528;0.5032;-0.4994
0001694508;5.8107;-13.0915;5.3463;-1.1586;0.4842;-0.4755
0001694521;5.7748;-13.3596;5.1811;-1.1616;0.4695;-0.4074
0001694530;5.9280;-13.4387;6.4069;-1.2131;0.4859;-0.3587
0001694539;6.2608;-13.8193;6.3542;-1.2550;0.5065;-0.2858
0001694552;6.9767;-14.5137;6.1507;-1.3699;0.5355;-0.1828
0001694561;7.2712;-14.9614;6.0932;-1.4690;0.5548;-0.1018
0001694574;6.4189;-16.0148;6.8331;-1.5808;0.6139;0.0402
0001694583;5.9903;-17.0898;6.7732;-1.6021;0.6391;0.1661
0001694596;6.4332;-17.7051;6.7277;-1.5968;0.6606;0.3080
0001694605;6.4260;-18.4258;6.6535;-1.6229;0.6399;0.3732
0001694618;6.6176;-19.3236;6.3518;-1.6272;0.6165;0.4390
0001694627;6.8139;-20.3076;6.5912;-1.5772;0.6198;0.4924
0001694640;7.1802;-21.3515;7.0581;-1.3057;0.7290;0.5947
0001694649;7.9655;-21.5143;7.6567;-1.0012;0.8520;0.6247
0001694658;8.6191;-21.6172;7.9703;-0.6772;0.9931;0.5889
0001694671;9.1435;-21.6723;7.8913;-0.1769;1.1626;0.4050
0001694680;8.9783;-21.2725;7.0126;0.1553;1.2193;0.2389
0001694747;2.9904;-11.8010;3.2178;0.0257;0.6731;-0.5405
0001694756;2.6504;-11.6933;3.3471;-0.1958;0.5097;-0.4595
0001694769;3.2058;-12.5193;3.4117;-0.4795;0.3012;-0.2703
0001694778;4.2617;-13.2495;3.5937;-0.6173;0.2084;-0.1502
0001694791;5.2098;-14.8464;3.7852;-0.6751;0.1227;-0.0297
0001694800;5.3367;-15.9741;4.0725;-0.6271;0.1100;0.0570
0001694809;5.5857;-16.6732;4.3072;-0.5243;0.1034;0.0998
0001694825;6.0142;-17.2454;4.4221;-0.2797;0.1382;0.1412
0001694834;5.9065;-17.5375;4.5801;-0.1264;0.1663;0.1363
0001694847;5.9089;-16.8552;4.4125;0.0520;0.2321;0.1091
0001694856;5.6862;-16.1992;4.2832;0.1203;0.2634;0.0671
0001694868;5.1978;-15.4474;4.1635;0.1454;0.2830;0.0269
0001694877;4.8985;-14.9542;4.0223;0.1187;0.2791;-0.0020
0001694890;4.5203;-14.7650;4.1922;0.0636;0.2441;-0.0117
0001694899;4.4197;-14.8249;4.2737;0.0294;0.1994;-0.0008
0001694908;4.6400;-14.8871;4.2856;0.0208;0.1435;0.0200
0001694920;4.7980;-15.2032;4.3503;-0.0005;0.0690;0.0489
0001694929;5.2098;-15.3301;4.3790;-0.0107;0.0310;0.0645
0001694996;5.9664;-15.8065;4.2689;0.0979;-0.1230;0.0265
0001695005;5.8155;-15.7395;4.2569;0.1134;-0.1319;0.0021
0001695017;5.5545;-15.6557;4.0677;0.1322;-0.1613;-0.0376
0001695026;5.5306;-15.4450;3.9409;0.1426;-0.1757;-0.0586
0001695039;5.6144;-15.2630;3.7972;0.1270;-0.1909;-0.0706
0001695048;5.5019;-15.1385;3.7373;0.1086;-0.2089;-0.0795
0001695057;5.4612;-15.0954;3.6990;0.0822;-0.2105;-0.0686
0001695069;5.5976;-15.0476;3.6751;0.0430;-0.2129;-0.0430
0001695078;5.6551;-14.9255;3.6799;0.0197;-0.2138;-0.0238
0001695091;5.6623;-15.0236;3.7038;-0.0119;-0.2104;0.0176
0001695100;5.6360;-15.1385;3.8307;-0.0233;-0.2101;0.0418
0001695112;5.6790;-15.2846;3.9744;-0.0135;-0.2246;0.0715
0001695121;5.8945;-15.2870;3.8571;0.0032;-0.2409;0.0833
0001695134;5.7269;-15.1912;3.8211;0.0076;-0.2527;0.1112
0001695143;5.9161;-14.9949;3.8954;-0.0059;-0.2463;0.1311
0001695155;5.8658;-14.9853;3.8666;-0.0302;-0.2461;0.1420
0001695164;6.0430;-14.7124;3.9025;-0.0558;-0.2578;0.1428
0001695173;5.9592;-14.8201;3.9193;-0.0669;-0.2757;0.1414
0001695186;5.9065;-15.1529;3.9361;-0.0871;-0.2862;0.1495
0001695195;5.7604;-15.1314;3.9049;-0.0963;-0.2860;0.1685
0001695207;5.6838;-15.2439;3.9911;-0.0959;-0.2964;0.1831
0001695216;5.4923;-15.3181;4.1539;-0.1023;-0.3099;0.1927
0001695283;4.5705;-15.4330;4.0558;-0.1693;-0.5271;0.2802
0001695292;4.2497;-15.7610;3.9768;-0.1759;-0.5951;0.2931
0001695304;4.1324;-15.9334;3.7685;-0.1700;-0.6896;0.3048
0001695313;4.0270;-16.0603;3.8020;-0.1641;-0.7625;0.3038
0001695322;4.4796;-15.9741;3.6895;-0.1503;-0.8210;0.3191
0001695335;4.9225;-15.7658;3.7134;-0.1368;-0.8844;0.3495
0001695344;5.4636;-15.3756;3.7948;-0.1335;-0.9057;0.3757
0001695356;5.8897;-15.2199;3.7948;-0.1446;-0.8941;0.4102
0001695365;6.4356;-14.9997;3.6536;-0.1591;-0.8697;0.4282
0001695378;6.6822;-15.2128;3.4907;-0.1775;-0.8316;0.4287
0001695387;6.9623;-15.0045;3.3543;-0.1888;-0.7918;0.4237
0001695399;7.0102;-15.0212;3.3758;-0.2217;-0.7329;0.4133
0001695408;6.6774;-15.5336;3.2753;-0.2266;-0.7005;0.3896
0001695421;6.3446;-15.9957;3.4093;-0.2129;-0.6428;0.3443
0001695430;6.3446;-16.1010;3.4093;-0.1880;-0.6110;0.3052
0001695439;6.3303;-16.0890;3.4165;-0.1620;-0.5770;0.2595
0001695451;6.3375;-16.1968;3.3375;-0.1199;-0.5407;0.2060
0001695460;6.1100;-16.2016;3.4979;-0.0827;-0.5188;0.1576
0001695473;6.0334;-16.2925;3.2872;-0.0452;-0.4808;0.1015
0001695482;5.8395;-16.3285;3.3878;-0.0215;-0.4429;0.0819
0001695494;5.6695;-16.3835;3.5075;0.0175;-0.4274;0.0362
0001695503;5.5881;-16.4817;3.4907;0.0650;-0.4305;0.0008
0001695570;5.6072;-15.5479;2.9951;0.3524;-0.4931;-0.0183
0001695579;6.1172;-15.2894;3.1651;0.3479;-0.4461;-0.0007
0001695591;6.5625;-14.8584;3.1244;0.3387;-0.3889;0.0199
0001695600;6.8738;-14.7435;3.0454;0.3106;-0.3171;0.0484
0001695609;6.9839;-14.6094;3.1173;0.2907;-0.2529;0.0699
0001695622;7.3358;-14.2575;3.4788;0.2549;-0.1522;0.0958
0001695631;7.2712;-14.4658;3.6033;0.2246;-0.0870;0.1037
0001695643;7.0054;-14.4706;3.6392;0.1881;-0.0183;0.1143
0001695652;7.2784;-14.2766;3.7158;0.1611;0.0321;0.1250
0001695665;7.1682;-14.2216;3.9552;0.1059;0.0983;0.1346
0001695674;6.7181;-14.5065;4.0558;0.0742;0.1242;0.1243
0001695686;6.5841;-14.6262;4.2306;0.0349;0.1585;0.1088
0001695695;6.3782;-15.0380;4.3694;0.0123;0.1783;0.1029
0001695704;6.3279;-15.2391;4.3790;0.0023;0.1888;0.0830
0001695717;5.8802;-15.6006;4.2952;0.0147;0.1863;0.0421
0001695726;5.7652;-15.8209;4.3287;0.0402;0.1700;0.0113
0001695738;5.2912;-16.0603;4.1922;0.0795;0.1342;-0.0233
0001695747;5.1858;-16.0220;4.2521;0.1174;0.1092;-0.0505
0001695760;4.9033;-15.8879;4.0199;0.1675;0.0550;-0.0882
0001695769;4.8746;-15.8113;3.7972;0.1974;0.0272;-0.1015
0001695778;5.0613;-15.6198;3.6440;0.2172;-0.0104;-0.1256
0001695790;5.2074;-15.3277;3.7062;0.2293;-0.0529;-0.1431
0001695799;4.9033;-15.2559;3.6464;0.2161;-0.0588;-0.1314
0001695866;6.4572;-15.4402;4.2234;0.0172;0.2438;0.0284
0001695875;6.4859;-15.9071;4.3598;0.0650;0.2730;0.0337
0001695887;6.5386;-16.0268;4.5394;0.1352;0.3068;0.0513
0001695896;6.3925;-16.0076;4.6136;0.1916;0.3331;0.0613
0001695909;6.4069;-15.8927;4.5825;0.2601;0.3571;0.0584
0001695918;6.4141;-15.5216;4.5203;0.2982;0.3705;0.0440
0001695927;6.4476;-15.1194;4.5059;0.3075;0.3893;0.0325
0001695939;6.3398;-14.9685;4.1324;0.2956;0.4026;0.0019
0001695948;6.5194;-14.4849;4.2306;0.2471;0.4351;-0.0096
0001695961;6.2872;-14.6118;4.2545;0.1553;0.4623;-0.0541
0001695970;6.1339;-14.7962;4.2449;0.0973;0.4624;-0.0987
0001695982;5.8419;-15.1721;4.2928;0.0425;0.4618;-0.1434
0001695991;5.7557;-15.4474;4.5610;0.0192;0.4684;-0.1593
0001696004;5.7748;-15.4498;4.4987;0.0314;0.4639;-0.1764
0001696013;5.4731;-15.7419;4.5370;0.0576;0.4587;-0.1815
0001696022;5.4253;-15.5360;4.3934;0.0746;0.4656;-0.1685
0001696034;5.4899;-15.1409;4.2928;0.0833;0.4683;-0.1701
0001696043;5.5905;-14.7986;4.2856;0.0726;0.4726;-0.1653
0001696056;5.5234;-14.5160;4.1875;0.0689;0.4672;-0.1522
0001696065;5.2888;-14.2958;4.1539;0.0522;0.4651;-0.1466
0001696077;5.2265;-14.2311;4.0199;0.0139;0.4723;-0.1238
0001696086;4.9847;-14.1354;3.9959;-0.0181;0.4622;-0.1174
0001696153;4.9440;-14.6405;4.2928;-0.1635;0.3391;-0.0655
0001696162;4.9752;-14.6597;4.3048;-0.1711;0.3200;-0.0753
0001696171;5.1571;-14.8369;4.1970;-0.1813;0.3123;-0.0874
0001696183;5.6216;-14.6094;4.1061;-0.1953;0.3242;-0.0919
0001696192;5.6934;-14.5663;4.0366;-0.2001;0.3391;-0.1030
0001696205;5.7102;-14.4538;4.1803;-0.2121;0.3893;-0.1086
0001696214;5.8059;-14.4490;4.1420;-0.2142;0.4110;-0.1199
0001696226;5.7245;-14.4586;4.0366;-0.2249;0.4053;-0.1632
0001696235;5.5043;-14.4155;3.9935;-0.2378;0.4004;-0.1962
0001696248;4.7884;-14.3125;3.9121;-0.2686;0.3734;-0.2194
0001696257;4.2856;-14.2551;4.0965;-0.2920;0.3523;-0.2192
0001696268;4.2952;-14.3125;3.8140;-0.3284;0.3160;-0.2129
0001696277;4.4341;-14.5687;3.8714;-0.3625;0.2882;-0.2106
0001696286;4.4604;-14.6789;3.8379;-0.3821;0.2507;-0.2116
0001696300;4.8339;-14.6046;3.8068;-0.4153;0.2113;-0.2006
0001696309;4.6807;-14.7531;3.7948;-0.4274;0.1733;-0.1900
0001696322;4.5897;-14.8752;3.7517;-0.4475;0.1198;-0.1789
0001696331;4.4532;-14.9662;3.6631;-0.4430;0.0794;-0.1643
0001696343;4.5011;-14.8536;3.6775;-0.4458;0.0238;-0.1575
0001696352;4.4508;-15.0883;3.6296;-0.4455;-0.0193;-0.1420
0001696365;4.4317;-15.1385;3.5051;-0.4410;-0.0925;-0.1303
0001696374;4.4029;-15.1194;3.5698;-0.4281;-0.1487;-0.1234
0001696444;4.5777;-15.4234;3.0861;-0.4125;-0.3934;-0.0374
0001696453;4.7549;-15.2367;3.0837;-0.4096;-0.4273;-0.0430
0001696466;4.4245;-15.2511;2.8946;-0.4314;-0.4664;-0.0312
0001696475;4.4891;-15.2654;2.8132;-0.4835;-0.4718;0.0033
0001696484;4.6280;-15.4330;2.8419;-0.5340;-0.4814;0.0342
0001696496;4.8363;-16.0124;3.0167;-0.5522;-0.4338;0.0750
0001696505;5.1260;-16.5008;3.2250;-0.5155;-0.4066;0.0754
0001696518;5.7940;-16.6828;3.4788;-0.4350;-0.4000;0.0460
0001696527;5.9855;-16.7235;3.3543;-0.3826;-0.3934;0.0222
0001696539;5.6240;-16.3955;3.4093;-0.3615;-0.3659;-0.0176
0001696548;5.2385;-15.9909;3.4405;-0.3914;-0.3428;-0.0241
0001696561;4.8267;-15.8951;3.1675;-0.4903;-0.3103;0.0071
0001696570;4.9775;-16.2207;3.1675;-0.5344;-0.2813;0.0373
0001696582;5.0996;-16.7450;3.3734;-0.5249;-0.2583;0.0759
0001696591;5.2050;-17.2861;3.5171;-0.4523;-0.2493;0.1079
0001696600;5.4827;-17.4106;3.5123;-0.3399;-0.2280;0.1442
0001696613;5.3271;-17.1568;3.3232;-0.1805;-0.2304;0.1707
0001696622;5.1882;-16.7977;3.1723;-0.0994;-0.2349;0.1901
0001696634;5.0087;-16.1465;2.8754;-0.0444;-0.2577;0.1935
0001696643;4.9009;-15.9071;2.7605;-0.0313;-0.2948;0.1992
0001696656;4.7285;-15.5049;2.8036;-0.0562;-0.3243;0.2120
0001696665;4.8387;-15.3756;2.9042;-0.0879;-0.3419;0.2326
0001696735;5.4851;-14.5496;2.1620;0.1970;-0.6745;0.1372
0001696744;5.6527;-14.1785;1.9776;0.1652;-0.6928;0.1284
0001696753;5.7485;-14.0061;1.9800;0.1242;-0.7064;0.1187
0001696766;6.2417;-13.9869;1.9776;0.0819;-0.6892;0.1179
0001696775;6.5242;-13.9702;1.7071;0.0582;-0.6604;0.1078
0001696787;7.2113;-13.7236;1.5155;0.0280;-0.5937;0.1074
0001696796;7.5561;-13.4985;1.5107;-0.0092;-0.5332;0.1102
0001696809;7.4292;-13.4027;1.7645;-0.0711;-0.4165;0.1390
0001696818;7.2856;-13.2280;1.8531;-0.1115;-0.3242;0.1613
0001696830;7.0461;-13.3261;2.0231;-0.1680;-0.2320;0.1801
0001696839;6.7971;-13.2687;2.0063;-0.2006;-0.2054;0.1685
0001696852;6.3925;-13.5919;2.1213;-0.2390;-0.2077;0.1368
0001696861;5.9879;-13.5799;2.2290;-0.2603;-0.2152;0.1340
0001696870;5.4396;-13.9462;2.7294;-0.2809;-0.2502;0.1374
0001696882;4.7142;-14.4059;3.4955;-0.3076;-0.3480;0.1368
0001696891;4.1276;-15.0835;3.5506;-0.3441;-0.4447;0.1232
0001696904;3.4764;-15.8400;3.5554;-0.3932;-0.5408;0.1294
0001696913;3.3998;-16.5248;4.2952;-0.4187;-0.5614;0.1394
0001696925;3.8211;-17.9326;4.8339;-0.4018;-0.5889;0.1143
0001696934;4.1252;-19.2542;4.8291;-0.3576;-0.5974;0.0738
0001696947;4.8602;-20.5853;4.5921;-0.2549;-0.5970;0.0068
0001696956;5.1715;-20.9253;4.5538;-0.1055;-0.5854;-0.0384
0001697025;4.1492;-15.3827;4.5705;0.0524;-0.6439;-0.0015
0001697034;3.6990;-16.5344;4.2401;-0.1688;-0.6821;-0.0522
0001697043;3.8403;-17.4705;3.7589;-0.2898;-0.6767;-0.0450
0001697056;4.7956;-18.7370;3.6847;-0.2702;-0.5594;0.0156
0001697065;6.5625;-18.9621;3.5937;-0.1871;-0.4578;0.0432
0001697077;7.7524;-19.3547;3.4860;0.0204;-0.3088;0.0783
0001697086;8.0852;-19.3763;3.4429;0.1717;-0.1765;0.1138
0001697099;7.0006;-18.3587;3.1340;0.3954;-0.0172;0.0935
0001697108;6.3303;-17.2790;3.0430;0.4732;0.0629;0.0771
0001697120;5.5234;-16.1513;2.8730;0.4932;0.1082;0.0614
0001697129;5.0613;-15.6389;2.7294;0.4694;0.1274;0.0665
0001697138;4.7884;-15.4594;2.9018;0.4495;0.1368;0.0873
0001697151;4.7788;-15.1768;2.9688;0.4134;0.1494;0.1355
0001697160;5.0853;-15.2870;3.0502;0.4018;0.1569;0.1553
0001697172;5.2265;-15.2846;3.2010;0.4041;0.1661;0.1703
0001697181;5.3486;-15.2511;3.0071;0.4050;0.1737;0.1732
0001697194;5.4277;-15.1361;3.0215;0.4078;0.1644;0.1468
0001697203;5.4181;-14.9638;3.1077;0.3916;0.1637;0.1244
0001697215;5.2912;-15.0547;3.0071;0.3748;0.1715;0.0969
0001697224;5.3319;-14.8081;3.3184;0.3581;0.1669;0.0677
0001697233;5.4708;-14.7555;3.4285;0.3134;0.1755;0.0540
0001697246;5.3798;-14.7100;3.4836;0.2725;0.1976;0.0183
0001697255;5.4061;-14.9446;3.5291;0.2451;0.2116;-0.0113
0001697325;5.1978;-15.7515;3.6679;0.3873;0.2495;-0.0453
0001697334;5.4540;-15.6653;3.7230;0.4002;0.2477;-0.0252
0001697347;5.1380;-15.7778;3.6105;0.4321;0.2149;-0.0161
0001697356;4.8985;-15.7922;3.4812;0.4431;0.1960;0.0036
0001697365;4.7429;-15.6605;3.5171;0.4539;0.1721;0.0108
0001697377;4.8578;-15.3660;3.6224;0.4660;0.1344;0.0305
0001697386;4.6208;-15.5192;3.8762;0.4639;0.1026;0.0548
0001697399;4.7429;-15.4258;4.0606;0.4706;0.0330;0.0673
0001697408;4.6998;-15.5192;4.0654;0.4828;-0.0093;0.0746
0001697420;4.5322;-15.7323;4.2832;0.4840;-0.0524;0.0691
0001697429;4.8028;-15.4833;4.3910;0.4822;-0.0810;0.0661
0001697442;5.3079;-15.5886;4.2713;0.4731;-0.1027;0.0537
0001697451;5.5761;-15.6174;4.1515;0.4671;-0.0982;0.0470
0001697460;5.9017;-15.7084;3.9768;0.4640;-0.0793;0.0394
0001697472;6.2656;-15.7850;3.8427;0.4575;-0.0238;0.0369
0001697481;6.6080;-15.5910;3.7062;0.4591;0.0373;0.0414
0001697494;6.6272;-15.3564;3.5650;0.4523;0.1370;0.0418
0001697503;6.4524;-15.1385;3.4405;0.4338;0.2070;0.0373
0001697515;6.3351;-15.0595;3.5147;0.4141;0.2795;0.0085
0001697524;6.2632;-14.9757;3.7924;0.4041;0.3199;-0.0273
0001697537;5.6120;-15.1912;4.0414;0.4040;0.3531;-0.0846
0001697546;5.3510;-15.0571;4.0582;0.4042;0.3645;-0.1194
0001697555;4.9943;-15.2295;4.2282;0.4257;0.3567;-0.1484
0001697625;3.6392;-14.2311;4.6160;0.5524;0.1795;-0.3007
0001697634;3.6200;-13.9510;4.5993;0.4903;0.1130;-0.3064
0001697647;3.2825;-14.1952;4.6759;0.4345;0.0119;-0.3044
0001697656;3.1244;-14.3317;4.8435;0.4275;-0.0574;-0.2807
0001697668;3.3255;-14.1809;4.8530;0.4117;-0.1392;-0.2220
0001697677;3.4812;-14.2383;4.9847;0.3982;-0.1993;-0.1649
0001697690;3.7158;-13.9773;5.0589;0.3970;-0.2599;-0.0821
0001697699;4.1707;-13.7762;5.2218;0.3717;-0.2975;-0.0249
0001697708;4.3287;-13.7260;5.4109;0.3429;-0.3348;0.0217
0001697720;4.2210;-13.8385;5.3630;0.3042;-0.3769;0.0845
0001697729;4.1228;-14.0109;5.3558;0.2759;-0.4233;0.1175
0001697743;4.2856;-13.9941;5.3415;0.2731;-0.4938;0.1612
0001697752;4.1108;-14.1330;5.4971;0.2466;-0.5311;0.1935
0001697765;4.2952;-14.1354;5.4181;0.2162;-0.5729;0.2164
0001697774;4.5490;-14.2192;5.4708;0.1937;-0.6002;0.2214
0001697786;5.0087;-14.4466;5.5162;0.1768;-0.6139;0.2322
0001697795;5.0925;-14.5687;5.6000;0.1759;-0.6166;0.2398
0001697804;5.3558;-14.6980;5.5569;0.1951;-0.6093;0.2435
0001697817;5.6599;-14.5927;5.5617;0.2076;-0.5682;0.2521
0001697826;5.9568;-14.4777;5.6360;0.2049;-0.5317;0.2579
0001697838;6.0118;-14.4346;5.5737;0.2089;-0.4908;0.2377
0001697847;5.9161;-14.5687;5.6120;0.1985;-0.4489;0.2237
0001697916;5.3582;-14.3077;5.5905;0.1793;-0.2459;0.0437
0001697925;5.0973;-14.2934;5.4708;0.1895;-0.2541;0.0322
0001697937;5.0996;-14.0013;5.5569;0.1915;-0.2802;0.0269
0001697946;5.2984;-13.8193;5.5402;0.1719;-0.2832;0.0349
0001697955;5.3295;-13.7499;5.5976;0.1438;-0.2964;0.0365
0001697968;5.3199;-13.7930;5.6336;0.1070;-0.3050;0.0380
0001697977;5.1715;-13.8337;5.6719;0.0895;-0.3198;0.0374
0001697989;5.1667;-13.6733;5.7509;0.0675;-0.3427;0.0373
0001697998;5.3271;-13.5584;5.7988;0.0522;-0.3617;0.0385
0001698011;5.0973;-13.6924;5.8419;0.0149;-0.3922;0.0333
0001698020;5.2409;-13.7643;5.8203;-0.0028;-0.4149;0.0167
0001698032;5.0135;-14.3030;5.8730;-0.0123;-0.4393;-0.0024
0001698041;5.0446;-14.4610;5.7772;0.0099;-0.4497;-0.0207
0001698054;4.9464;-14.8512;5.7221;0.0481;-0.4714;-0.0508
0001698063;4.8578;-15.0691;5.7054;0.0907;-0.4827;-0.0633
0001698072;4.9536;-15.1170;5.6336;0.1466;-0.5041;-0.0690
0001698084;5.1140;-14.7626;5.5593;0.1867;-0.5207;-0.0390
0001698093;5.0613;-14.6334;5.7988;0.1851;-0.5215;-0.0065
0001698106;5.2936;-14.4203;5.7437;0.1711;-0.5397;0.0418
0001698115;5.3917;-14.1425;5.6671;0.1643;-0.5478;0.0710
0001698127;5.5641;-14.0276;5.7604;0.1423;-0.5522;0.1062
0001698136;5.5569;-14.1018;5.7365;0.1191;-0.5444;0.1331
0001698205;6.2058;-14.4059;5.9328;0.3848;-0.5004;-0.0441
0001698214;5.9352;-14.3604;5.9352;0.4270;-0.5053;-0.0954
0001698223;5.8754;-14.1809;5.8179;0.4545;-0.5056;-0.1522
0001698235;5.7485;-14.1809;5.5761;0.4739;-0.4995;-0.2064
0001698244;5.9472;-13.9319;5.5162;0.4658;-0.4766;-0.2205
0001698257;6.1459;-13.6422;5.5785;0.4509;-0.4570;-0.2513
0001698266;6.3614;-13.4937;5.4923;0.4533;-0.4550;-0.2813
0001698278;6.4212;-13.1873;5.3846;0.4158;-0.4414;-0.2839
0001698287;6.1794;-13.0628;5.3295;0.3567;-0.4441;-0.2793
0001698300;6.2872;-13.1801;5.5354;0.2725;-0.4630;-0.2598
0001698309;6.4476;-13.5033;5.6599;0.2189;-0.4600;-0.2253
0001698321;6.4260;-13.8959;5.9640;0.1741;-0.4415;-0.1796
0001698330;6.7900;-13.8792;6.1124;0.1627;-0.4202;-0.1615
0001698339;6.8378;-13.9893;6.2393;0.1599;-0.3981;-0.1427
0001698352;7.0797;-14.0516;6.3829;0.1660;-0.3772;-0.1271
0001698361;7.0006;-14.1282;6.4356;0.1788;-0.3536;-0.1168
0001698373;7.1539;-14.2718;6.4189;0.2030;-0.3210;-0.0953
0001698382;7.1251;-14.4490;6.3925;0.2306;-0.2936;-0.0915
0001698395;7.6614;-14.1713;6.3758;0.2635;-0.2571;-0.0927
0001698404;7.7381;-14.1090;6.4284;0.2835;-0.2320;-0.0946
0001698416;7.6040;-13.8672;6.3422;0.3055;-0.1962;-0.0809
0001698425;7.7907;-13.5488;6.2058;0.3340;-0.1693;-0.0685
0001698494;7.9511;-13.7954;6.1411;0.0779;0.2022;-0.2150
0001698503;7.5824;-13.8840;6.2417;0.0592;0.2185;-0.2425
0001698512;6.9935;-13.9366;6.4955;0.0645;0.2030;-0.2614
0001698524;6.7229;-13.8289;6.6679;0.0769;0.1880;-0.2669
0001698533;6.5769;-13.7116;6.8163;0.0702;0.1705;-0.2346
0001698546;6.2537;-13.7307;7.1587;0.0817;0.1448;-0.1948
0001698555;6.1938;-13.8840;7.1898;0.0891;0.1243;-0.1545
0001698567;6.2273;-13.9343;7.1922;0.0989;0.1085;-0.1140
0001698576;6.4835;-14.0659;7.2353;0.1118;0.1062;-0.0773
0001698589;6.6463;-13.9055;7.2113;0.1514;0.1035;-0.0470
0001698598;6.8714;-13.7882;7.1563;0.1609;0.1192;-0.0189
0001698607;6.8833;-13.6302;7.1132;0.1703;0.1258;-0.0036
0001698619;6.8019;-13.6422;6.9839;0.1683;0.1474;0.0117
0001698628;6.7086;-13.6446;6.8881;0.1591;0.1776;0.0374
0001698641;6.7325;-13.7116;6.9647;0.1708;0.1935;0.0378
0001698650;6.5146;-13.6829;6.9432;0.1915;0.2002;0.0444
0001698662;6.3877;-13.4674;6.9552;0.2154;0.1988;0.0509
0001698671;6.4715;-13.3189;7.0366;0.2288;0.1919;0.0556
0001698684;6.3135;-13.3620;7.2784;0.2553;0.1763;0.0671
0001698693;6.4596;-13.2854;7.2712;0.2797;0.1553;0.0633
0001698702;6.2513;-13.3884;7.1802;0.2960;0.1440;0.0601
0001698714;6.2441;-13.2758;7.1204;0.3179;0.1270;0.0488
0001698723;6.3853;-13.1394;7.1682;0.3356;0.1026;0.0344
0001698792;6.1339;-12.2248;7.1012;0.2377;-0.0577;0.0608
0001698801;6.2130;-12.1769;7.1563;0.2086;-0.0614;0.0773
0001698813;6.2872;-12.3325;7.2377;0.1796;-0.0634;0.1034
0001698822;6.3303;-12.3613;7.1036;0.1660;-0.0604;0.1220
0001698831;6.3231;-12.3397;7.2472;0.1486;-0.0649;0.1399
0001698844;6.1100;-12.4594;7.0749;0.1184;-0.0621;0.1467
0001698853;6.3063;-12.7012;7.3071;0.0882;-0.0426;0.1585
0001698865;6.4883;-12.8928;7.1682;0.0829;-0.0404;0.1350
0001698874;6.8163;-12.9383;7.2784;0.1018;-0.0305;0.1194
0001698887;6.6559;-13.0819;7.2353;0.1749;-0.0183;0.0909
0001698896;6.6319;-13.0771;7.1922;0.2204;-0.0187;0.0739
0001698908;6.2513;-12.9047;6.9863;0.2646;-0.0115;0.0369
0001698917;6.0214;-12.7467;7.0342;0.2729;-0.0053;0.0028
0001698926;5.7413;-12.7180;6.9719;0.2738;-0.0080;-0.0436
0001698939;5.7174;-12.6462;7.1299;0.2725;-0.0388;-0.1079
0001698948;5.6910;-12.5336;7.3215;0.2613;-0.0450;-0.1263
0001698960;6.0118;-12.3493;7.3191;0.2557;-0.0667;-0.1426
0001698969;6.0142;-12.1602;7.1563;0.2354;-0.0690;-0.1383
0001698982;5.9017;-12.3014;7.0413;0.2101;-0.0492;-0.1118
0001698991;6.1746;-12.3038;6.9935;0.1772;-0.0095;-0.0842
0001699003;6.5410;-12.6486;6.9264;0.1518;0.0306;-0.0673
0001699012;6.9216;-12.8856;7.1036;0.1336;0.0659;-0.0552
0001699080;5.4324;-12.2009;6.8283;0.2569;0.0534;-0.0350
0001699089;5.7581;-12.1338;6.8498;0.2502;0.0245;-0.0426
0001699098;6.0094;-12.3086;6.6679;0.2286;0.0044;-0.0521
0001699110;6.2608;-12.5145;6.9025;0.2214;-0.0203;-0.0755
0001699119;6.5266;-12.1147;6.7445;0.2761;-0.0468;-0.0995
0001699132;6.5529;-11.9686;6.5003;0.1903;-0.0452;-0.1184
0001699141;6.2441;-11.8705;6.5912;0.2350;-0.0663;-0.1430
0001699153;5.9400;-11.6717;6.6080;0.1322;-0.0750;-0.1519
0001699162;6.1387;-10.9463;6.4308;0.1143;-0.0797;-0.1623
0001699175;6.1316;-10.2663;6.2393;-0.0389;-0.0933;-0.1759
0001699184;6.3782;-9.7971;5.8155;-0.1518;-0.1015;-0.1883
0001699196;6.4141;-10.9104;6.1459;-0.4108;-0.0867;-0.1584
0001699205;6.4763;-12.0021;6.3015;-0.4401;-0.0725;-0.1292
0001699214;6.4452;-12.4355;6.3063;-0.4199;-0.0565;-0.1178
0001699228;6.7588;-12.1410;6.2872;-0.3980;-0.0224;-0.1096
0001699237;6.8785;-12.1266;6.3351;-0.4028;0.0129;-0.0969
0001699250;7.0366;-11.9519;7.0653;-0.3902;0.0234;-0.0987
0001699259;6.6702;-12.1554;7.1419;-0.3793;-0.0116;-0.1352
0001699271;6.1579;-12.1123;7.0078;-0.4049;-0.0404;-0.1709
0001699280;5.6862;-12.0883;6.9432;-0.4514;-0.0754;-0.2074
0001699347;7.3957;-11.8776;6.3566;-0.4370;0.1915;-0.3599
0001699356;6.8259;-11.6741;6.3686;-0.5075;0.2356;-0.3776
0001699368;5.7102;-11.7651;6.1196;-0.6451;0.2370;-0.4126
0001699377;5.3726;-11.9638;5.8993;-0.7445;0.1998;-0.4523
0001699386;5.2601;-12.0572;5.6240;-0.8394;0.1347;-0.4840
0001699399;5.4348;-12.0021;5.3702;-0.9407;0.0438;-0.5272
0001699408;5.5545;-12.2344;5.3008;-0.9984;-0.0097;-0.5625
0001699420;6.2608;-12.5049;5.2074;-1.0383;-0.0755;-0.6078
0001699429;6.9839;-12.7419;5.0302;-1.0451;-0.1029;-0.6310
0001699442;7.5010;-13.3812;4.9560;-1.0404;-0.1026;-0.6432
0001699451;7.7859;-13.6374;5.0781;-1.0106;-0.0994;-0.6588
0001699463;8.1092;-14.1473;4.9344;-0.9763;-0.0655;-0.6400
0001699472;8.0110;-13.9079;4.7908;-0.9381;-0.0256;-0.5849
0001699485;7.5130;-14.1258;4.8004;-0.8780;0.0426;-0.4838
0001699494;7.8410;-13.9199;4.9943;-0.8352;0.1035;-0.4142
0001699506;8.1666;-13.9726;5.2864;-0.7707;0.1655;-0.3691
0001699515;8.6694;-13.9199;5.3199;-0.7132;0.2273;-0.3583
0001699524;9.0453;-14.0061;5.4229;-0.6687;0.3215;-0.3663
0001699537;9.4930;-13.7044;5.1739;-0.6482;0.4866;-0.3832
0001699546;9.8210;-13.8074;4.9033;-0.6728;0.6175;-0.3881
0001699558;9.7133;-13.6757;5.7724;-0.7135;0.8207;-0.4077
0001699567;9.6175;-14.0276;5.7748;-0.7004;1.0010;-0.4109
0001699634;4.8937;-15.8544;6.4212;-1.0245;1.6998;-0.5549
0001699643;3.9768;-15.8185;6.1842;-1.1099;1.5783;-0.5637
0001699655;2.9975;-15.7922;6.8307;-1.1884;1.3374;-0.5772
0001699664;2.7892;-15.6246;7.5154;-1.2239;1.1375;-0.6014
0001699673;2.9401;-16.1345;8.0086;-1.2472;0.9441;-0.5958
0001699686;4.6232;-16.4434;7.3694;-1.2854;0.7510;-0.4956
0001699695;5.3271;-16.6684;6.5601;-1.2629;0.6335;-0.4101
0001699707;6.0071;-16.6301;6.0645;-1.2348;0.5076;-0.3082
0001699716;5.8873;-16.3811;6.2704;-1.2024;0.4221;-0.2778
0001699729;5.5186;-16.7450;6.4715;-1.1084;0.3062;-0.2818
0001699738;5.5952;-16.9102;6.2321;-1.0339;0.2543;-0.2848
0001699750;6.0286;-16.9318;6.3255;-0.9710;0.2495;-0.2254
0001699759;6.5649;-16.8145;6.2441;-0.9393;0.2912;-0.1267
0001699772;7.1419;-17.0467;5.9544;-0.8500;0.3926;0.0188
0001699781;7.0270;-17.0754;5.9113;-0.7580;0.4716;0.0858
0001699790;6.5457;-17.1114;5.6743;-0.6057;0.5187;0.1031
0001699802;5.8490;-16.7091;5.2840;-0.4470;0.5355;0.0919
0001699811;5.3846;-15.9861;5.5785;-0.2944;0.6295;0.1079
0001699824;5.7054;-15.4115;5.5378;-0.0938;0.6723;0.0966
0001699833;6.0310;-15.1242;5.2768;0.0076;0.6847;0.0689
0001699845;5.7628;-14.7603;4.9752;0.0365;0.7065;0.0670
0001699854;5.0781;-14.5041;4.9033;0.0052;0.6812;0.0799
0001699921;3.3591;-15.0380;3.8666;-0.5652;-0.3529;0.0970
0001699930;4.2569;-15.5001;4.0318;-0.6118;-0.4319;0.1082
0001699939;5.1020;-16.3213;4.2521;-0.5973;-0.4558;0.1279
0001699951;6.1866;-17.1904;4.5203;-0.4723;-0.4189;0.1370
0001699960;6.9121;-17.3508;4.6184;-0.3183;-0.3673;0.1003
0001699973;7.3789;-17.4346;4.5179;-0.1298;-0.2507;0.0530
0001699982;7.0533;-16.8983;4.4245;0.0032;-0.1588;0.0001
0001699994;6.4117;-16.0005;4.2090;0.1083;-0.0661;-0.0592
0001700003;5.8897;-15.4019;4.0127;0.1334;-0.0112;-0.0861
0001700016;5.2361;-15.0643;3.8188;0.1194;0.0129;-0.1013
0001700025;5.1188;-14.8488;3.7350;0.0993;0.0096;-0.1003
0001700037;5.1906;-14.9925;3.7900;0.0902;-0.0013;-0.0851
0001700046;5.1164;-15.1721;3.7469;0.0766;-0.0052;-0.0498
0001700055;5.1260;-15.0093;3.6919;0.0787;-0.0300;-0.0344
0001700068;5.1068;-14.8297;3.7206;0.0782;-0.0701;-0.0088
0001700077;4.8507;-15.0859;3.7876;0.0659;-0.0917;0.0313
0001700089;4.9321;-15.0332;3.6966;0.0440;-0.1180;0.0703
0001700098;5.0326;-14.9207;3.7852;0.0252;-0.1330;0.0985
0001700111;5.1595;-14.9662;3.9456;-0.0013;-0.1559;0.1290
0001700120;5.3295;-14.9662;3.9552;-0.0143;-0.1609;0.1458
0001700132;5.3941;-15.0523;4.1851;-0.0212;-0.1841;0.1529
0001700141;5.3965;-15.0069;4.2569;-0.0289;-0.2068;0.1621
0001700150;5.3750;-15.2918;4.4269;-0.0234;-0.2382;0.1707
0001700217;7.0342;-15.0308;4.5131;-0.0346;-0.1307;0.1247
0001700226;7.0892;-15.1673;4.3862;-0.0480;-0.0823;0.1073
0001700238;7.1802;-15.2511;4.3287;-0.0585;-0.0208;0.0722
0001700247;7.1970;-15.5120;4.2689;-0.0545;0.0264;0.0500
0001700260;7.2640;-15.5623;4.1922;-0.0272;0.0851;0.0112
0001700269;7.0964;-15.5815;4.2593;-0.0040;0.1215;-0.0117
0001700281;7.0988;-15.6341;4.1061;0.0217;0.1593;-0.0341
0001700290;6.7397;-15.6677;4.0797;0.0482;0.1820;-0.0357
0001700303;6.5050;-15.6509;3.7733;0.0670;0.1976;-0.0344
0001700312;6.4715;-15.4905;3.7110;0.0683;0.2141;-0.0081
0001700321;6.2704;-15.4139;3.6009;0.0807;0.2254;0.0101
0001700333;5.8802;-15.2702;3.6009;0.0819;0.2389;0.0365
0001700342;5.7365;-15.1146;3.7086;0.0781;0.2446;0.0438
0001700355;5.7988;-15.1385;3.7373;0.0605;0.2453;0.0468
0001700364;5.7820;-15.2343;3.7421;0.0462;0.2551;0.0572
0001700376;5.7341;-15.2654;3.8595;0.0450;0.2427;0.0558
0001700385;5.6575;-15.4234;3.8044;0.0470;0.2435;0.0621
0001700394;5.4061;-15.5551;3.9840;0.0466;0.2430;0.0557
0001700407;5.5881;-15.4258;4.0270;0.0569;0.2346;0.0486
0001700416;5.4731;-15.4067;3.9409;0.0690;0.2345;0.0534
0001700428;5.1619;-15.4857;3.9313;0.0793;0.2298;0.0473
0001700437;5.1547;-15.4713;3.8403;0.0759;0.2320;0.0449
0001700504;4.9680;-15.5264;3.7900;0.1811;0.1362;0.0325
0001700513;5.0374;-15.5432;3.7733;0.1908;0.1047;0.0326
0001700525;4.8459;-15.6198;3.7517;0.2062;0.0604;0.0341
0001700534;4.9416;-15.6868;3.5937;0.2109;0.0341;0.0441
0001700543;5.1619;-15.7155;3.6727;0.2200;0.0140;0.0509
0001700556;5.7964;-15.6748;3.7350;0.2398;0.0033;0.0448
0001700565;5.8490;-15.8065;3.8140;0.2519;0.0160;0.0432
0001700577;5.9089;-15.8951;3.8331;0.2745;0.0377;0.0366
0001700586;6.0669;-15.8400;3.8020;0.2875;0.0542;0.0248
0001700599;6.3398;-15.9143;3.7948;0.3179;0.0858;0.0097
0001700608;6.2968;-16.0124;3.8906;0.3404;0.1074;-0.0043
0001700617;6.4404;-15.8568;4.0749;0.3673;0.1347;-0.0180
0001700629;6.5434;-15.5839;4.1156;0.3898;0.1805;-0.0498
0001700638;6.6487;-15.5025;4.0821;0.3924;0.2242;-0.0618
0001700652;6.5338;-15.2630;4.2952;0.3986;0.2809;-0.1033
0001700661;6.6319;-15.1433;4.3359;0.3989;0.3198;-0.1188
0001700674;6.3805;-15.0452;4.1994;0.3992;0.3737;-0.1395
0001700683;6.0549;-14.9231;4.2138;0.3953;0.4052;-0.1523
0001700695;5.8610;-14.7267;4.3287;0.3904;0.4375;-0.1597
0001700704;5.5905;-14.6286;4.2497;0.3921;0.4485;-0.1617
0001700713;5.5138;-14.6812;4.2737;0.3912;0.4682;-0.1692
0001700726;5.3678;-14.4993;4.4173;0.3910;0.4687;-0.1697
0001700735;5.3223;-14.3413;4.4365;0.3853;0.4799;-0.1440
0001700803;5.0973;-15.4953;4.9608;0.5364;0.4927;0.1905
0001700812;4.7477;-15.5503;4.9895;0.5765;0.4976;0.2184
0001700825;4.8435;-15.1816;4.8937;0.6320;0.5072;0.2494
0001700834;4.7046;-15.1505;5.1116;0.6626;0.5083;0.2419
0001700846;4.7549;-14.7842;5.3032;0.6672;0.5324;0.2170
0001700855;4.6902;-14.6549;5.2625;0.6663;0.5405;0.1769
0001700864;4.6232;-14.3772;5.4133;0.6584;0.5241;0.1243
0001700877;4.0893;-14.1234;5.2720;0.6119;0.4718;0.0857
0001700886;3.7517;-14.0564;5.2912;0.5710;0.4042;0.0777
0001700898;3.2489;-14.2407;5.4971;0.5048;0.2714;0.0814
0001700907;3.1891;-14.2311;5.3582;0.4740;0.1584;0.1058
0001700920;3.2657;-14.4418;5.4181;0.4330;0.0144;0.1556
0001700929;3.3184;-14.4083;5.4731;0.4118;-0.0721;0.1960
0001700941;3.6009;-14.2024;5.6886;0.3753;-0.1645;0.2465
0001700950;4.0342;-13.8457;5.8179;0.3471;-0.2162;0.2779
0001700959;4.5562;-13.5416;5.8083;0.3120;-0.2458;0.3083
0001700972;4.8411;-13.6733;6.0406;0.2571;-0.2705;0.2978
0001700981;4.8890;-13.6565;6.1435;0.2241;-0.2683;0.2733
0001700993;5.0422;-13.8026;6.2201;0.1840;-0.2518;0.2256
0001701002;5.0757;-13.9678;6.2177;0.1649;-0.2354;0.1927
0001701015;5.2601;-13.8792;6.1148;0.1426;-0.2020;0.1414
0001701024;5.1954;-14.1330;6.1268;0.1340;-0.1844;0.1041
0001701092;4.7812;-14.0540;5.8442;0.1708;-0.1095;-0.1115
0001701101;4.9081;-13.9893;5.8610;0.1560;-0.0943;-0.0946
0001701110;4.7932;-13.8672;5.8945;0.1624;-0.0987;-0.1071
0001701123;4.7381;-14.0707;5.8347;0.1789;-0.1179;-0.1196
0001701132;4.6160;-14.2335;5.9496;0.2065;-0.1426;-0.1282
0001701144;4.1300;-14.4179;6.1507;0.2451;-0.1908;-0.1434
0001701153;3.9025;-14.3532;6.3518;0.2844;-0.2344;-0.1625
0001701166;3.7852;-14.6501;6.3542;0.3371;-0.2963;-0.1683
0001701175;4.0390;-14.6214;6.3566;0.3491;-0.3320;-0.1737
0001701187;4.4245;-14.6286;6.2465;0.3648;-0.3773;-0.1968
0001701196;4.4532;-14.7411;6.1316;0.3892;-0.4064;-0.2156
0001701209;4.6519;-14.7507;6.1124;0.4238;-0.4430;-0.2549
0001701218;4.7669;-14.4897;5.9975;0.4466;-0.4554;-0.2758
0001701227;4.6855;-14.3341;5.7844;0.4719;-0.4746;-0.2926
0001701239;4.7908;-13.8816;5.4133;0.4798;-0.4846;-0.3116
0001701248;4.7094;-13.4387;5.2960;0.4894;-0.5067;-0.3259
0001701261;4.5155;-13.0005;5.5952;0.4551;-0.5237;-0.3311
0001701270;4.5274;-12.7204;5.8610;0.4040;-0.4971;-0.2836
0001701282;5.4827;-12.6462;5.8347;0.3254;-0.4434;-0.2264
0001701291;5.8706;-12.7252;5.9113;0.2479;-0.3893;-0.1921
0001701304;6.6511;-12.8856;5.7604;0.1308;-0.2948;-0.1663
0001701313;6.7947;-13.0269;5.5641;0.0743;-0.2278;-0.1518
0001701383;4.7238;-13.4123;5.8514;0.1363;-0.2126;-0.2771
0001701392;4.5993;-13.3189;5.7988;0.1597;-0.2519;-0.2839
0001701401;4.6974;-13.1777;6.0669;0.1744;-0.2954;-0.2825
0001701414;4.7166;-13.1394;6.1818;0.1675;-0.3259;-0.2505
0001701423;4.7501;-13.2902;6.2728;0.1607;-0.3467;-0.2176
0001701435;5.1571;-13.6613;6.3686;0.1511;-0.3527;-0.1740
0001701444;5.8802;-13.5464;6.3279;0.1486;-0.3367;-0.1452
0001701457;6.1699;-14.1569;6.4500;0.1899;-0.3180;-0.1299
0001701466;6.2177;-14.3915;6.3375;0.2505;-0.3088;-0.1354
0001701478;6.4643;-14.6166;6.4500;0.3561;-0.2926;-0.1545
0001701487;6.5745;-14.6405;6.2991;0.4572;-0.2903;-0.1787
0001701496;6.2513;-14.4394;6.0047;0.5894;-0.3003;-0.2070
0001701509;6.0406;-13.9271;5.3103;0.7837;-0.3139;-0.2221
0001701518;5.6838;-13.1202;4.7645;0.8816;-0.3473;-0.2272
0001701530;5.0374;-12.2080;4.5131;0.9205;-0.4081;-0.2356
0001701539;4.7645;-10.9966;4.2425;0.8988;-0.4744;-0.2505
0001701552;4.3910;-9.9216;4.2258;0.7734;-0.5621;-0.2353
0001701561;4.6064;-9.2512;4.3263;0.6022;-0.6030;-0.2141
0001701573;5.1092;-8.8394;4.3335;0.3415;-0.6503;-0.1776
0001701582;5.8490;-8.7053;4.3934;0.1671;-0.6607;-0.1560
0001701595;6.8139;-8.5497;4.9488;-0.0773;-0.6099;-0.0810
0001701604;7.4555;-8.5880;5.0589;-0.2623;-0.5380;-0.0072
0001701613;7.7117;-9.0214;5.1212;-0.4215;-0.4580;0.0662
0001701683;5.8490;-16.1441;6.6319;-0.5004;-0.2144;0.3669
0001701692;5.3319;-16.5176;6.5338;-0.3428;-0.1867;0.4979
0001701705;5.5809;-15.9741;6.5266;-0.1324;-0.0794;0.7073
0001701714;5.9137;-15.3684;6.5122;-0.0378;0.0060;0.8123
0001701726;6.3949;-14.7674;6.3231;0.0512;0.0834;0.8684
0001701735;6.9097;-14.2216;6.5553;0.1152;0.1496;0.8821
0001701748;7.4053;-14.1330;6.8426;0.1518;0.2559;0.8916
0001701757;7.7141;-14.0540;7.0006;0.1715;0.3198;0.8777
0001701766;7.7045;-14.1593;7.2042;0.2125;0.3757;0.8467
0001701778;7.7979;-13.9558;7.3358;0.2860;0.4477;0.7898
0001701787;7.4460;-13.8002;7.1802;0.3236;0.4863;0.7116
0001701800;6.6918;-13.5655;7.1515;0.3268;0.5277;0.6031
0001701809;6.4356;-13.2232;6.9168;0.3016;0.5548;0.5355
0001701821;6.0358;-13.2304;6.9647;0.2284;0.5674;0.4430
0001701830;6.0358;-13.2878;7.1802;0.1555;0.5636;0.3785
0001701843;5.6934;-13.5488;8.1547;0.0878;0.5061;0.2707
0001701852;5.3486;-13.5225;7.6710;0.0564;0.4365;0.1494
0001701861;5.2696;-13.1298;7.8889;0.0169;0.3171;0.0264
0001701873;4.7046;-12.7467;7.8171;-0.0517;0.1561;-0.1435
0001701882;4.4796;-12.6007;7.7788;-0.1244;0.0389;-0.2521
0001701895;4.3838;-12.2200;7.7141;-0.2482;-0.1368;-0.3861
0001701904;4.6519;-12.1242;7.5968;-0.3583;-0.2446;-0.4631
0001701976;5.1906;-12.1242;7.1635;-1.0652;-0.5809;-0.5016
0001701985;4.4341;-12.3780;8.0325;-1.1446;-0.6535;-0.4836
0001701998;2.9760;-13.1753;8.1475;-1.2417;-0.8332;-0.4883
0001702007;2.0063;-13.9750;8.3582;-1.3158;-1.0301;-0.5209
0001702016;0.6847;-14.9638;8.3055;-1.3931;-1.2682;-0.5772
0001702028;-0.7398;-15.9143;8.5497;-1.4758;-1.6474;-0.6459
0001702037;-0.8811;-16.7929;7.9990;-1.5048;-1.9092;-0.6151
0001702050;1.5275;-16.8384;6.6367;-1.3651;-2.1615;-0.4317
0001702059;3.2872;-16.5128;6.3758;-1.2524;-2.2078;-0.2586
0001702071;6.3183;-15.8831;5.6240;-1.1486;-2.1372;-0.0492
0001702080;8.6287;-15.5360;5.2361;-1.1050;-1.9843;0.0632
0001702093;10.7260;-15.1816;4.6711;-1.0075;-1.5917;0.1849
0001702102;11.2839;-15.2367;4.4987;-0.9423;-1.2620;0.2084
0001702114;12.4642;-15.7275;4.7357;-0.9485;-0.9300;0.1382
0001702123;13.2735;-16.5583;5.0159;-0.8715;-0.7478;0.0465
0001702137;12.6917;-17.7315;5.5091;-0.6447;-0.5466;-0.0468
0001702146;9.6917;-16.8672;5.3774;-0.3858;-0.3380;-0.0466
0001702155;7.9607;-16.1992;5.5115;-0.2626;-0.2434;-0.0991
0001702224;6.2321;-16.4889;5.5019;0.0337;-0.2811;-0.0234
0001702233;6.8666;-16.3285;5.6527;0.1047;-0.3124;-0.0258
0001702245;7.3717;-16.1776;5.5593;0.1996;-0.3022;-0.0055
0001702254;7.7309;-15.9717;5.3534;0.2453;-0.2705;0.0012
0001702267;8.4204;-15.3756;5.3965;0.2749;-0.1972;0.0148
0001702276;8.8370;-15.2678;5.2385;0.2766;-0.1074;0.0305
0001702288;8.7604;-14.8512;5.1954;0.2615;0.0099;0.0297
0001702297;8.4539;-14.6717;4.9656;0.2455;0.0693;0.0258
0001702310;7.3334;-14.1713;4.8507;0.2058;0.1163;0.0458
0001702319;6.4260;-14.1545;4.5849;0.1644;0.1041;0.0818
0001702328;6.0238;-14.1114;4.6184;0.1308;0.0490;0.1203
0001702340;5.2194;-13.8529;4.6424;0.0769;-0.0228;0.1904
0001702349;4.8818;-13.7475;4.7285;0.0377;-0.0961;0.2389
0001702362;4.9392;-13.8169;4.8961;-0.0416;-0.1977;0.3280
0001702371;5.4085;-13.7379;4.8937;-0.0930;-0.2746;0.3700
0001702383;5.8634;-14.2263;5.1547;-0.1292;-0.3671;0.3989
0001702392;6.6200;-14.4777;5.2888;-0.1354;-0.4218;0.4009
0001702405;7.1874;-14.9255;5.3343;-0.1023;-0.4766;0.3704
0001702414;7.4915;-15.1553;5.2481;-0.0634;-0.5007;0.3295
0001702423;7.6231;-15.2271;5.1380;-0.0139;-0.5260;0.2765
0001702435;7.3717;-15.4929;4.9464;0.0505;-0.5352;0.2125
0001702444;6.9647;-15.6485;4.8507;0.1007;-0.5498;0.1829
0001702513;7.0797;-14.3413;4.7645;0.1888;-0.7743;0.2701
0001702522;7.0964;-14.4370;4.7692;0.1645;-0.7831;0.2727
0001702534;7.4819;-14.7028;4.7692;0.1561;-0.7879;0.2658
0001702543;7.9128;-14.7100;4.7309;0.1532;-0.7625;0.2697
0001702556;8.0661;-15.2175;4.8602;0.1689;-0.7238;0.2855
0001702565;8.2648;-15.4234;4.9321;0.2076;-0.6997;0.2787
0001702574;8.7197;-15.6270;4.8698;0.2450;-0.6671;0.2782
0001702586;8.8849;-15.6413;4.9560;0.3252;-0.6354;0.2438
0001702595;9.0621;-15.8281;5.2481;0.3640;-0.5817;0.2056
0001702608;9.2512;-15.6772;5.3750;0.4177;-0.5119;0.1520
0001702617;9.3374;-15.3373;5.5186;0.4686;-0.4672;0.1208
0001702629;9.3111;-15.2056;5.3630;0.5177;-0.4279;0.0799
0001702638;9.3278;-14.9015;5.3510;0.5305;-0.3592;0.0743
0001702651;9.3230;-14.6262;5.4277;0.5457;-0.2835;0.0841
0001702660;9.0214;-14.4275;5.2170;0.5341;-0.2313;0.0938
0001702669;8.9256;-14.1545;5.1212;0.5151;-0.1943;0.0863
0001702681;8.7173;-14.1090;5.0015;0.4715;-0.1458;0.0734
0001702690;8.3869;-14.3844;4.9775;0.4381;-0.1183;0.0701
0001702703;7.9272;-14.1976;5.6216;0.3964;-0.0825;0.0929
0001702712;7.6758;-14.2407;5.1571;0.3837;-0.0573;0.1276
0001702724;7.5776;-14.1282;5.2792;0.3901;-0.0320;0.1708
0001702733;7.7117;-14.0348;5.0805;0.3932;-0.0357;0.1876
0001702802;8.2504;-14.7986;6.1028;0.3980;0.0482;0.3487
0001702811;8.6239;-14.4538;6.2632;0.4341;0.1015;0.3471
0001702820;8.7771;-14.4921;6.1268;0.4370;0.1627;0.3271
0001702832;8.6024;-14.4394;6.4021;0.4612;0.2398;0.2826
0001702841;8.1714;-14.7004;6.2776;0.4715;0.2964;0.2433
0001702854;8.3175;-14.3149;6.5386;0.5231;0.3404;0.1855
0001702863;8.1068;-14.2838;6.4739;0.5717;0.3592;0.1528
0001702875;7.3622;-14.1162;6.2968;0.6066;0.3632;0.1288
0001702884;7.2377;-13.3118;6.4165;0.6201;0.3621;0.1500
0001702897;6.6822;-12.6677;6.2082;0.5656;0.3393;0.1728
0001702906;6.4667;-12.4211;6.3949;0.5229;0.3311;0.2008
0001702915;6.1818;-12.4642;6.2537;0.4687;0.3166;0.2089
0001702927;6.4260;-11.9878;6.3734;0.3857;0.3155;0.2181
0001702936;6.7971;-11.9926;6.4715;0.3032;0.3231;0.1974
0001702949;6.8498;-12.2104;6.4596;0.2177;0.3291;0.1506
0001702958;6.8235;-12.2703;6.4955;0.1832;0.3336;0.1196
0001702970;6.6295;-12.3732;6.4284;0.1541;0.3536;0.0922
0001702979;6.4715;-12.6270;6.4404;0.1458;0.3564;0.0699
0001702988;6.4859;-12.6103;6.3638;0.1283;0.3648;0.0554
0001703001;6.2058;-12.8329;6.5314;0.1013;0.3632;0.0266
0001703010;6.1172;-13.0915;6.4572;0.0942;0.3492;-0.0009
0001703022;5.8778;-13.5225;6.4883;0.0943;0.3313;-0.0340
0001703031;6.0525;-13.4195;6.5194;0.1038;0.3187;-0.0641
0001703100;5.6072;-14.1090;6.7900;0.1069;0.2309;-0.1958
0001703109;5.9783;-13.7092;6.9073;0.1219;0.2082;-0.1931
0001703121;5.6192;-13.7858;6.9671;0.1360;0.1813;-0.1828
0001703130;5.5689;-13.6709;6.8618;0.1504;0.1667;-0.1743
0001703139;5.6000;-13.5895;6.7445;0.1529;0.1418;-0.1629
0001703152;5.6479;-13.4698;6.8833;0.1636;0.1062;-0.1480
0001703161;5.4660;-13.8026;6.7421;0.1711;0.0861;-0.1151
0001703173;5.7150;-13.6565;6.8187;0.1931;0.0667;-0.0822
0001703182;5.5522;-14.0875;6.8211;0.2172;0.0536;-0.0636
0001703195;5.7557;-14.1665;6.9552;0.2429;0.0293;-0.0305
0001703204;5.8993;-14.3628;6.8929;0.2537;0.0128;-0.0003
0001703216;6.0358;-14.6573;6.9025;0.3011;-0.0184;0.0372
0001703225;6.1651;-14.7076;6.9456;0.3511;-0.0392;0.0644
0001703234;6.2608;-14.5615;6.7588;0.3978;-0.0446;0.1007
0001703247;6.3231;-14.4610;6.8378;0.4835;-0.0620;0.1276
0001703256;6.3877;-14.3221;6.7277;0.5281;-0.0622;0.1455
0001703268;6.4979;-13.9534;6.7014;0.5740;-0.0717;0.1396
0001703277;6.5888;-13.7331;6.7109;0.5961;-0.0693;0.1307
0001703290;6.7995;-13.5081;6.7445;0.6023;-0.0689;0.1095
0001703299;7.2425;-13.1849;6.7373;0.5954;-0.0604;0.1062
0001703311;7.1874;-12.7707;6.9001;0.5925;-0.0378;0.0950
0001703320;6.9001;-12.6031;6.7253;0.5881;-0.0230;0.0818
0001703329;7.0701;-12.6174;6.7445;0.5493;0.0065;0.0779
0001703398;6.5960;-12.6510;7.1084;0.3644;0.0625;0.0420
0001703407;6.5434;-12.7300;7.1156;0.3461;0.0522;0.0392
0001703419;6.3758;-12.9047;7.1754;0.3467;0.0413;0.0448
0001703428;6.3973;-12.8688;7.0820;0.3371;0.0358;0.0441
0001703441;6.4715;-12.9766;7.2089;0.3529;0.0349;0.0325
0001703450;6.4284;-13.0795;7.2257;0.3423;0.0310;0.0196
0001703462;7.0773;-13.3836;7.5465;0.3475;0.0456;0.0053
0001703471;7.0892;-12.9239;7.1826;0.3872;0.0742;-0.0180
0001703480;7.1251;-13.3453;7.4795;0.3684;0.0959;-0.0293
0001703493;7.2209;-12.6749;7.1682;0.4066;0.1388;-0.0596
0001703502;7.0916;-12.7300;7.1898;0.4002;0.1645;-0.0858
0001703514;7.2784;-12.9359;7.2018;0.4052;0.1925;-0.1186
0001703523;6.9336;-12.8832;7.1994;0.4442;0.2092;-0.1470
0001703536;7.0629;-13.3908;7.6207;0.4732;0.2176;-0.2073
0001703545;7.2401;-13.7930;8.2073;0.5111;0.2389;-0.2228
0001703557;6.8426;-12.8377;7.6950;0.6073;0.2927;-0.2679
0001703566;7.0509;-12.7228;7.2808;0.5804;0.3276;-0.2954
0001703575;6.6319;-12.3373;7.5776;0.6191;0.3587;-0.3067
0001703588;6.6511;-12.1003;7.4436;0.5291;0.3842;-0.3387
0001703597;6.6008;-11.8513;7.5848;0.5059;0.3912;-0.3592
0001703609;6.4787;-11.9064;7.7572;0.4269;0.4145;-0.3605
0001703618;6.5362;-11.6334;7.8003;0.3965;0.4307;-0.3624
0001703688;5.3750;-10.1490;7.2736;-0.1713;0.3044;-0.4221
0001703697;5.1834;-11.4778;7.5010;-0.2154;0.2706;-0.3968
0001703710;5.4229;-12.4546;7.5824;-0.1748;0.2442;-0.3444
0001703719;5.5905;-13.0580;7.6758;-0.1382;0.2333;-0.3126
0001703728;5.7221;-13.0604;7.4579;-0.1015;0.2292;-0.2767
0001703740;5.9161;-12.8210;7.3981;-0.0621;0.2438;-0.2321
0001703749;6.0861;-12.6653;7.2449;-0.0484;0.2698;-0.2014
0001703762;6.4189;-12.2056;7.2401;-0.0490;0.3200;-0.1904
0001703771;6.5505;-12.0452;7.2712;-0.0608;0.3527;-0.1943
0001703783;6.2800;-11.9279;7.1706;-0.0899;0.3988;-0.2218
0001703792;5.9328;-12.0093;7.1347;-0.1120;0.4135;-0.2407
0001703805;5.6719;-11.9064;7.1299;-0.1388;0.4202;-0.2679
0001703814;5.4133;-11.9423;7.2018;-0.1677;0.4117;-0.2741
0001703826;5.1308;-12.2009;7.1251;-0.1848;0.3760;-0.2908
0001703835;4.9033;-12.4953;7.1132;-0.1825;0.3464;-0.2757
0001703844;4.5753;-12.7467;6.8450;-0.1500;0.3075;-0.2730
0001703857;4.8123;-12.5121;6.9168;-0.0966;0.2518;-0.2593
0001703866;4.7692;-12.5408;6.8738;-0.0798;0.2233;-0.2661
0001703878;4.9009;-12.1673;6.6176;-0.0702;0.1740;-0.2870
0001703887;4.9847;-11.9926;6.4117;-0.0707;0.1494;-0.2922
0001703900;4.9991;-11.4227;6.1316;-0.0927;0.1262;-0.2825
0001703909;5.1882;-11.4371;6.3303;-0.1100;0.1187;-0.2698
0001703977;5.7245;-10.9415;5.8442;-0.3016;0.2501;-0.3120
0001703986;5.6336;-10.7811;5.7700;-0.3624;0.2733;-0.3359
0001703999;5.9424;-10.3980;5.4420;-0.4704;0.2966;-0.3455
0001704008;5.5737;-10.4100;5.5426;-0.5718;0.2978;-0.3611
0001704017;5.2912;-10.4842;5.6336;-0.6567;0.2944;-0.3632
0001704029;5.1332;-10.6207;5.6360;-0.7670;0.2459;-0.4002
0001704038;4.9656;-11.0828;5.7006;-0.8428;0.2029;-0.4362
0001704051;4.5849;-11.7412;5.9065;-0.9443;0.1419;-0.4843
0001704060;4.7836;-12.1506;6.0094;-0.9998;0.0957;-0.5232
0001704072;4.6040;-12.8664;5.9065;-1.0066;0.0196;-0.5686
0001704081;4.5083;-13.3764;6.0597;-0.9803;-0.0212;-0.5721
0001704094;4.7980;-13.6039;6.2130;-0.9224;-0.0711;-0.5616
0001704103;4.7980;-13.6709;6.1579;-0.8880;-0.1027;-0.5592
0001704115;5.2098;-13.6541;6.3279;-0.8322;-0.1280;-0.5423
0001704124;5.3726;-13.5943;6.3614;-0.7906;-0.1344;-0.5269
0001704133;5.1499;-13.7954;6.4883;-0.7481;-0.1426;-0.5035
0001704146;5.2265;-13.6398;6.5793;-0.6957;-0.1472;-0.4726
0001704155;5.0135;-13.4578;6.6367;-0.6736;-0.1340;-0.4481
0001704167;5.1140;-13.4674;6.4715;-0.6620;-0.1170;-0.4157
0001704176;4.9656;-13.4267;6.2058;-0.6636;-0.0891;-0.3916
0001704189;5.1044;-13.0436;5.9185;-0.6768;-0.0458;-0.3712
0001704198;5.0973;-12.8210;5.8706;-0.6912;-0.0342;-0.3849
0001704266;7.3071;-13.5632;8.2097;-0.7502;0.4562;-0.4267
0001704275;7.9057;-13.8816;8.1738;-0.7348;0.5890;-0.3973
0001704288;8.5401;-13.9654;7.6614;-0.7825;0.7665;-0.3669
0001704297;8.3031;-14.0468;7.4244;-0.8508;0.8560;-0.3640
0001704306;7.7476;-14.0324;7.9440;-0.8970;0.9149;-0.3695
0001704318;6.4643;-14.4466;8.2097;-0.9466;0.9745;-0.3210
0001704327;5.6288;-14.8967;9.0285;-0.9582;0.9642;-0.2693
0001704340;4.0869;-16.1393;9.3518;-0.9858;0.9249;-0.1480
0001704349;3.3998;-17.0659;9.0956;-1.0150;0.8853;-0.0248
0001704361;2.8850;-17.9230;8.4922;-1.0440;0.7458;0.0890
0001704370;2.4541;-18.5575;8.0062;-1.0134;0.5273;0.0721
0001704383;1.8004;-18.3611;8.1594;-0.9150;0.1037;-0.0767
0001704392;1.8004;-18.1672;8.4779;-0.7918;-0.1864;-0.1851
0001704404;4.1851;-17.3699;9.6893;-0.5769;-0.4179;-0.1984
0001704413;6.9528;-16.9605;10.6183;-0.3653;-0.4194;-0.1883
0001704422;9.4451;-16.9845;10.4579;-0.1440;-0.3124;-0.2164
0001704435;12.0524;-16.4027;8.5641;0.0909;-0.0751;-0.2261
0001704444;12.4834;-15.5815;8.3606;0.2594;0.2196;-0.1840
0001704456;11.4778;-14.7531;6.3997;0.4062;0.5576;-0.1275
0001704465;10.3430;-14.0779;6.1268;0.4686;0.7414;-0.1680
0001704478;7.8937;-13.7858;5.3175;0.4219;0.8773;-0.2197
0001704487;6.1004;-13.8888;4.9536;0.3457;0.8659;-0.2562
0001704555;4.4101;-13.0939;5.0135;-0.1184;-0.2338;0.1628
0001704564;5.7940;-12.9814;5.0949;-0.1891;-0.2338;0.2474
0001704577;6.8833;-13.4961;5.6000;-0.2342;-0.1835;0.3044
0001704586;7.5968;-14.0276;5.8107;-0.2253;-0.1332;0.2947
0001704595;8.1139;-14.2575;5.9209;-0.2072;-0.0646;0.2593
0001704607;8.5569;-14.7172;6.1268;-0.1535;-0.0064;0.1619
0001704616;7.9823;-15.0571;6.0717;-0.1082;0.0332;0.0787
0001704629;6.9719;-14.8752;5.7724;-0.0843;0.0925;0.0037
0001704638;5.9855;-15.0380;5.6527;-0.0713;0.1135;-0.0304
0001704650;4.8794;-14.9805;5.6240;-0.0452;0.1154;-0.0292
0001704659;4.4149;-15.1002;5.4708;-0.0192;0.0979;-0.0097
0001704672;3.8595;-15.4833;5.6144;0.0253;0.0398;0.0476
0001704681;3.8786;-15.6557;5.6647;0.0725;-0.0131;0.0950
0001704693;4.4652;-15.4474;5.7509;0.1755;-0.0991;0.1135
0001704702;4.6280;-15.3277;5.7604;0.2565;-0.1552;0.1255
0001704711;5.1404;-14.7363;5.8419;0.3184;-0.1835;0.1339
0001704724;5.6096;-14.1425;5.5689;0.3280;-0.2066;0.1220
0001704733;5.7724;-13.7714;5.4875;0.2934;-0.2168;0.0997
0001704745;6.1483;-13.4746;5.4492;0.2024;-0.2066;0.0735
0001704754;6.0597;-13.5871;5.4516;0.1128;-0.1833;0.0694
0001704767;5.7389;-13.9654;5.4899;-0.0124;-0.1589;0.0721
0001704776;5.4636;-14.2311;5.6024;-0.0652;-0.1466;0.0806
0001704844;5.9304;-13.8696;5.6934;-0.0258;-0.2709;0.1420
0001704853;6.2800;-14.0707;5.6096;-0.0358;-0.2491;0.1331
0001704862;6.4212;-14.0827;5.6671;-0.0332;-0.2248;0.1170
0001704875;6.4332;-14.3054;5.7078;-0.0229;-0.1680;0.1062
0001704884;6.3470;-14.4275;5.7940;-0.0169;-0.1242;0.1136
0001704896;5.7772;-14.8512;5.5234;0.0285;-0.0994;0.1066
0001704905;5.5043;-14.7339;5.5115;0.0510;-0.0891;0.1086
0001704918;5.3893;-14.6142;5.8179;0.0663;-0.0850;0.1043
0001704927;5.5498;-14.2431;5.6910;0.0601;-0.0806;0.0975
0001704939;5.6982;-13.9965;5.6240;0.0437;-0.0710;0.0974
0001704948;5.5019;-14.1952;5.5067;0.0266;-0.0698;0.1047
0001704957;5.5402;-14.0420;5.4588;0.0021;-0.0654;0.1006
0001704970;5.3103;-14.0396;5.6000;-0.0386;-0.0793;0.0870
0001704979;5.3582;-14.1737;5.5593;-0.0604;-0.0974;0.0794
0001704991;5.4109;-14.3820;5.6000;-0.0883;-0.1066;0.0813
0001705000;5.4684;-14.5232;5.7581;-0.0911;-0.1164;0.0790
0001705013;5.6503;-14.5184;5.7652;-0.0739;-0.1210;0.0739
0001705022;5.6072;-14.5184;5.7078;-0.0675;-0.1206;0.0797
0001705034;5.3510;-14.6717;5.6407;-0.0454;-0.1262;0.0766
0001705043;5.3319;-14.9039;5.6264;-0.0496;-0.1179;0.0742
0001705057;5.7174;-14.9159;5.5306;-0.0313;-0.1211;0.0554
0001705066;5.7820;-15.0069;5.5833;-0.0005;-0.1224;0.0401
0001705075;5.8730;-14.9446;5.5569;0.0249;-0.1092;0.0312
0001705142;5.5976;-13.9127;5.5952;0.0241;-0.0993;0.0059
0001705151;5.3582;-13.9941;5.5426;0.0156;-0.1102;0.0105
0001705163;5.3079;-14.0540;5.4636;0.0009;-0.1224;0.0288
0001705172;5.2002;-14.4203;5.4636;-0.0016;-0.1334;0.0437
0001705185;5.6216;-14.5855;5.5043;-0.0041;-0.1486;0.0510
0001705194;5.6695;-14.8632;5.5019;0.0048;-0.1472;0.0605
0001705206;5.6000;-14.8824;5.5186;0.0336;-0.1467;0.0642
0001705215;5.6383;-14.8033;5.5115;0.0542;-0.1525;0.0593
0001705224;5.6719;-14.7028;5.5402;0.0690;-0.1502;0.0532
0001705237;5.8610;-14.2910;5.6455;0.0626;-0.1416;0.0538
0001705246;5.9520;-14.1497;5.4468;0.0421;-0.1334;0.0480
0001705258;6.0741;-14.1449;5.5091;0.0157;-0.1242;0.0441
0001705267;5.7652;-14.2647;5.5067;-0.0008;-0.1254;0.0438
0001705280;5.7437;-14.2766;5.6575;-0.0204;-0.1379;0.0509
0001705289;5.5545;-14.5160;5.6192;-0.0161;-0.1644;0.0473
0001705301;5.6096;-14.5567;5.5617;-0.0064;-0.1958;0.0545
0001705310;5.5234;-14.6765;5.5378;0.0159;-0.2281;0.0634
0001705323;5.7293;-14.6501;5.5258;0.0408;-0.2637;0.0846
0001705332;5.8059;-14.6932;5.6120;0.0545;-0.2821;0.0977
0001705341;5.3606;-14.7100;5.6383;0.0775;-0.3124;0.1120
0001705353;5.2553;-14.6477;5.6168;0.0905;-0.3377;0.1350
0001705362;5.7844;-14.4155;5.6288;0.0885;-0.3336;0.1307
0001705429;6.2872;-13.7667;5.4516;-0.0532;-0.2489;0.0798
0001705438;6.4021;-13.7523;5.5593;-0.0701;-0.2345;0.0827
0001705450;6.3015;-13.6086;5.5857;-0.1029;-0.2186;0.1047
0001705459;5.9807;-13.6326;5.4851;-0.1284;-0.2038;0.1339
0001705472;5.9209;-13.7978;5.5091;-0.1511;-0.2053;0.1612
0001705481;5.8347;-13.8552;5.5641;-0.1632;-0.2154;0.1771
0001705490;5.6790;-14.1809;5.6264;-0.1580;-0.2352;0.1877
0001705502;5.4803;-14.3652;5.6695;-0.1506;-0.2522;0.2026
0001705511;5.4588;-14.5927;5.6671;-0.1270;-0.2801;0.2117
0001705524;5.2984;-14.4969;5.6240;-0.0938;-0.3168;0.2314
0001705533;5.0566;-14.6286;5.4324;-0.0618;-0.3535;0.2342
0001705545;4.8123;-14.6789;5.5138;-0.0191;-0.4046;0.2489
0001705554;4.6807;-14.6525;5.4731;0.0089;-0.4429;0.2494
0001705567;4.6232;-14.8105;5.4636;0.0409;-0.5028;0.2535
0001705576;4.8171;-14.8225;5.4636;0.0641;-0.5335;0.2713
0001705588;5.1212;-14.7603;5.6024;0.0910;-0.5267;0.2888
0001705597;5.6144;-14.6597;5.6838;0.0994;-0.4964;0.3090
0001705606;6.0885;-14.7555;5.5282;0.0939;-0.4371;0.3190
0001705619;6.7660;-14.4993;5.3582;0.0598;-0.3315;0.3212
0001705628;7.2353;-14.2359;5.3056;0.0261;-0.2542;0.3147
0001705640;6.9767;-14.2168;5.4253;-0.0117;-0.1763;0.3180
0001705649;6.8139;-14.2838;5.4205;0.0013;-0.1346;0.3277
0001705716;6.4739;-13.1705;5.2648;0.0616;0.1427;0.1823
0001705725;6.7349;-13.1035;5.3654;0.0226;0.2089;0.1548
0001705737;6.8690;-13.4602;5.4253;-0.0382;0.3150;0.1446
0001705746;6.8211;-13.8457;5.5186;-0.0642;0.3886;0.1332
0001705755;6.5793;-14.5544;5.7006;-0.0470;0.4485;0.1154
0001705768;6.3877;-14.8345;5.8993;0.0040;0.5225;0.0946
0001705777;5.8778;-15.0715;5.9831;0.0573;0.5529;0.0766
0001705789;5.4013;-14.9733;6.0238;0.1299;0.5602;0.0584
0001705798;5.0853;-14.7483;6.1770;0.1712;0.5396;0.0448
0001705811;4.6639;-14.2479;6.3398;0.1835;0.5068;0.0368
0001705820;4.3694;-14.1114;6.2776;0.1688;0.4840;0.0404
0001705829;4.4173;-14.0396;6.3087;0.1531;0.4582;0.0456
0001705841;4.4173;-14.2263;6.3542;0.1288;0.4291;0.0482
0001705850;4.6352;-14.2240;6.3853;0.1238;0.3992;0.0474
0001705863;4.2329;-14.5017;6.3877;0.1243;0.3440;0.0497
0001705872;4.3024;-14.4394;6.3518;0.1380;0.2892;0.0462
0001705884;3.9552;-14.3796;6.5027;0.1565;0.2114;0.0365
0001705893;3.9385;-14.3939;6.3590;0.1605;0.1616;0.0338
0001705906;3.8762;-14.0420;6.0645;0.1605;0.0634;-0.0025
0001705915;3.8164;-14.0420;6.2130;0.1427;0.0027;-0.0246
0001705924;3.8188;-14.1378;6.2130;0.1314;-0.0620;-0.0390
0001705936;4.1324;-14.3389;6.1292;0.1344;-0.1428;-0.0570
0001705945;4.2665;-14.4059;6.1339;0.1411;-0.1839;-0.0592
0001706012;5.2194;-13.8552;5.6383;0.3091;-0.1376;-0.0340
0001706021;5.3941;-13.5201;5.4827;0.3002;-0.1007;-0.0084
0001706033;5.0230;-13.6182;5.4324;0.2867;-0.0745;0.0153
0001706042;5.2768;-13.4147;5.3247;0.2597;-0.0497;0.0444
0001706055;5.1356;-13.4578;5.4253;0.2272;-0.0385;0.0654
0001706064;5.1547;-13.5512;5.5091;0.2049;-0.0428;0.0890
0001706073;4.6855;-13.7643;5.5689;0.1875;-0.0532;0.0991
0001706085;4.4915;-13.8122;5.7868;0.1565;-0.0863;0.1116
0001706094;4.5777;-13.9486;5.8203;0.1359;-0.1164;0.1110
0001706107;4.5466;-14.1090;5.8514;0.1183;-0.1576;0.1059
0001706116;4.5394;-14.2647;5.9592;0.1226;-0.1935;0.0998
0001706128;4.4700;-14.4394;6.0023;0.1286;-0.2253;0.0865
0001706137;4.6232;-14.2527;5.9256;0.1364;-0.2465;0.0753
0001706150;4.7070;-14.3413;6.0214;0.1496;-0.2673;0.0389
0001706159;4.9584;-14.1856;6.0382;0.1577;-0.2779;0.0071
0001706168;5.1164;-14.2072;6.0023;0.1625;-0.2661;-0.0175
0001706180;5.2194;-14.3461;5.9233;0.1769;-0.2502;-0.0642
0001706189;5.6168;-14.4801;5.8682;0.1824;-0.2133;-0.0849
0001706202;5.7940;-14.5855;6.0118;0.2154;-0.1656;-0.1308
0001706211;5.6264;-14.6334;5.9089;0.2458;-0.1302;-0.1548
0001706223;5.4516;-14.7267;5.7293;0.2774;-0.0877;-0.1761
0001706232;5.4468;-14.4538;5.6216;0.2954;-0.0600;-0.1872
0001706301;5.7700;-12.5791;5.9855;0.1398;0.2778;-0.2210
0001706310;5.6743;-12.5624;6.0861;0.0911;0.3091;-0.2232
0001706322;5.2625;-12.9000;6.1363;0.0322;0.3400;-0.2036
0001706331;5.2960;-13.0628;5.9592;0.0039;0.3425;-0.2038
0001706340;5.3151;-13.2926;6.1531;-0.0165;0.3459;-0.1932
0001706353;5.0925;-13.6709;6.3446;-0.0057;0.3312;-0.1796
0001706362;5.1212;-13.9486;6.5266;0.0116;0.3234;-0.1671
0001706374;5.1858;-14.1665;6.6631;0.0482;0.3279;-0.1466
0001706383;5.6048;-14.0564;6.8067;0.0717;0.3300;-0.1339
0001706396;5.2553;-14.2383;6.9312;0.1007;0.3311;-0.1331
0001706405;5.1236;-14.3389;6.9168;0.1184;0.3256;-0.1480
0001706417;4.9752;-14.5567;7.0844;0.1537;0.3043;-0.1847
0001706426;4.9512;-14.4203;7.2113;0.1789;0.2946;-0.2018
0001706435;5.0949;-14.2527;7.1228;0.2338;0.2819;-0.2304
0001706448;5.3295;-14.0899;7.1012;0.2786;0.2718;-0.2603
0001706457;5.2792;-13.9869;7.0677;0.2920;0.2781;-0.2807
0001706469;5.5019;-13.7954;7.0126;0.3003;0.2650;-0.3279
0001706478;5.2840;-13.8529;7.2137;0.3064;0.2587;-0.3503
0001706491;5.1739;-13.7188;7.1587;0.3263;0.2426;-0.3882
0001706500;5.1523;-13.6517;7.2185;0.3439;0.2317;-0.4024
0001706512;4.9967;-13.5009;7.2784;0.3580;0.2028;-0.4233
0001706521;5.0973;-13.3644;7.4196;0.3766;0.1856;-0.4397
0001706530;5.1356;-13.4794;7.8458;0.4299;0.1716;-0.4477
0001706600;2.9999;-11.5089;5.7174;0.5163;-0.5644;-0.3012
0001706609;3.2130;-10.9104;5.7126;0.4542;-0.6992;-0.2966
0001706622;3.9576;-10.3932;5.4636;0.3123;-0.8456;-0.2613
0001706631;4.1420;-10.3358;5.3870;0.1927;-0.9049;-0.2266
0001706643;4.8722;-10.4794;5.1739;-0.0040;-0.9435;-0.1851
0001706652;5.4372;-10.7931;5.2026;-0.1244;-0.9657;-0.1620
0001706665;5.8323;-11.3677;5.3079;-0.2401;-0.9433;-0.1018
0001706674;6.3686;-11.5568;5.3534;-0.2943;-0.8988;-0.0590
0001706686;7.1156;-11.8058;5.3606;-0.3309;-0.8163;0.0004
0001706695;7.4843;-12.1434;5.4755;-0.3385;-0.7072;0.0545
0001706704;8.0613;-12.2511;5.4708;-0.3464;-0.5744;0.1079
0001706717;9.1147;-12.3900;5.4971;-0.3381;-0.3736;0.1612
0001706726;9.2775;-12.5217;5.6790;-0.3497;-0.2212;0.1836
0001706738;9.2201;-12.9191;5.7676;-0.2928;-0.0140;0.2032
0001706747;8.7987;-13.1226;5.9903;-0.2249;0.1164;0.1764
0001706760;8.1523;-13.0101;6.1818;-0.1235;0.2643;0.1142
0001706769;7.7285;-13.0269;6.3662;-0.0565;0.3284;0.0771
0001706781;7.4172;-12.7826;6.0932;0.0608;0.3801;0.0521
0001706790;6.6726;-12.8928;5.9424;0.1340;0.3894;0.0500
0001706859;5.3989;-12.6677;6.5697;0.4446;0.0793;0.1098
0001706868;5.6934;-12.4882;6.3925;0.4421;0.0735;0.0807
0001706877;6.7516;-12.0764;6.2465;0.4149;0.0759;0.0457
0001706889;7.1611;-12.0620;6.3566;0.3328;0.0929;-0.0164
0001706898;7.3861;-11.9183;6.6798;0.2870;0.1294;-0.0480
0001706911;7.2784;-11.6933;6.6894;0.2062;0.2220;-0.0670
0001706920;7.1730;-11.2360;6.6583;0.1316;0.2951;-0.0738
0001706932;6.7588;-10.7955;6.6559;0.0112;0.3893;-0.0718
0001706941;6.7684;-10.6207;6.3446;-0.0909;0.4483;-0.0889
0001706954;6.4476;-11.0947;6.0573;-0.2471;0.5053;-0.1488
0001706963;6.5027;-11.4251;6.2489;-0.3304;0.5229;-0.2269
0001706972;6.5218;-11.7843;6.1483;-0.4006;0.5349;-0.3155
0001706984;6.5817;-12.4379;6.2225;-0.4535;0.5794;-0.4032
0001706993;6.7421;-12.6701;6.4069;-0.4666;0.6303;-0.4567
0001707006;7.0605;-12.5911;6.2920;-0.4515;0.7182;-0.5196
0001707015;7.5369;-12.3038;6.3327;-0.4627;0.8005;-0.5409
0001707027;7.2472;-12.2823;7.7692;-0.4632;0.8825;-0.6083
0001707036;6.9288;-12.5528;7.1060;-0.4542;0.8929;-0.6853
0001707049;5.4851;-12.7467;7.6064;-0.4630;0.8763;-0.8228
0001707058;4.6711;-12.6988;8.7005;-0.5155;0.8300;-0.8964
0001707067;4.1108;-12.8952;8.2935;-0.6063;0.7536;-0.9642
0001707079;3.9672;-12.9119;8.5904;-0.8076;0.6482;-0.9657
0001707088;3.3878;-13.2375;9.5792;-0.9735;0.5645;-0.9233
0001707157;1.4198;-18.4808;10.0533;-0.5813;-0.8930;-0.3078
0001707166;1.9178;-17.1688;9.4619;-0.3247;-0.9757;-0.1235
0001707178;2.3583;-15.8807;8.6383;-0.1235;-1.0480;0.0408
0001707187;3.1340;-14.8153;7.8697;0.0112;-1.0854;0.1043
0001707200;4.4053;-13.5105;6.9408;0.1560;-1.0756;0.1751
0001707209;5.8323;-12.8114;6.3279;0.2130;-1.0159;0.2272
0001707221;7.4819;-12.3708;5.8155;0.2369;-0.8444;0.2813
0001707230;8.5186;-12.2320;5.6360;0.2317;-0.6700;0.3155
0001707239;9.3733;-12.0811;5.8945;0.2209;-0.4565;0.3465
0001707252;9.6223;-11.9542;5.9640;0.1839;-0.1559;0.3367
0001707261;8.6550;-11.9878;5.7269;0.1435;-0.0141;0.2593
0001707273;7.7093;-12.0021;5.8706;0.0416;0.1033;0.1343
0001707282;6.5314;-12.5336;5.7126;-0.0649;0.1355;0.0472
0001707295;5.1356;-13.5727;5.8945;-0.2194;0.1103;-0.0446
0001707304;4.7262;-14.2216;5.9496;-0.2894;0.0646;-0.0759
0001707316;4.0031;-15.0930;6.1770;-0.2826;-0.0199;-0.0649
0001707325;3.8547;-15.4929;6.3758;-0.2184;-0.0915;-0.0345
0001707338;3.9217;-15.4689;6.6679;-0.1037;-0.1957;0.0388
0001707347;4.2689;-14.9901;6.7397;-0.0155;-0.2603;0.0978
0001707356;4.3455;-14.2982;6.9887;0.0714;-0.3397;0.1483
0001707368;4.7309;-13.1897;6.9288;0.0901;-0.4255;0.1901
0001707377;4.9536;-12.7060;6.6774;0.0369;-0.4638;0.2025
0001707446;7.4986;-14.7722;5.8873;-0.3016;0.0352;0.0805
0001707455;7.3047;-14.7243;5.9089;-0.2671;0.1411;0.0842
0001707467;6.4332;-14.7028;6.1196;-0.2073;0.2316;0.0890
0001707476;5.8035;-14.6286;6.1028;-0.1588;0.2731;0.0963
0001707489;4.7621;-14.6190;6.1411;-0.1228;0.2662;0.1124
0001707498;4.3646;-14.5544;6.2034;-0.1090;0.2178;0.1168
0001707507;4.2760;-14.3269;6.1699;-0.1014;0.1480;0.1116
0001707519;4.4436;-14.3604;6.0406;-0.1045;0.0488;0.0991
0001707528;4.8195;-14.5472;5.9687;-0.0917;-0.0124;0.0786
0001707541;5.2792;-14.8584;5.9640;-0.0421;-0.0761;0.0594
0001707550;5.5881;-14.9039;5.7868;0.0083;-0.0783;0.0572
0001707562;6.0693;-14.3796;5.7796;0.0810;-0.0678;0.0438
0001707571;6.2106;-13.9247;5.7868;0.1220;-0.0458;0.0426
0001707584;5.9735;-13.5392;5.7413;0.1310;-0.0183;0.0352
0001707593;5.9017;-13.2663;5.8395;0.1096;-0.0019;0.0378
0001707602;5.7868;-13.0747;5.8586;0.0938;-0.0172;0.0238
0001707614;5.2385;-13.2040;5.8586;0.0653;-0.0497;0.0220
0001707623;4.9967;-13.2016;5.9256;0.0541;-0.1042;0.0169
0001707636;4.4341;-13.9462;5.7964;0.0322;-0.1881;0.0266
0001707645;4.2713;-14.3389;5.8778;0.0334;-0.2689;0.0261
0001707657;4.2353;-14.8919;6.0454;0.0474;-0.3653;0.0460
0001707666;4.3383;-15.0643;5.9472;0.0825;-0.4249;0.0734
0001707735;6.1770;-13.6302;5.7509;0.1541;-0.5793;0.2908
0001707744;6.4835;-13.7188;5.7628;0.1171;-0.5490;0.2982
0001707753;6.5410;-13.9582;5.7676;0.0967;-0.5071;0.3064
0001707765;6.5481;-14.2144;5.8419;0.0855;-0.4579;0.3032
0001707774;6.5505;-14.2431;5.9328;0.0779;-0.4137;0.3030
0001707787;6.2752;-14.3125;5.9424;0.0873;-0.3754;0.2996
0001707796;6.1603;-14.3101;6.0094;0.1010;-0.3624;0.2807
0001707808;5.7892;-14.3197;5.9185;0.1045;-0.3516;0.2667
0001707817;5.7676;-14.3125;5.9951;0.1116;-0.3568;0.2569
0001707830;6.0597;-14.1066;5.9137;0.1150;-0.3584;0.2413
0001707839;6.2513;-14.1210;5.9951;0.1134;-0.3525;0.2313
0001707848;6.1603;-14.3628;5.9783;0.1230;-0.3377;0.2270
0001707860;6.2489;-14.2192;5.9903;0.1471;-0.3092;0.2025
0001707869;6.3087;-14.0731;5.8945;0.1668;-0.3028;0.1699
0001707882;6.2249;-13.7595;5.9065;0.1772;-0.2860;0.1171
0001707891;6.1028;-13.6158;5.8682;0.1703;-0.2773;0.0890
0001707903;6.1363;-13.5129;5.9592;0.1637;-0.2908;0.0549
0001707912;5.7197;-13.6733;5.8658;0.1514;-0.3030;0.0424
0001707925;5.5569;-13.6182;5.9376;0.1212;-0.3320;0.0377
0001707934;5.5713;-13.6158;5.9280;0.1023;-0.3613;0.0417
0001707943;5.4636;-13.7954;5.9472;0.0727;-0.3854;0.0621
0001707955;5.7221;-13.6733;5.9664;0.0465;-0.4112;0.1033
0001707964;5.6503;-13.9726;6.0190;0.0361;-0.4314;0.1360
0001708034;6.1435;-13.8720;6.3063;0.0308;-0.4883;0.2787
0001708043;6.1531;-13.8457;6.1603;0.0143;-0.4790;0.2852
0001708056;6.2130;-13.9175;6.1483;0.0088;-0.4872;0.2924
0001708065;5.9041;-14.2647;6.4021;0.0109;-0.4972;0.2968
0001708077;6.2489;-14.1186;6.3829;0.0281;-0.5159;0.3046
0001708086;5.9592;-14.2862;6.2991;0.0388;-0.5368;0.3199
0001708095;5.9185;-14.3676;6.2537;0.0452;-0.5477;0.3389
0001708108;5.9711;-14.6334;6.2560;0.0701;-0.5589;0.3746
0001708117;6.2680;-14.4921;6.2393;0.0954;-0.5654;0.4046
0001708129;6.1627;-15.0212;6.2896;0.1351;-0.5505;0.4439
0001708138;6.5673;-15.0404;6.2632;0.1635;-0.5213;0.4758
0001708151;6.9863;-14.9590;6.2537;0.2210;-0.4807;0.5032
0001708160;7.2209;-14.6621;6.3542;0.2486;-0.4357;0.5215
0001708172;7.2903;-14.4801;6.3494;0.2813;-0.3784;0.5295
0001708181;7.2137;-14.2048;6.3494;0.3003;-0.3511;0.5216
0001708190;7.0030;-14.1258;6.4117;0.3144;-0.3198;0.5245
0001708203;6.7301;-13.8768;6.2417;0.3170;-0.2936;0.5195
0001708212;6.4835;-13.8122;6.2632;0.3063;-0.2846;0.5159
0001708224;6.3207;-13.4578;6.1172;0.2843;-0.2940;0.5204
0001708233;6.1770;-13.3573;6.1794;0.2678;-0.3123;0.5176
0001708246;5.9927;-13.0771;6.1076;0.2353;-0.3571;0.5256
0001708255;5.9520;-13.0867;6.1292;0.2045;-0.3889;0.5369
0001708325;6.6774;-12.9335;6.1339;0.0171;-0.5161;0.5291
0001708334;6.7349;-12.9838;6.1172;-0.0133;-0.5013;0.4991
0001708343;6.5577;-13.1514;6.1411;-0.0525;-0.4828;0.4707
0001708356;6.6966;-13.1514;6.0597;-0.0915;-0.4538;0.4375
0001708365;6.8426;-13.4003;6.1627;-0.1282;-0.4040;0.4355
0001708377;7.1275;-13.5847;6.4596;-0.1478;-0.3592;0.4106
0001708386;7.0413;-13.9223;6.4069;-0.1597;-0.3210;0.3949
0001708399;6.9336;-13.6805;6.3973;-0.1729;-0.2595;0.3596
0001708408;6.9408;-13.6015;6.3398;-0.1843;-0.2221;0.3388
0001708420;6.6750;-13.3620;6.1196;-0.2105;-0.1816;0.3086
0001708429;6.5912;-13.2806;5.9975;-0.2253;-0.1491;0.2974
0001708442;6.4979;-13.2447;5.8323;-0.2397;-0.1186;0.2763
0001708451;6.2513;-13.2016;5.9041;-0.2353;-0.1186;0.2529
0001708460;6.2776;-12.9933;5.9448;-0.2414;-0.1342;0.2309
0001708472;6.0142;-13.0723;5.9568;-0.2483;-0.1733;0.1974
0001708481;5.6407;-13.1537;5.9568;-0.2702;-0.2121;0.1808
0001708494;5.4109;-13.2567;6.1627;-0.2992;-0.2727;0.1700
0001708503;5.4779;-13.3716;6.2297;-0.3107;-0.3210;0.1613
0001708515;5.4277;-13.4698;6.2153;-0.3335;-0.3730;0.1613
0001708524;5.5258;-13.6829;6.2177;-0.3476;-0.4058;0.1588
0001708537;5.5881;-14.2718;6.3877;-0.3355;-0.4279;0.1644
0001708546;6.0717;-14.2575;6.4212;-0.2903;-0.4409;0.1599
0001708616;6.4212;-14.0707;6.0382;-0.1616;-0.0929;0.3088
0001708625;6.3997;-13.9702;6.0501;-0.1839;-0.0576;0.3215
0001708634;6.2920;-14.1593;6.0837;-0.1876;-0.0201;0.3328
0001708647;6.3518;-14.2359;5.9759;-0.1825;0.0195;0.3399
0001708656;6.4907;-14.0827;5.9520;-0.1551;0.0470;0.3300
0001708668;6.5170;-13.7786;6.0525;-0.1300;0.0757;0.2996
0001708677;6.4859;-13.7547;6.1004;-0.1279;0.0891;0.2450
0001708690;6.3614;-13.4794;6.0645;-0.1378;0.1061;0.1628
0001708699;6.1603;-13.5368;5.9783;-0.1571;0.1062;0.1041
0001708711;5.9424;-13.4937;6.0478;-0.1660;0.1104;0.0325
0001708720;5.6527;-13.7882;6.1363;-0.1612;0.1041;-0.0211
0001708729;5.4396;-13.8624;6.1435;-0.1490;0.0971;-0.0737
0001708742;5.7988;-13.9079;6.3327;-0.1082;0.0961;-0.1262
0001708751;5.7509;-14.1689;6.2441;-0.0827;0.1041;-0.1407
0001708763;5.9352;-14.3269;6.4931;-0.0217;0.1256;-0.1568
0001708772;6.0286;-14.1928;6.3566;0.0352;0.1263;-0.1808
0001708785;5.9975;-14.0085;6.3829;0.0826;0.1442;-0.1965
0001708794;5.8562;-14.0707;6.3159;0.0953;0.1545;-0.1974
0001708806;5.7054;-13.8409;6.1794;0.1128;0.1476;-0.1783
0001708815;5.4827;-13.8912;6.1675;0.1267;0.1375;-0.1633
0001708828;5.3103;-13.4985;6.0621;0.1272;0.1399;-0.1196
0001708837;5.5067;-13.3166;6.0813;0.1053;0.1384;-0.0834
0001708846;5.7245;-13.2232;6.1699;0.0718;0.1327;-0.0594
0001708914;5.3486;-13.2375;6.1052;0.0464;0.0497;0.0329
0001708923;5.4277;-13.1226;6.0214;0.0374;0.0236;0.0229
0001708936;5.5354;-13.1777;5.8371;-0.0229;-0.0310;-0.0156
0001708945;5.4061;-13.2854;5.7365;-0.0597;-0.0882;-0.0594
0001708957;5.3223;-13.2639;5.8538;-0.1019;-0.1597;-0.0954
0001708966;5.3678;-13.3477;5.7844;-0.1310;-0.1905;-0.0953
0001708979;5.3223;-13.6565;5.7892;-0.1336;-0.2366;-0.0906
0001708988;5.5905;-13.4889;5.9903;-0.1430;-0.2482;-0.0879
0001709000;6.1459;-13.4913;6.0597;-0.1809;-0.2527;-0.1017
0001709009;6.4596;-13.6254;6.0430;-0.2030;-0.2398;-0.1152
0001709018;6.4979;-13.8337;6.2130;-0.2209;-0.2064;-0.1308
0001709031;6.8402;-13.6757;6.3111;-0.2212;-0.1468;-0.1246
0001709040;6.8546;-13.6877;6.4643;-0.1993;-0.1103;-0.1259
0001709054;6.7756;-13.8457;6.3997;-0.1671;-0.0325;-0.1132
0001709063;6.5841;-13.8265;6.4069;-0.1677;0.0169;-0.1144
0001709076;6.7205;-14.3461;6.3231;-0.1716;0.0702;-0.1623
0001709085;6.7325;-14.4897;6.4931;-0.1604;0.1090;-0.1852
0001709097;6.5338;-14.6166;6.1914;-0.1199;0.1460;-0.2285
0001709106;6.3087;-14.6501;6.1794;-0.0857;0.1767;-0.2430
0001709173;6.2297;-14.1785;5.9759;0.0528;0.3044;-0.3228
0001709182;6.0118;-14.2383;5.9017;0.0793;0.3071;-0.3387
0001709191;6.1555;-14.1162;5.7389;0.0929;0.3219;-0.3524
0001709203;6.0885;-13.8600;5.5545;0.1110;0.3280;-0.3732
0001709212;5.9400;-13.8720;5.5138;0.1151;0.3429;-0.3752
0001709225;5.9304;-13.7906;5.3534;0.0942;0.3599;-0.4013
0001709234;5.8682;-13.7403;5.2960;0.0556;0.3681;-0.4435
0001709246;5.7940;-13.7762;5.2218;0.0044;0.3718;-0.5067
0001709255;5.8275;-13.5296;5.1475;-0.0193;0.3615;-0.5560
0001709268;5.9209;-13.5727;4.8578;-0.0544;0.3717;-0.5951
0001709277;5.9328;-13.6493;4.7549;-0.0667;0.3886;-0.6133
0001709286;6.0478;-13.5751;4.7190;-0.0743;0.4187;-0.6182
0001709298;6.2632;-13.5272;4.5681;-0.0719;0.4559;-0.6347
0001709307;6.3590;-13.3453;4.5729;-0.0797;0.4988;-0.6680
0001709320;6.7086;-13.2064;4.2401;-0.1247;0.5660;-0.7338
0001709329;6.7804;-13.3142;4.1922;-0.1544;0.6062;-0.7830
0001709341;6.5817;-13.4051;4.0031;-0.1751;0.6543;-0.8668
0001709350;6.6942;-13.4267;3.9073;-0.1833;0.6851;-0.9138
0001709363;6.5003;-13.2112;3.7900;-0.1803;0.7175;-0.9582
0001709372;6.5290;-13.0005;3.8618;-0.1860;0.7341;-0.9903
0001709384;6.1220;-12.9407;4.0007;-0.2185;0.7457;-1.0243
0001709393;6.0047;-12.8521;3.8978;-0.2380;0.7393;-1.0476
0001709402;5.6479;-12.9598;3.8906;-0.2557;0.7268;-1.0595
0001709469;5.0015;-13.2447;3.7038;-0.1335;0.4048;-0.7001
0001709478;5.2146;-13.0460;3.7685;-0.1175;0.3445;-0.6432
0001709490;4.8866;-12.9670;5.8419;-0.1214;0.3218;-0.5573
0001709499;4.9105;-12.9024;6.7277;-0.1307;0.3612;-0.5088
0001709513;5.9568;-13.0197;8.2600;-0.2118;0.4618;-0.4676
0001709522;6.9791;-13.3860;8.3462;-0.3527;0.5055;-0.4791
0001709535;8.3534;-14.2838;9.1626;-0.6150;0.5742;-0.5109
0001709544;8.8466;-15.4139;9.3182;-0.7930;0.6230;-0.4794
0001709556;8.2001;-18.2151;8.2361;-0.8887;0.6660;-0.4081
0001709565;7.3143;-19.8982;8.0876;-0.7975;0.6805;-0.3464
0001709574;5.9640;-20.7625;8.0469;-0.5476;0.6239;-0.3457
0001709587;4.4748;-19.5678;9.1291;-0.1536;0.4606;-0.4514
0001709596;3.9361;-18.4737;10.1394;0.0300;0.3407;-0.5509
0001709608;5.5713;-15.7969;10.8457;-0.0368;0.3841;-0.5015
0001709617;6.7780;-16.1034;11.4419;-0.1604;0.4926;-0.3056
0001709630;9.0237;-17.8368;10.5919;-0.2399;0.6804;-0.0943
0001709639;10.9176;-19.6564;9.4164;-0.2042;0.8007;-0.0633
0001709651;9.2584;-20.7314;8.7580;0.0620;0.8207;-0.2483
0001709660;8.0828;-20.3100;7.8913;0.2903;0.8191;-0.3838
0001709727;3.7062;-11.0540;3.7421;0.5364;0.1467;-0.5101
0001709736;4.2234;-10.4579;3.7757;0.4666;0.0568;-0.4471
0001709745;4.9033;-10.1011;3.8044;0.3718;-0.0261;-0.3842
0001709757;5.7006;-9.7947;3.8834;0.2318;-0.0917;-0.3130
0001709766;6.0094;-9.7133;3.9792;0.1111;-0.0949;-0.2667
0001709779;6.6798;-10.3214;4.3718;-0.0574;-0.0460;-0.2104
0001709788;6.9815;-10.9271;4.6807;-0.1688;0.0301;-0.1488
0001709800;7.9631;-11.7076;5.2577;-0.2899;0.1692;-0.0726
0001709809;7.9583;-12.4475;5.6599;-0.3635;0.2739;-0.0131
0001709822;8.0900;-13.8217;6.3494;-0.4603;0.4539;0.1003
0001709831;8.2768;-14.5711;6.6367;-0.4810;0.5756;0.1593
0001709840;8.4467;-14.9566;6.8235;-0.4675;0.6965;0.1712
0001709852;7.1323;-15.8975;6.9576;-0.3800;0.7234;0.1500
0001709861;6.3111;-16.4003;7.1323;-0.2781;0.7007;0.1199
0001709874;5.6527;-16.5248;7.2808;-0.1172;0.6111;0.0452
0001709883;5.7988;-15.9837;7.1515;-0.0292;0.5359;-0.0105
0001709895;5.9280;-15.4378;6.9264;0.0568;0.4426;-0.0739
0001709904;6.1124;-14.9685;6.6798;0.0854;0.3752;-0.1311
0001709917;6.0310;-14.2144;6.4620;0.0715;0.2904;-0.1869
0001709926;5.8131;-14.0396;6.4620;0.0501;0.2461;-0.1973
0001709935;5.7509;-13.9917;6.3686;0.0353;0.2049;-0.2161
0001709947;5.9161;-13.7738;6.2010;-0.0027;0.1629;-0.2269
0001709956;5.9448;-13.7499;6.1914;-0.0212;0.1504;-0.2220
0001710023;6.1675;-13.9534;5.5019;-0.0612;0.2221;-0.0406
0001710032;6.2417;-13.9582;5.5378;-0.0730;0.2399;-0.0132
0001710044;6.0741;-13.9247;5.5330;-0.0927;0.2771;0.0160
0001710053;6.0789;-14.0348;5.6934;-0.1119;0.3059;0.0416
0001710066;6.3327;-13.9534;5.6958;-0.1335;0.3411;0.0775
0001710075;6.2489;-13.9989;5.7006;-0.1472;0.3607;0.0961
0001710087;6.1244;-14.0947;5.8083;-0.1827;0.3905;0.1079
0001710096;5.8466;-14.1378;5.7006;-0.2110;0.3969;0.1124
0001710105;5.6336;-14.2407;5.7006;-0.2305;0.4005;0.1092
0001710118;5.3654;-14.4825;5.6431;-0.2466;0.3910;0.0958
0001710127;5.1451;-14.6094;5.7006;-0.2435;0.3651;0.0831
0001710139;5.2265;-14.4275;5.6240;-0.2262;0.3222;0.0685
0001710148;5.1595;-14.3748;5.6144;-0.2141;0.2914;0.0573
0001710161;5.0063;-14.3963;5.4396;-0.2176;0.2493;0.0522
0001710170;5.0781;-14.3461;5.2936;-0.2325;0.2274;0.0530
0001710182;5.3630;-14.2718;5.1475;-0.2453;0.2110;0.0574
0001710191;5.5689;-14.4586;5.0613;-0.2461;0.2057;0.0502
0001710200;5.6910;-14.5041;5.0853;-0.2562;0.2004;0.0264
0001710213;5.7724;-14.8776;5.1858;-0.2523;0.2041;0.0049
0001710222;5.8490;-15.0452;5.2146;-0.2414;0.2174;0.0011
0001710234;6.3231;-15.0500;5.0613;-0.2074;0.2345;-0.0040
0001710243;6.4811;-14.8728;5.1930;-0.1647;0.2587;-0.0108
0001710310;6.0334;-14.4155;5.6144;-0.1460;0.4046;-0.0394
0001710319;5.9783;-14.6621;5.7628;-0.1490;0.4130;-0.0442
0001710331;5.7437;-15.0045;5.7006;-0.1334;0.4108;-0.0557
0001710340;5.5785;-15.4043;5.7437;-0.0943;0.4066;-0.0691
0001710349;5.7533;-15.3205;5.7126;-0.0450;0.3974;-0.0823
0001710362;5.3534;-15.4450;5.7317;0.0277;0.3900;-0.0866
0001710371;5.5498;-15.2942;5.5881;0.0625;0.3941;-0.0843
0001710383;5.5091;-14.9063;5.6695;0.0971;0.3878;-0.0975
0001710392;5.5569;-14.7124;5.6000;0.1219;0.3659;-0.1176
0001710405;5.3917;-14.5687;5.4253;0.1412;0.3389;-0.1222
0001710414;5.0733;-14.4777;5.8634;0.1545;0.3136;-0.1092
0001710426;4.9488;-14.4658;5.7652;0.1944;0.2685;-0.0793
0001710435;4.8674;-14.3796;5.7652;0.2310;0.2370;-0.0550
0001710444;4.8985;-14.1856;5.7461;0.2380;0.2122;-0.0148
0001710457;4.8866;-14.2455;5.4899;0.2487;0.1656;0.0171
0001710466;4.9440;-14.3101;5.4396;0.2365;0.1332;0.0372
0001710478;4.9943;-14.2240;5.4037;0.2246;0.0879;0.0420
0001710487;4.9177;-14.1473;5.4851;0.2160;0.0494;0.0362
0001710500;4.8985;-13.9462;5.5617;0.1948;-0.0076;0.0320
0001710509;4.9871;-13.9869;5.5450;0.1721;-0.0376;0.0293
0001710521;4.9081;-14.0396;5.5593;0.1515;-0.0730;0.0156
0001710530;5.1811;-14.1402;5.5067;0.1452;-0.0842;-0.0039
0001710539;5.4636;-14.1713;5.5713;0.1251;-0.0830;-0.0163
0001710606;5.2601;-14.1186;5.2984;0.0858;-0.0389;-0.1757
0001710615;5.0829;-13.8002;5.3271;0.0878;-0.0673;-0.1829
0001710627;4.9584;-13.8816;5.2289;0.0779;-0.1057;-0.1643
0001710636;4.9991;-13.7331;5.3223;0.0682;-0.1394;-0.1483
0001710649;5.3247;-13.8552;5.3798;0.0285;-0.1808;-0.1248
0001710658;5.4133;-13.9941;5.3415;-0.0092;-0.1920;-0.1057
0001710670;5.7485;-14.0683;5.3319;-0.0502;-0.2065;-0.0990
0001710679;5.7245;-14.1378;5.2170;-0.0830;-0.2064;-0.0869
0001710692;5.8347;-14.2766;5.2218;-0.1356;-0.2105;-0.0866
0001710701;5.6982;-14.4825;5.0829;-0.1572;-0.2165;-0.0933
0001710710;5.5952;-14.5927;5.0422;-0.1755;-0.2194;-0.1003
0001710722;5.3606;-14.5879;4.9512;-0.1712;-0.2302;-0.1119
0001710731;5.1619;-14.7579;4.9105;-0.1510;-0.2494;-0.1255
0001710744;4.9775;-14.6262;4.9991;-0.1284;-0.2759;-0.1471
0001710753;5.0709;-14.6310;4.9704;-0.1182;-0.3020;-0.1693
0001710765;5.3415;-14.5113;4.9225;-0.1147;-0.3313;-0.1961
0001710774;5.4947;-14.4322;4.9009;-0.1303;-0.3408;-0.2090
0001710787;5.7485;-14.4059;4.7908;-0.1360;-0.3408;-0.2310
0001710796;5.9161;-14.4514;4.6711;-0.1418;-0.3151;-0.2413
0001710808;6.2513;-14.4586;4.9584;-0.1272;-0.2621;-0.2567
0001710817;6.5649;-14.7076;4.6495;-0.1063;-0.1939;-0.2565
0001710884;7.8266;-14.2024;4.5897;0.2221;0.5446;-0.4105
0001710893;7.6950;-14.1018;4.6974;0.2288;0.6575;-0.4076
0001710902;7.4747;-14.0420;4.6615;0.2328;0.7674;-0.4082
0001710914;7.5106;-14.1928;4.7860;0.2402;0.9174;-0.3996
0001710923;7.2640;-14.2982;4.7453;0.2442;1.0127;-0.4093
0001710936;7.3670;-14.6765;4.9177;0.2341;1.1307;-0.4274
0001710945;7.1395;-14.8512;5.2409;0.2380;1.2008;-0.4358
0001710956;6.6583;-15.1888;5.4133;0.2746;1.2624;-0.4554
0001710965;6.3255;-15.2152;5.5091;0.3120;1.3049;-0.4495
0001710979;6.0813;-15.0212;5.5354;0.3615;1.3428;-0.4656
0001710988;5.9759;-14.9901;5.4612;0.4090;1.3527;-0.5002
0001710997;5.8227;-15.0069;5.1356;0.4511;1.3542;-0.5239
0001711010;5.5450;-14.8057;5.2218;0.5002;1.3351;-0.5852
0001711019;5.3726;-14.3628;5.4684;0.5112;1.3175;-0.6217
0001711031;4.9799;-14.4322;5.3127;0.5380;1.2770;-0.6706
0001711040;4.8794;-14.3963;5.2241;0.5349;1.2364;-0.7000
0001711053;4.9321;-14.0995;5.3463;0.5017;1.1946;-0.7288
0001711062;5.1499;-14.0228;5.4372;0.4868;1.1746;-0.7409
0001711074;5.1882;-13.8959;5.3917;0.4549;1.1732;-0.7414
0001711083;5.6360;-13.7403;5.2792;0.4302;1.1882;-0.7540
0001711092;5.9448;-13.4243;5.4300;0.3857;1.2065;-0.7729
0001711105;6.0525;-13.3573;5.1451;0.3560;1.2409;-0.8315
0001711114;5.9424;-13.2423;4.9177;0.3543;1.2883;-0.8821
0001711184;5.5569;-13.6422;5.5162;0.1956;1.5783;-0.9262
0001711193;5.7604;-13.7858;5.4588;0.1551;1.6214;-0.8940
0001711206;5.4755;-13.7643;5.3391;0.1279;1.6366;-0.8962
0001711215;4.9584;-13.7044;5.3079;0.1025;1.6321;-0.9040
0001711227;4.3694;-13.9295;5.8778;0.0637;1.6046;-0.9036
0001711236;3.9959;-14.2311;6.1483;0.0492;1.5869;-0.8772
0001711245;4.1970;-14.4945;6.2177;0.0453;1.5863;-0.8346
0001711258;4.3072;-15.0260;6.1363;0.0310;1.5897;-0.7433
0001711267;4.4915;-15.2343;5.9616;0.0446;1.5956;-0.6908
0001711279;4.7070;-15.4282;6.0166;0.0894;1.6120;-0.6447
0001711288;4.4963;-15.3899;5.8586;0.1306;1.6104;-0.6354
0001711301;4.4891;-14.8393;5.6551;0.1944;1.5890;-0.6356
0001711310;4.0773;-14.4179;5.6623;0.2258;1.5615;-0.6562
0001711322;3.6512;-14.1258;5.7509;0.2354;1.5130;-0.6843
0001711331;3.4093;-14.1425;5.7054;0.2429;1.4689;-0.7175
0001711340;3.5171;-14.1378;5.8179;0.2469;1.4282;-0.7228
0001711353;3.8786;-14.5998;5.6527;0.2855;1.3638;-0.7441
0001711362;4.2138;-14.5639;5.5402;0.3200;1.3314;-0.7477
0001711374;4.1635;-14.2670;5.1451;0.3737;1.2939;-0.7476
0001711383;4.2713;-13.9558;4.9680;0.3817;1.2564;-0.7699
0001711396;4.4604;-13.3501;4.7621;0.3925;1.2277;-0.7818
0001711405;4.2138;-12.9024;4.6735;0.3695;1.2295;-0.7745
0001711475;4.7573;-11.8202;4.2760;-0.3011;1.3276;-0.8916
0001711484;4.0079;-12.1171;4.2545;-0.4046;1.3083;-0.9241
0001711497;3.3974;-12.3493;3.9265;-0.5028;1.2690;-0.9810
0001711506;3.6248;-12.4690;3.8930;-0.5408;1.2244;-1.0195
0001711515;4.0797;-12.7060;4.2641;-0.5658;1.1988;-1.0361
0001711527;4.4915;-13.2639;5.8514;-0.5227;1.2368;-0.9996
0001711536;5.2098;-13.6278;6.4907;-0.4578;1.3233;-0.9513
0001711549;6.6750;-14.3963;5.3822;-0.3175;1.4512;-0.9426
0001711558;7.8386;-14.2359;5.2385;-0.1985;1.5595;-0.9653
0001711570;8.8562;-13.8864;6.0813;-0.0690;1.7168;-0.9820
0001711579;8.1020;-13.6805;6.2465;-0.0261;1.8551;-0.9998
0001711592;6.2465;-13.5105;4.7884;-0.0141;1.9829;-1.0750
0001711601;4.8770;-13.4985;3.9768;-0.0541;1.9990;-1.1542
0001711610;3.6631;-13.4602;3.6727;-0.1691;1.9732;-1.1779
0001711622;2.3272;-13.5727;4.7118;-0.3180;1.9136;-1.1394
0001711631;0.9697;-14.8824;6.2608;-0.4810;1.8854;-1.0689
0001711644;-1.4150;-19.4768;5.2744;-0.7887;1.7681;-0.9781
0001711653;-3.5243;-22.6204;5.1308;-0.8100;1.6405;-1.1153
0001711665;-5.8945;-25.5126;6.6726;-0.5577;1.3189;-1.4997
0001711674;-5.3798;-25.8837;9.6367;-0.2362;1.1451;-1.5400
0001711687;-0.7853;-23.8367;9.1554;0.5983;0.7512;-1.1887
0001711696;0.0287;-21.5765;8.9807;0.8837;0.4779;-0.9216
0001711766;8.6024;-11.3940;1.6305;-0.0260;0.4108;0.2053
0001711775;9.0980;-10.7212;0.9912;-0.1569;0.6496;0.2789
0001711784;8.9950;-10.1538;0.5770;-0.3102;0.8895;0.3242
0001711797;8.2600;-9.8497;0.2945;-0.4543;1.1175;0.2451
0001711806;7.0988;-10.1849;0.7685;-0.5486;1.2000;0.1319
0001711818;4.5801;-11.7723;1.4748;-0.8499;1.2168;-0.0661
0001711827;3.1508;-13.4195;1.6807;-0.8843;1.1207;-0.2334
0001711840;1.6496;-15.5408;2.2649;-0.7298;0.8776;-0.4330
0001711849;0.8571;-16.5727;2.6911;-0.5768;0.6478;-0.5175
0001711861;-0.2442;-17.5902;3.3232;-0.3291;0.3489;-0.5720
0001711870;-0.9337;-17.9948;3.9217;-0.1468;0.1907;-0.5468
0001711883;0.7638;-17.4202;4.1587;0.0937;0.0211;-0.5117
0001711892;3.0023;-16.5344;4.4388;0.1557;-0.0763;-0.4902
0001711901;3.6966;-16.0388;4.2114;0.1299;-0.1308;-0.4562
0001711913;3.9049;-15.7467;4.0893;0.0481;-0.1748;-0.4195
0001711922;3.6871;-15.5767;3.9768;-0.0518;-0.2164;-0.4096
0001711935;3.3854;-15.7730;3.6583;-0.1723;-0.2777;-0.3635
0001711944;3.4548;-15.7538;3.5410;-0.2246;-0.2930;-0.3075
0001711956;3.6895;-15.7275;3.2058;-0.2406;-0.3195;-0.2593
0001711965;3.9959;-15.4570;2.9521;-0.2427;-0.3219;-0.2154
0001711978;4.1348;-14.8704;2.8012;-0.2417;-0.2927;-0.1619
0001711987;4.1180;-14.5328;2.7270;-0.2658;-0.2706;-0.1255
0001712057;4.2617;-16.4817;3.7661;0.0444;-0.4475;-0.4056
0001712066;4.6136;-16.3596;3.7373;0.1276;-0.4615;-0.4310
0001712075;5.0087;-15.9741;3.9049;0.1805;-0.4307;-0.4135
0001712088;5.0973;-15.7275;3.9624;0.2321;-0.3676;-0.3726
0001712097;5.2098;-15.1385;4.0031;0.2361;-0.3087;-0.3328
0001712109;4.9847;-14.8895;4.1132;0.2081;-0.2245;-0.2831
0001712118;4.9680;-14.7363;3.9959;0.1560;-0.1504;-0.2550
0001712131;4.8698;-14.7148;3.9025;0.0650;-0.0590;-0.2426
0001712140;4.9009;-14.7674;3.8499;0.0080;-0.0152;-0.2578
0001712152;4.9680;-15.0236;3.6703;-0.0430;0.0561;-0.2791
0001712161;5.1332;-15.2822;3.7373;-0.0350;0.0922;-0.3080
0001712174;5.2002;-15.6581;4.0318;-0.0129;0.1323;-0.3611
0001712183;4.8387;-16.1106;4.0510;0.0277;0.1588;-0.3813
0001712192;4.6998;-16.2590;4.0031;0.0950;0.1663;-0.4163
0001712204;4.6639;-16.0579;3.9744;0.1981;0.1763;-0.4410
0001712213;4.4412;-16.1273;3.7709;0.2533;0.1727;-0.4607
0001712226;4.6256;-15.5910;3.5458;0.3004;0.1792;-0.4855
0001712235;4.6735;-15.2439;3.5578;0.3002;0.1772;-0.5028
0001712247;4.8004;-14.9087;3.7302;0.2647;0.1945;-0.5127
0001712256;4.8530;-14.4538;3.7733;0.2238;0.2037;-0.4986
0001712269;4.9919;-14.4179;3.9480;0.1430;0.2149;-0.4732
0001712278;5.0326;-14.3365;4.0917;0.0829;0.2228;-0.4493
0001712287;4.9225;-14.2048;4.2425;0.0285;0.2397;-0.4170
0001712357;4.9225;-15.5168;4.7812;0.0882;0.4447;-0.4718
0001712366;4.8339;-15.5025;4.9057;0.1023;0.4658;-0.4892
0001712379;4.6998;-15.5432;5.2146;0.1510;0.4628;-0.5227
0001712388;4.7621;-15.3492;5.2960;0.1888;0.4345;-0.5498
0001712400;4.5777;-15.2774;5.4947;0.2625;0.3672;-0.6154
0001712409;4.7094;-14.8800;5.7389;0.2963;0.3148;-0.6471
0001712423;4.8411;-14.6980;5.8083;0.2573;0.2569;-0.5953
0001712432;4.9512;-14.3724;6.0645;0.2422;0.2105;-0.5572
0001712441;4.6567;-14.4825;6.7325;0.1841;0.1705;-0.4799
0001712454;3.9169;-15.4498;6.5457;0.1263;0.1471;-0.3279
0001712463;3.7254;-15.7850;6.1627;0.1094;0.1283;-0.2220
0001712475;3.8451;-16.0819;5.6695;0.1451;0.0185;-0.1315
0001712484;4.1276;-16.0412;5.0973;0.1839;-0.1116;-0.1152
0001712497;4.0534;-15.5910;4.4748;0.2344;-0.3046;-0.0938
0001712506;3.6368;-15.1888;4.1348;0.2831;-0.4430;-0.0625
0001712518;3.5075;-14.4873;3.5003;0.3171;-0.6101;0.0061
0001712527;3.5530;-14.2623;3.3878;0.3331;-0.7056;0.0602
0001712540;3.8140;-13.9127;3.4812;0.3389;-0.7573;0.1575
0001712549;4.5011;-13.8098;3.5530;0.3262;-0.7489;0.2329
0001712558;5.4133;-13.7068;3.5027;0.3058;-0.7129;0.2858
0001712570;6.6894;-13.8624;3.4117;0.2631;-0.5914;0.3333
0001712579;7.3478;-13.9797;3.4860;0.2173;-0.4684;0.3420
0001712648;7.0533;-15.5719;4.0989;-0.2101;0.3216;-0.1326
0001712657;6.9911;-16.0076;4.1300;-0.2290;0.3663;-0.1531
0001712669;6.6990;-16.5272;4.3072;-0.2058;0.3976;-0.1683
0001712678;6.4715;-16.7690;4.4796;-0.1792;0.3925;-0.1984
0001712691;6.6894;-16.5487;4.2689;-0.1363;0.3833;-0.2462
0001712700;6.5984;-16.4003;4.1899;-0.1106;0.3824;-0.2690
0001712709;6.6942;-16.0507;4.1372;-0.0841;0.3750;-0.3018
0001712719;7.0509;-15.3780;4.1084;-0.0934;0.3772;-0.3281
0001712727;6.9001;-15.5312;4.1108;-0.1183;0.3821;-0.3377
0001712739;6.9384;-15.3013;3.9911;-0.1519;0.3994;-0.3461
0001712747;6.8498;-15.3899;3.9720;-0.1561;0.4153;-0.3433
0001712758;6.7971;-15.4258;3.9600;-0.1537;0.4281;-0.3250
0001712766;6.6750;-15.3612;3.8523;-0.1456;0.4395;-0.2934
0001712778;6.2130;-15.5623;3.8259;-0.1251;0.4434;-0.2430
0001712786;6.2177;-15.3660;3.7565;-0.1096;0.4477;-0.2026
0001712797;6.0861;-15.1912;3.9672;-0.0811;0.4329;-0.1506
0001712805;5.9376;-15.1577;3.9648;-0.0675;0.4117;-0.1131
0001712813;5.7533;-15.0308;3.8858;-0.0552;0.3949;-0.0805
0001712825;5.8131;-14.7866;3.9002;-0.0536;0.3545;-0.0333
0001712833;5.8682;-14.7315;3.9169;-0.0489;0.3216;-0.0081
0001712844;5.9017;-14.6166;3.9528;-0.0637;0.2922;0.0378
0001712852;5.7892;-14.6980;4.0127;-0.0737;0.2711;0.0718
