time;acc_x;acc_y;acc_z;gyro_x;gyro_y;gyro_z
0000404559;5.4827;-16.0196;-0.0024;-0.0117;-0.1095;-0.0044
0000404568;5.4995;-15.9071;-0.0287;-0.0177;-0.0989;0.0019
0000404575;5.4636;-16.0507;0.0263;-0.0193;-0.0959;-0.0049
0000404583;5.2218;-16.1417;-0.0192;-0.0257;-0.0919;-0.0037
0000404592;5.4157;-16.0435;0.0622;-0.0160;-0.0893;-0.0125
0000404600;5.1954;-16.1944;-0.0383;-0.0220;-0.0843;-0.0053
0000404612;5.4420;-16.1441;-0.0024;-0.0220;-0.0755;-0.0139
0000404620;5.5498;-16.0579;-0.0479;-0.0208;-0.0657;-0.0068
0000404687;5.4779;-16.1154;-0.0503;-0.0290;-0.0047;0.0039
0000404695;5.3654;-16.1058;-0.0838;-0.0326;0.0093;0.0075
0000404703;5.5976;-15.8831;0.0335;-0.0270;0.0089;-0.0011
0000404715;5.5522;-16.0627;-0.0790;-0.0273;0.0193;0.0017
0000404723;5.5474;-16.0388;-0.0670;-0.0285;0.0264;0.0007
0000404734;5.1811;-16.1992;-0.0144;-0.0344;0.0345;0.0072
0000404742;5.4372;-15.8879;0.0048;-0.0328;0.0333;-0.0004
0000404754;5.4013;-15.8616;-0.0670;-0.0398;0.0334;-0.0044
0000404762;5.3893;-15.9095;0.0670;-0.0386;0.0401;-0.0009
0000404773;5.4013;-15.9262;-0.0455;-0.0486;0.0476;-0.0023
0000404781;5.4827;-15.9286;-0.0048;-0.0514;0.0541;0.0001
0000404793;5.1619;-16.1345;-0.0622;-0.0514;0.0545;0.0001
0000404801;5.3846;-16.1393;-0.1484;-0.0398;0.0565;0.0004
0000404809;5.2768;-16.2231;-0.1676;-0.0444;0.0652;0.0051
0000404820;5.2361;-16.2159;-0.2155;-0.0337;0.0648;0.0025
0000404828;5.3654;-16.0172;-0.1293;-0.0388;0.0738;0.0045
0000404840;5.2840;-16.0699;-0.0814;-0.0333;0.0671;0.0000
0000404848;5.1427;-15.9789;-0.1101;-0.0422;0.0723;0.0049
0000404859;5.0422;-16.1513;-0.0814;-0.0425;0.0710;0.0068
0000404867;5.1954;-15.9502;-0.1365;-0.0445;0.0687;-0.0007
0000404879;4.9823;-16.2327;-0.1484;-0.0409;0.0637;0.0051
0000404887;5.2241;-15.9550;-0.1077;-0.0446;0.0604;0.0004
0000404954;5.0973;-16.0196;-0.1293;-0.0468;0.0241;0.0160
0000404962;4.8554;-16.1633;-0.0575;-0.0412;0.0156;0.0115
0000404970;4.9584;-16.1872;-0.1437;-0.0449;0.0159;0.0218
0000404982;5.0398;-16.0938;-0.2179;-0.0482;0.0047;0.0213
0000404990;4.9943;-15.9454;-0.2179;-0.0476;0.0000;0.0252
0000405001;5.0733;-16.1082;-0.1844;-0.0481;-0.0079;0.0258
0000405009;4.8746;-16.1393;-0.1437;-0.0474;-0.0199;0.0284
0000405021;4.9153;-16.2854;-0.0718;-0.0382;-0.0350;0.0246
0000405029;4.8746;-16.1034;-0.1437;-0.0333;-0.0372;0.0308
0000405040;4.9129;-16.0819;-0.2203;-0.0250;-0.0506;0.0282
0000405048;4.9536;-16.1680;-0.1867;-0.0274;-0.0537;0.0398
0000405060;5.1212;-15.9741;-0.1604;-0.0226;-0.0640;0.0336
0000405068;4.9536;-16.1537;-0.1844;-0.0249;-0.0698;0.0338
0000405079;4.8961;-16.1034;-0.2346;-0.0256;-0.0789;0.0300
0000405087;4.9392;-16.1968;-0.1556;-0.0211;-0.0847;0.0318
0000405095;4.9368;-16.0364;-0.0742;-0.0230;-0.0819;0.0357
0000405107;5.0230;-16.0651;-0.2993;-0.0236;-0.0943;0.0309
0000405115;5.0829;-15.9813;-0.2753;-0.0234;-0.0991;0.0297
0000405126;5.1691;-15.9167;-0.2203;-0.0183;-0.1011;0.0284
0000405134;5.0111;-16.0388;-0.2083;-0.0200;-0.1015;0.0257
0000405146;4.9847;-16.0268;-0.2298;-0.0193;-0.1010;0.0257
0000405154;5.1356;-16.0555;-0.2538;-0.0232;-0.1088;0.0208
0000405221;4.8123;-16.1513;-0.2466;-0.0149;-0.1021;0.0089
0000405229;4.8363;-16.0507;-0.2993;-0.0204;-0.1095;0.0119
0000405241;4.8028;-15.9669;-0.3184;-0.0269;-0.1262;0.0029
0000405249;4.8411;-15.9358;-0.4070;-0.0258;-0.1423;-0.0028
0000405260;4.7860;-15.9071;-0.4669;-0.0422;-0.1499;-0.0056
0000405268;4.6639;-16.0005;-0.3855;-0.0408;-0.1631;-0.0105
0000405276;4.8339;-15.8592;-0.5052;-0.0509;-0.1712;-0.0056
0000405288;4.9895;-15.9310;-0.4501;-0.0442;-0.1832;-0.0041
0000405296;5.0230;-15.8807;-0.5531;-0.0432;-0.1956;-0.0083
0000405307;4.8339;-16.0220;-0.5866;-0.0353;-0.2138;-0.0099
0000405315;4.9919;-16.0100;-0.5459;-0.0345;-0.2134;-0.0064
0000405327;4.7094;-16.1561;-0.4932;-0.0289;-0.2184;-0.0051
0000405335;4.9680;-15.9310;-0.4477;-0.0272;-0.2272;-0.0124
0000405346;5.1595;-15.8257;-0.5052;-0.0269;-0.2334;-0.0144
0000405354;4.9392;-16.0100;-0.5100;-0.0365;-0.2305;-0.0168
0000405366;5.0374;-15.9909;-0.5770;-0.0316;-0.2421;-0.0272
0000405374;5.0278;-16.0435;-0.5100;-0.0321;-0.2426;-0.0268
0000405385;5.0733;-16.0483;-0.5171;-0.0322;-0.2551;-0.0245
0000405393;5.1332;-16.0412;-0.4381;-0.0292;-0.2562;-0.0245
0000405405;4.8554;-16.2447;-0.5004;-0.0225;-0.2699;-0.0304
0000405413;4.9368;-16.0795;-0.4932;-0.0035;-0.2794;-0.0301
0000405480;5.1260;-16.1226;-0.3759;0.0089;-0.2860;-0.0552
0000405488;5.0781;-16.1345;-0.4262;0.0230;-0.2806;-0.0633
0000405496;5.3032;-16.1106;-0.4214;0.0372;-0.2734;-0.0714
0000405508;5.1811;-16.2183;-0.4381;0.0482;-0.2527;-0.0745
0000405516;5.0470;-16.2279;-0.5148;0.0642;-0.2415;-0.0865
0000405527;5.2241;-16.1393;-0.3615;0.0735;-0.2306;-0.0949
0000405535;5.0949;-16.1680;-0.3496;0.0822;-0.2157;-0.0946
0000405547;4.9991;-16.0268;-0.2682;0.0961;-0.2069;-0.0995
0000405555;5.0254;-16.0268;-0.2873;0.0958;-0.1969;-0.0965
0000405566;4.8028;-16.0890;-0.2753;0.0986;-0.1994;-0.1034
0000405574;4.8147;-16.0148;-0.1891;0.1082;-0.2046;-0.1096
0000405586;4.9488;-15.9837;-0.1030;0.1041;-0.2037;-0.1100
0000405594;5.0087;-15.8472;-0.0934;0.1018;-0.1990;-0.1054
0000405602;4.8171;-15.9334;0.0192;0.1051;-0.2065;-0.1078
0000405613;4.9009;-15.9597;-0.0144;0.1065;-0.2128;-0.1085
0000405621;5.0230;-15.7898;-0.0287;0.0957;-0.2137;-0.1054
0000405633;5.0087;-15.7945;-0.0910;0.0863;-0.2200;-0.1034
0000405641;4.9512;-15.8855;-0.1197;0.0895;-0.2415;-0.1111
0000405652;5.1236;-15.7084;-0.0934;0.0782;-0.2526;-0.1062
0000405660;4.9297;-15.6772;-0.0359;0.0823;-0.2677;-0.1041
0000405672;5.1834;-15.4905;0.0096;0.0751;-0.2817;-0.0935
0000405680;5.0326;-15.6006;0.0886;0.0723;-0.2895;-0.0786
0000405743;5.2050;-16.1202;0.2107;0.0681;-0.2256;-0.0085
0000405751;5.1643;-16.1872;0.3519;0.0640;-0.2018;-0.0047
0000405763;5.1978;-16.3907;0.3352;0.0550;-0.1599;-0.0179
0000405771;5.3726;-16.2494;0.3855;0.0430;-0.1246;-0.0280
0000405779;5.3846;-16.2494;0.3519;0.0458;-0.0978;-0.0468
0000405790;5.2768;-16.3476;0.1915;0.0541;-0.0644;-0.0766
0000405798;5.2768;-16.3428;0.2610;0.0620;-0.0492;-0.1035
0000405810;5.0901;-16.4865;0.2251;0.0761;-0.0353;-0.1299
0000405818;5.0949;-16.3596;0.1652;0.0945;-0.0265;-0.1403
0000405829;5.1643;-16.4003;0.2682;0.1175;-0.0167;-0.1500
0000405837;4.9895;-16.3404;0.3759;0.1359;-0.0205;-0.1525
0000405849;5.1116;-16.1800;0.4717;0.1716;-0.0131;-0.1414
0000405857;5.1930;-16.0412;0.4381;0.1997;-0.0224;-0.1323
0000405868;5.4971;-15.5910;0.4381;0.2201;-0.0222;-0.0951
0000405876;5.6383;-15.3708;0.5195;0.2325;-0.0245;-0.0679
0000405884;5.7533;-15.1098;0.4597;0.2208;-0.0081;-0.0269
0000405896;5.9807;-14.9901;0.3184;0.2024;0.0181;0.0192
0000405904;6.1794;-14.9877;0.3160;0.1803;0.0489;0.0528
0000405916;6.2896;-15.2032;0.2562;0.1368;0.1170;0.0877
0000405924;6.4548;-15.3109;0.2298;0.1100;0.1601;0.0923
0000405992;5.9304;-16.4051;-0.0096;0.1539;0.4265;-0.0813
0000406000;5.7796;-16.0124;0.0742;0.1312;0.4147;-0.1066
0000406012;5.3702;-16.1680;0.0192;0.0588;0.3774;-0.1319
0000406020;5.4372;-15.9957;0.0215;0.0156;0.3456;-0.1502
0000406028;5.5306;-15.9502;0.0670;-0.0113;0.3150;-0.1479
0000406039;5.4181;-16.2183;0.1365;-0.0191;0.2650;-0.1535
0000406047;5.4205;-16.3237;0.2322;-0.0234;0.2286;-0.1515
0000406059;5.4516;-16.4434;0.1796;-0.0093;0.1727;-0.1514
0000406067;5.7054;-16.4218;0.3232;0.0015;0.1529;-0.1537
0000406078;5.8490;-16.3955;0.4788;0.0225;0.1162;-0.1580
0000406086;6.1363;-16.1010;0.3879;0.0286;0.1022;-0.1616
0000406098;6.2417;-15.9454;0.4597;0.0345;0.0837;-0.1567
0000406106;6.4308;-15.8760;0.4405;0.0301;0.0826;-0.1415
0000406114;6.6200;-15.7467;0.4860;0.0308;0.0818;-0.1339
0000406125;6.5529;-15.8496;0.4741;0.0300;0.1011;-0.1087
0000406133;6.4979;-16.0819;0.4645;0.0402;0.1155;-0.0961
0000406145;6.6774;-15.9597;0.4190;0.0556;0.1539;-0.0786
0000406153;6.8450;-15.8807;0.4764;0.0628;0.1777;-0.0705
0000406164;6.8570;-15.8640;0.3567;0.0632;0.2269;-0.0734
0000406172;6.7014;-15.7419;0.3735;0.0605;0.2606;-0.0831
0000406184;6.9384;-15.5312;0.1987;0.0532;0.3175;-0.1091
0000406192;6.8881;-15.6054;0.1604;0.0440;0.3613;-0.1228
0000406200;6.9815;-15.6533;0.0694;0.0344;0.3989;-0.1346
0000406267;6.2584;-14.9638;0.0072;0.0775;0.5365;-0.0829
0000406275;6.2225;-14.9877;-0.0120;0.0705;0.5400;-0.0549
0000406287;6.3303;-14.8081;0.0670;0.0743;0.5465;-0.0185
0000406295;6.2201;-15.0069;0.1604;0.0894;0.5570;-0.0027
0000406306;6.3159;-14.9518;0.2346;0.1182;0.5690;0.0009
0000406314;6.3494;-14.8201;0.1437;0.1332;0.5754;-0.0119
0000406326;6.3877;-14.3365;-0.0575;0.1436;0.5694;-0.0517
0000406334;5.9735;-14.2072;-0.1413;0.1408;0.5532;-0.0913
0000406342;6.0334;-13.9606;-0.2394;0.1203;0.5292;-0.1296
0000406353;6.0047;-13.7020;-0.1006;0.0898;0.4767;-0.1812
0000406361;5.8921;-13.6398;-0.0551;0.0585;0.4371;-0.1973
0000406373;5.8347;-14.2647;-0.1053;-0.0059;0.3884;-0.1701
0000406381;6.0071;-14.6310;-0.0814;-0.0524;0.3717;-0.1191
0000406392;6.3829;-15.1577;-0.1556;-0.0655;0.3584;-0.0250
0000406400;6.6870;-15.5551;-0.2346;-0.0405;0.3536;0.0265
0000406412;6.9025;-15.6700;-0.3735;0.0135;0.3714;0.0753
0000406420;6.8881;-15.6102;-0.5052;0.0532;0.4088;0.0901
0000406431;6.9432;-15.5264;-0.4741;0.1159;0.4563;0.0822
0000406439;6.7157;-15.6365;-0.4477;0.1665;0.4902;0.0754
0000406447;6.9001;-15.4474;-0.2562;0.2194;0.5228;0.0640
0000406459;6.7708;-15.4067;-0.1867;0.3003;0.5617;0.0663
0000406467;6.5888;-15.4187;-0.1628;0.3684;0.5708;0.0721
0000406534;6.7133;-13.9007;0.4741;0.5085;0.5550;0.3363
0000406542;6.6080;-13.5847;0.4549;0.4892;0.5546;0.3649
0000406554;6.6655;-13.2399;1.3001;0.4843;0.5355;0.3652
0000406562;6.2968;-13.1537;1.6041;0.4679;0.5415;0.3531
0000406573;5.3917;-13.0580;2.4301;0.4259;0.5492;0.2907
0000406581;4.4628;-13.4937;2.9856;0.3922;0.5440;0.2200
0000406589;3.5889;-14.0588;3.5243;0.3695;0.5068;0.1131
0000406601;1.8651;-16.2087;4.6136;0.3004;0.3820;-0.1275
0000406609;0.9122;-17.2670;4.7716;0.2545;0.2213;-0.3130
0000406620;-0.3543;-19.0435;3.9337;0.1419;-0.0905;-0.5320
0000406628;-0.8667;-19.3284;2.7509;0.1041;-0.3481;-0.6448
0000406640;-0.7518;-17.8272;1.5730;0.1704;-0.7171;-0.5692
0000406648;0.9337;-16.4769;2.2170;0.2451;-0.9402;-0.3511
0000406659;4.6687;-16.4099;3.7900;0.2305;-1.1298;-0.0100
0000406667;6.5170;-17.0826;4.5729;0.1653;-1.1145;0.2054
0000406675;7.4244;-18.1026;3.8906;0.0253;-1.0031;0.3988
0000406687;8.2911;-19.0602;1.9920;-0.1490;-0.8015;0.5271
0000406695;8.1547;-20.0874;1.6400;-0.2406;-0.6382;0.4808
0000406706;7.9320;-20.3124;1.2785;-0.3790;-0.3483;0.3413
0000406714;7.7572;-20.4058;1.1229;-0.4365;-0.1523;0.2109
0000406726;7.7093;-20.2549;1.0295;-0.4483;0.1335;0.0265
0000406734;7.1658;-20.1759;1.1037;-0.4024;0.3072;-0.0709
0000406801;2.8515;-17.9565;1.1995;-0.0601;0.2679;-0.0526
0000406809;3.5530;-17.4681;1.2617;-0.0783;0.2010;0.0036
0000406821;4.1515;-17.1018;1.4341;-0.1262;0.1495;0.0765
0000406829;4.7692;-16.8935;1.4078;-0.1347;0.1251;0.1159
0000406837;4.8291;-16.8217;1.4485;-0.1292;0.1170;0.1491
0000406848;5.1404;-16.4625;1.5730;-0.0939;0.0973;0.1736
0000406856;5.0685;-16.2399;1.5802;-0.0723;0.0877;0.1761
0000406868;4.9177;-15.7826;1.5443;-0.0594;0.0771;0.1819
0000406876;4.5586;-15.6102;1.5036;-0.0654;0.0790;0.1877
0000406887;4.3072;-15.0763;1.5036;-0.0718;0.0496;0.1835
0000406895;4.1372;-15.1026;1.3815;-0.0882;0.0381;0.1827
0000406907;4.2737;-14.8943;1.3575;-0.1363;0.0159;0.1773
0000406915;4.6519;-14.6956;1.2091;-0.1653;0.0075;0.1720
0000406923;4.6280;-14.8081;1.0918;-0.2041;-0.0004;0.1613
0000406934;4.7788;-15.1601;0.9433;-0.2297;0.0049;0.1482
0000406942;4.8698;-15.0691;0.8739;-0.2288;0.0052;0.1255
0000406954;4.8650;-15.3301;0.8068;-0.2140;0.0184;0.1035
0000406962;4.8195;-15.3157;0.8356;-0.2108;0.0358;0.0917
0000406973;4.8650;-15.6006;0.7015;-0.2009;0.0618;0.0861
0000406981;4.7477;-15.5168;0.5794;-0.1788;0.0781;0.0738
0000406993;4.8195;-15.5240;0.6895;-0.1649;0.1110;0.0649
0000407001;4.6400;-15.7251;0.8140;-0.1688;0.1391;0.0594
0000407009;4.6424;-15.6940;0.9026;-0.1681;0.1645;0.0561
0000407076;4.8770;-15.3732;0.6009;-0.1820;0.4211;-0.0584
0000407084;4.6783;-15.4139;0.4764;-0.1799;0.4266;-0.0799
0000407096;4.5562;-15.5144;0.3831;-0.1737;0.4219;-0.1063
0000407104;4.3215;-15.5288;0.2514;-0.1575;0.3994;-0.1266
0000407115;4.1515;-15.5216;0.2011;-0.1384;0.3655;-0.1267
0000407123;4.0630;-15.5671;0.2155;-0.1151;0.3280;-0.1190
0000407135;3.8140;-15.7443;0.1532;-0.0953;0.2483;-0.1136
0000407143;3.7302;-15.8640;0.2849;-0.0929;0.1939;-0.0921
0000407154;3.8762;-15.7706;0.3208;-0.0709;0.1073;-0.0762
0000407162;3.7757;-15.9861;0.1700;-0.0462;0.0378;-0.0702
0000407170;3.9911;-15.8831;0.2729;-0.0269;-0.0211;-0.0577
0000407182;4.0893;-15.6293;0.4238;0.0053;-0.1061;-0.0358
0000407190;4.1563;-15.4115;0.4884;0.0152;-0.1664;-0.0280
0000407201;4.2353;-15.1553;0.4118;-0.0012;-0.2297;-0.0096
0000407209;4.4101;-15.1314;0.5148;-0.0329;-0.2697;0.0039
0000407221;4.5442;-14.8488;0.5818;-0.0763;-0.3216;0.0181
0000407229;4.5442;-14.8105;0.3855;-0.1021;-0.3475;0.0300
0000407240;4.5945;-15.0404;0.3998;-0.1418;-0.3914;0.0274
0000407248;4.7812;-15.0859;0.3160;-0.1689;-0.4106;0.0350
0000407260;4.9943;-15.0715;0.1891;-0.1732;-0.4487;0.0434
0000407268;4.9488;-15.2391;0.0862;-0.1652;-0.4800;0.0497
0000407276;4.8626;-15.2654;0.0431;-0.1727;-0.4987;0.0632
0000407344;4.7405;-15.6700;-0.0383;-0.0653;-0.7598;0.1111
0000407352;4.8650;-15.5120;-0.0694;-0.0827;-0.7715;0.1328
0000407363;5.1020;-15.0500;-0.0215;-0.0938;-0.7719;0.1338
0000407371;5.1212;-15.0595;0.0599;-0.0993;-0.7544;0.1404
0000407383;5.0661;-14.9398;0.0024;-0.0953;-0.7155;0.1494
0000407391;5.1930;-14.8512;0.0527;-0.0753;-0.7081;0.1442
0000407402;4.8698;-15.0691;0.1413;-0.0462;-0.6871;0.1352
0000407410;4.9823;-14.9111;0.0958;-0.0298;-0.6923;0.1049
0000407422;4.7309;-15.2128;0.1580;-0.0317;-0.6859;0.0490
0000407430;4.5777;-15.3181;0.2394;-0.0478;-0.6921;-0.0020
0000407438;4.5825;-15.4665;0.1748;-0.0592;-0.7197;-0.0726
0000407449;4.3383;-15.7706;0.1030;-0.0838;-0.7446;-0.1474
0000407457;4.1372;-15.9669;0.0407;-0.0882;-0.7815;-0.1901
0000407469;4.2593;-15.9310;0.0431;-0.1063;-0.8222;-0.2252
0000407477;4.3167;-15.8376;-0.0431;-0.1017;-0.8344;-0.2281
0000407488;4.3981;-15.6270;-0.1844;-0.0937;-0.8600;-0.2434
0000407496;4.6112;-15.4426;-0.2131;-0.0918;-0.8713;-0.2530
0000407508;4.8267;-15.4450;-0.1269;-0.0835;-0.8765;-0.2637
0000407516;5.0996;-15.3732;-0.1030;-0.0762;-0.8599;-0.2743
0000407528;5.1332;-15.4354;-0.2777;-0.0613;-0.8427;-0.3016
0000407536;5.2457;-15.5958;-0.3017;-0.0450;-0.8151;-0.3260
0000407604;5.9352;-14.5974;0.2442;0.3944;-0.3990;-0.3242
0000407612;5.7604;-14.2982;0.4238;0.3928;-0.3254;-0.3099
0000407620;5.7700;-14.2048;0.5124;0.3599;-0.2477;-0.3264
0000407631;5.5593;-13.8385;0.4621;0.2928;-0.1797;-0.3910
0000407639;5.5210;-13.8026;0.5483;0.2209;-0.1410;-0.4483
0000407651;5.6024;-13.5655;0.5938;0.1087;-0.1051;-0.5317
0000407659;5.7150;-13.4865;0.5028;0.0460;-0.0937;-0.5481
0000407670;5.8419;-13.0723;0.3400;-0.0280;-0.0759;-0.5107
0000407678;5.8706;-12.8784;0.2394;-0.0770;-0.0537;-0.4354
0000407690;5.6982;-12.6893;0.0766;-0.1331;-0.0241;-0.3228
0000407698;5.7916;-12.4546;-0.0287;-0.1673;-0.0057;-0.2573
0000407709;5.6551;-12.5073;-0.0958;-0.1947;0.0135;-0.1893
0000407717;5.4372;-12.8545;-0.0958;-0.2026;0.0209;-0.1484
0000407729;5.7581;-13.0316;-0.2490;-0.2078;0.0265;-0.1287
0000407737;5.6336;-13.2974;-0.3424;-0.2114;0.0212;-0.1464
0000407745;5.5569;-13.5871;-0.3017;-0.2101;0.0184;-0.1679
0000407756;5.7868;-13.7116;0.0622;-0.1813;0.0112;-0.2025
0000407764;5.7581;-14.0444;0.6249;-0.1154;-0.0116;-0.2329
0000407776;5.8466;-14.9590;1.4844;0.0509;-0.0334;-0.2365
0000407784;6.1507;-15.7275;1.8172;0.1931;-0.0144;-0.2229
0000407796;6.5529;-16.5032;2.0470;0.3613;0.0160;-0.2340
0000407804;6.7253;-16.5224;2.0207;0.4218;0.0232;-0.2718
0000407872;10.3717;-21.4473;2.3176;0.6129;0.4647;0.6073
0000407880;11.7843;-19.6013;1.0942;0.2078;0.5935;0.4826
0000407888;11.2456;-18.0068;0.9385;-0.1986;0.7185;0.1784
0000407899;7.5824;-17.7123;0.8092;-0.6151;0.8992;-0.1609
0000407907;5.0518;-18.2989;0.7661;-0.7350;0.9479;-0.1905
0000407919;0.9074;-20.2573;0.5794;-0.7416;0.7564;-0.1159
0000407927;-0.6369;-21.0091;0.3208;-0.6075;0.5129;-0.0305
0000407938;-1.0894;-21.8255;0.2945;-0.2388;0.1143;0.0633
0000407946;0.5363;-21.1312;0.6273;0.0160;-0.1628;0.0981
0000407958;4.0534;-19.3475;1.0415;0.1067;-0.4205;0.1343
0000407966;5.3391;-18.8424;1.3623;-0.0013;-0.4971;0.1537
0000407977;6.8283;-18.2941;1.3575;-0.1947;-0.5328;0.1651
0000407985;7.2329;-18.5239;1.2809;-0.2585;-0.5217;0.1563
0000407993;7.6471;-18.5383;1.2019;-0.2570;-0.4720;0.1279
0000408005;7.7237;-18.5048;1.2330;-0.1895;-0.3604;0.0683
0000408013;7.8099;-18.1026;1.3647;-0.1440;-0.2626;0.0322
0000408024;7.6854;-17.6022;1.4293;-0.1151;-0.1343;-0.0201
0000408032;7.6231;-17.1688;1.5658;-0.1367;-0.0358;-0.0442
0000408044;7.2712;-16.7427;1.3336;-0.1981;0.0681;-0.0659
0000408052;6.8331;-16.5583;1.5490;-0.2481;0.1130;-0.0733
0000408064;6.5074;-16.3979;1.2546;-0.2990;0.1716;-0.0773
0000408072;5.9759;-16.7427;1.2210;-0.2878;0.1807;-0.1013
0000408140;5.1571;-15.8209;1.1612;-0.1923;-0.0715;-0.0781
0000408148;5.2768;-15.8520;1.2043;-0.1848;-0.1250;-0.0683
0000408156;5.4444;-15.9095;1.2354;-0.1724;-0.1667;-0.0574
0000408167;5.9328;-15.8185;1.2761;-0.1346;-0.2029;-0.0666
0000408175;6.1866;-15.7730;1.3431;-0.1062;-0.2093;-0.0834
0000408187;6.5146;-15.7993;1.4198;-0.0857;-0.1945;-0.1168
0000408195;6.9504;-15.5264;1.3240;-0.0989;-0.1871;-0.1358
0000408206;6.9073;-15.7036;1.2354;-0.1324;-0.1486;-0.1503
0000408214;6.9791;-15.7203;1.1109;-0.1525;-0.1294;-0.1604
0000408226;6.9384;-15.9454;0.9697;-0.1736;-0.1007;-0.1587
0000408234;6.7445;-15.9885;0.8523;-0.1771;-0.0863;-0.1470
0000408245;6.3829;-15.9310;0.7159;-0.1673;-0.0786;-0.1243
0000408253;6.0525;-15.8760;0.5315;-0.1588;-0.0930;-0.1176
0000408265;5.8921;-15.8209;0.4357;-0.1629;-0.1045;-0.1058
0000408273;5.8921;-15.6126;0.3855;-0.1707;-0.1160;-0.0997
0000408281;5.8107;-15.7682;0.3855;-0.1737;-0.1318;-0.0994
0000408292;5.9592;-15.7395;0.3615;-0.1743;-0.1462;-0.1086
0000408300;6.0478;-15.8496;0.3472;-0.1663;-0.1472;-0.1130
0000408312;6.4165;-15.8712;0.4453;-0.1488;-0.1455;-0.1258
0000408320;6.4979;-15.8305;0.4357;-0.1123;-0.1391;-0.1314
0000408332;7.0868;-15.6629;0.5938;-0.0763;-0.1203;-0.1446
0000408340;7.0294;-15.5695;0.6225;-0.0500;-0.1018;-0.1632
0000408408;6.0454;-15.3851;0.3950;-0.1202;-0.0342;-0.1248
0000408416;5.8059;-15.4833;0.2921;-0.1206;-0.0658;-0.1022
0000408427;5.9256;-15.2822;0.2753;-0.1065;-0.1202;-0.0785
0000408435;5.8562;-15.3660;0.3472;-0.0813;-0.1603;-0.0687
0000408447;5.9831;-15.3612;0.3424;-0.0388;-0.2088;-0.0408
0000408455;6.0454;-15.5336;0.1437;-0.0099;-0.2415;-0.0309
0000408463;6.2848;-15.5288;0.2251;0.0136;-0.2553;-0.0143
0000408474;6.4596;-15.5863;0.1030;0.0648;-0.2699;-0.0225
0000408482;6.6798;-15.4833;0.1772;0.0977;-0.2654;-0.0256
0000408494;6.9360;-15.3780;0.1101;0.1077;-0.2409;-0.0409
0000408502;6.9264;-15.4306;0.1437;0.1210;-0.2265;-0.0610
0000408513;6.9719;-15.5886;-0.0335;0.1159;-0.1863;-0.0620
0000408521;6.9216;-15.6485;-0.1580;0.1200;-0.1535;-0.0622
0000408533;7.0629;-15.7419;-0.1149;0.1268;-0.0879;-0.0525
0000408541;7.1898;-15.5312;-0.1820;0.1374;-0.0470;-0.0562
0000408552;7.3167;-15.1290;-0.1389;0.1428;0.0201;-0.0538
0000408560;7.5058;-14.8728;-0.0958;0.1494;0.0622;-0.0743
0000408568;7.3622;-14.8441;-0.1772;0.1490;0.1139;-0.0830
0000408580;7.4148;-14.7626;-0.1532;0.1495;0.1966;-0.0951
0000408588;7.3574;-14.8345;-0.2059;0.1689;0.2486;-0.0937
0000408600;7.6638;-14.6717;-0.0886;0.2084;0.3329;-0.0494
0000408608;7.3574;-15.1218;-0.0646;0.2173;0.3893;0.0091
0000408675;7.0749;-14.3149;-0.4262;0.1022;0.5588;0.1021
0000408683;7.1874;-14.5544;-0.2059;0.0775;0.5913;0.0897
0000408695;7.5848;-14.7435;-0.1101;0.0584;0.6832;0.1275
0000408703;7.5705;-15.0859;-0.2274;0.0509;0.7554;0.1877
0000408715;7.5202;-15.5623;-0.0862;0.0401;0.8432;0.2761
0000408723;7.4651;-15.7323;-0.0120;0.0444;0.8887;0.3280
0000408731;7.2640;-16.1106;-0.0479;0.0665;0.9225;0.3421
0000408743;6.7277;-16.2662;0.0431;0.1039;0.9477;0.3123
0000408751;6.2680;-16.3668;0.1939;0.1511;0.9535;0.2639
0000408762;6.0023;-16.1513;0.1987;0.2268;0.9421;0.1943
0000408770;5.6910;-15.8448;0.4405;0.2743;0.9174;0.1573
0000408782;5.5043;-15.2367;0.6249;0.3296;0.8619;0.1406
0000408790;5.3678;-15.0284;0.7326;0.3166;0.8220;0.1629
0000408798;5.2289;-15.1433;0.7446;0.2801;0.7730;0.2030
0000408809;5.4875;-15.1409;0.7901;0.2285;0.6885;0.2851
0000408817;5.3271;-15.2798;0.5602;0.1992;0.6366;0.3509
0000408829;5.6264;-15.2343;0.4501;0.1982;0.5548;0.4150
0000408837;5.7652;-15.1098;0.4501;0.1927;0.5191;0.4515
0000408849;5.8778;-15.1912;0.4453;0.2017;0.4815;0.4636
0000408857;5.8275;-15.2918;0.4836;0.2149;0.4758;0.4515
0000408869;6.2872;-15.1721;0.3783;0.2458;0.4744;0.4150
0000408877;6.5074;-15.2080;0.5148;0.2875;0.4851;0.3934
0000408885;6.6008;-15.0547;0.5770;0.3359;0.4966;0.3684
0000408952;1.9417;-17.4442;3.6033;0.3524;0.0228;-0.1972
0000408960;1.3791;-18.3731;3.4453;0.2721;-0.1525;-0.3079
0000408972;1.2258;-18.6317;2.8754;0.1867;-0.4578;-0.4271
0000408980;1.3791;-18.3611;2.4157;0.1997;-0.6715;-0.4426
0000408992;3.0239;-16.8791;1.9441;0.2341;-0.9393;-0.3376
0000409000;4.4532;-15.8736;1.8268;0.2533;-1.0284;-0.1932
0000409012;6.2513;-15.2870;2.2122;0.2880;-1.0768;0.0155
0000409020;6.8833;-15.7802;3.5243;0.3227;-1.0313;0.1131
0000409028;6.8163;-16.5846;4.7716;0.3768;-0.9387;0.1717
0000409040;6.2106;-17.6716;3.5865;0.3720;-0.8262;0.1515
0000409048;5.7317;-18.9118;2.1189;0.2374;-0.7855;0.0532
0000409060;4.5346;-21.3946;1.2761;-0.0795;-0.7306;-0.1631
0000409068;4.1348;-22.6061;1.1684;-0.2152;-0.6732;-0.2209
0000409079;5.4708;-22.1583;0.7326;-0.1523;-0.5773;-0.1552
0000409087;6.5745;-21.0977;0.6345;-0.0662;-0.4967;-0.0290
0000409099;7.4436;-19.3571;1.0223;-0.0300;-0.3397;0.1288
0000409107;7.2496;-18.7777;1.2234;-0.0592;-0.2146;0.1835
0000409119;6.5457;-18.3132;1.6951;-0.1034;-0.0384;0.2264
0000409127;5.7581;-18.4641;1.7933;-0.1547;0.0296;0.2184
0000409135;5.1499;-18.3827;1.7813;-0.1812;0.0644;0.1955
0000409147;4.5562;-18.0738;1.8531;-0.1958;0.0661;0.1676
0000409155;4.2138;-17.7339;1.8507;-0.1825;0.0272;0.1496
0000409222;5.1356;-14.4825;1.9130;-0.1009;-0.2001;0.1402
0000409230;5.4875;-14.4251;2.0662;-0.1114;-0.1791;0.1200
0000409242;6.2153;-14.1162;1.9369;-0.1338;-0.1363;0.0871
0000409250;6.4021;-14.2814;1.9273;-0.1312;-0.0962;0.0690
0000409262;6.7540;-14.2599;1.7166;-0.1304;-0.0213;0.0358
0000409270;6.6200;-14.6118;1.7837;-0.1183;0.0374;0.0241
0000409278;6.4332;-14.6741;1.6209;-0.0949;0.0895;0.0200
0000409290;6.0669;-14.8728;1.7310;-0.0646;0.1651;0.0171
0000409298;5.5881;-14.9709;1.6616;-0.0532;0.1994;0.0222
0000409310;5.0781;-15.0763;1.6616;-0.0401;0.2380;0.0302
0000409318;4.6424;-15.2606;1.7597;-0.0308;0.2338;0.0236
0000409330;4.4005;-15.3827;1.8292;-0.0340;0.2162;0.0072
0000409338;4.3048;-15.4977;1.9058;-0.0356;0.1952;0.0031
0000409350;4.1204;-15.6844;1.9130;-0.0329;0.1472;-0.0242
0000409358;4.0151;-15.9789;1.8196;-0.0349;0.1132;-0.0408
0000409370;4.4580;-15.9095;1.7693;-0.0442;0.0685;-0.0444
0000409378;4.8698;-15.7275;1.6113;-0.0648;0.0458;-0.0344
0000409386;5.1475;-15.7969;1.5467;-0.0797;0.0317;-0.0240
0000409398;5.6671;-15.6270;1.4365;-0.0929;0.0334;0.0059
0000409406;5.8466;-15.7443;1.5275;-0.0966;0.0441;0.0265
0000409418;6.0238;-15.7443;1.4557;-0.0931;0.0757;0.0505
0000409426;5.8802;-16.0076;1.5850;-0.0817;0.1042;0.0673
0000409490;4.9536;-16.5200;1.0726;-0.0234;0.1917;-0.0320
0000409498;4.9297;-16.3524;0.9553;-0.0171;0.1709;-0.0366
0000409510;4.9608;-15.8807;1.0630;-0.0096;0.1234;-0.0352
0000409518;4.7549;-15.8688;0.9864;-0.0187;0.0873;-0.0276
0000409526;4.7597;-15.6892;0.9409;-0.0357;0.0476;-0.0188
0000409538;5.0613;-15.4187;0.9529;-0.0562;-0.0092;0.0043
0000409546;4.8315;-15.2870;0.8882;-0.0598;-0.0496;0.0140
0000409558;4.8004;-15.0428;0.8404;-0.0606;-0.0989;0.0191
0000409566;4.7166;-15.0715;0.9122;-0.0815;-0.1352;0.0248
0000409579;4.8052;-14.9757;0.8835;-0.0991;-0.1953;0.0065
0000409588;4.7549;-14.9614;0.8452;-0.1154;-0.2325;-0.0156
0000409601;4.6663;-14.9973;0.8068;-0.1324;-0.2954;-0.0380
0000409610;4.7238;-14.8752;0.6752;-0.1463;-0.3379;-0.0517
0000409623;4.5226;-14.9781;0.6081;-0.1840;-0.4025;-0.0510
0000409632;4.6424;-14.8584;0.4741;-0.2022;-0.4482;-0.0612
0000409641;4.7214;-14.8345;0.4238;-0.2081;-0.4960;-0.0743
0000409654;4.5753;-14.9566;0.5626;-0.1847;-0.5818;-0.0986
0000409663;4.4796;-15.1290;0.5770;-0.1563;-0.6424;-0.1195
0000409676;4.7453;-15.1888;0.5052;-0.1140;-0.7448;-0.1387
0000409685;4.8004;-15.1577;0.4214;-0.0977;-0.7959;-0.1314
0000409698;5.1092;-14.7914;0.4693;-0.0642;-0.8836;-0.1186
0000409707;4.7501;-14.9470;0.6081;-0.0373;-0.9173;-0.1025
0000409775;5.4300;-14.9709;0.9266;0.0754;-0.9944;-0.1908
0000409784;5.5282;-14.7770;1.0295;0.0670;-0.9565;-0.1948
0000409797;5.9233;-14.8225;1.2809;0.0566;-0.8747;-0.2137
0000409806;6.2776;-14.8800;1.2809;0.0220;-0.7935;-0.2309
0000409819;6.7516;-15.2343;1.2713;-0.0123;-0.6985;-0.2839
0000409828;7.0533;-15.2415;1.1396;-0.0224;-0.6111;-0.2930
0000409837;6.9264;-15.2942;1.0630;-0.0073;-0.5263;-0.2727
0000409850;6.7924;-14.8728;1.1540;0.0096;-0.4209;-0.2110
0000409859;6.5242;-14.7315;1.0127;-0.0029;-0.3656;-0.1775
0000409872;6.3063;-14.3892;1.0175;-0.0493;-0.2899;-0.1186
0000409881;6.3207;-14.2862;1.0008;-0.1007;-0.2300;-0.1005
0000409894;6.1627;-14.6717;0.9481;-0.1641;-0.1772;-0.1458
0000409903;5.8634;-14.9829;0.9649;-0.1972;-0.1599;-0.1929
0000409916;5.4971;-15.3085;0.7733;-0.2138;-0.1604;-0.2943
0000409925;5.3223;-15.0045;0.5698;-0.2286;-0.1673;-0.3275
0000409938;5.1068;-14.5232;0.6033;-0.2449;-0.1739;-0.3275
0000409947;5.1595;-13.8888;0.7207;-0.2527;-0.1725;-0.2999
0000409960;5.2888;-13.5129;0.7757;-0.2805;-0.1259;-0.2378
0000409969;5.3391;-13.5775;0.7853;-0.3158;-0.0779;-0.2061
0000409978;5.6814;-13.8145;0.7446;-0.3539;-0.0296;-0.1968
0000409991;6.1603;-14.3820;0.4597;-0.4033;0.0405;-0.2228
0000410000;6.1555;-14.7076;0.1844;-0.4219;0.1022;-0.2286
0000410071;6.0645;-15.8855;0.7661;-0.0706;0.4034;0.4979
0000410080;6.2489;-16.3500;1.3503;-0.0350;0.4209;0.5228
0000410093;6.3015;-17.0754;1.5682;0.0545;0.4338;0.5133
0000410102;6.0047;-17.5280;1.3384;0.1463;0.4457;0.4934
0000410114;5.4971;-17.6429;1.0343;0.1988;0.4568;0.4896
0000410123;5.2074;-17.1473;1.0750;0.1932;0.4457;0.4999
0000410132;4.6950;-16.7307;1.5371;0.1601;0.4214;0.5045
0000410145;4.1515;-16.9270;2.2936;0.0616;0.3829;0.4958
0000410154;4.3359;-17.5591;2.5331;0.0093;0.3724;0.4772
0000410166;4.9823;-19.0746;3.7589;0.0217;0.4085;0.4329
0000410175;6.1507;-20.5758;4.1563;0.0572;0.4842;0.4197
0000410188;8.1570;-21.5837;2.1117;0.0312;0.6075;0.4001
0000410197;9.4906;-20.5135;0.9026;-0.0167;0.7097;0.3062
0000410209;8.5641;-18.5287;0.9960;-0.1644;0.8855;0.0987
0000410218;6.9288;-17.3053;1.4748;-0.3902;0.9549;-0.0442
0000410227;5.2481;-17.2287;1.4796;-0.6456;0.9486;-0.1079
0000410240;3.3639;-18.2989;1.1229;-0.8587;0.8214;-0.0941
0000410249;2.3128;-19.4816;0.6991;-0.8200;0.6771;-0.0454
0000410318;5.9448;-17.7698;0.8284;-0.2153;-0.0630;-0.0061
0000410327;6.6272;-17.3699;0.9720;-0.1881;-0.0321;-0.0127
0000410340;6.6535;-16.8576;1.0822;-0.1696;0.0336;-0.0361
0000410349;6.8450;-16.5248;1.0750;-0.1744;0.0914;-0.0648
0000410361;6.8211;-16.3739;0.9385;-0.1952;0.1451;-0.1195
0000410370;6.6056;-16.2614;0.8667;-0.2098;0.1775;-0.1547
0000410383;5.9640;-16.4434;0.6728;-0.1904;0.1752;-0.1936
0000410392;5.6431;-16.1944;0.6440;-0.1632;0.1532;-0.1990
0000410401;5.0206;-16.2878;0.5219;-0.1107;0.0925;-0.2141
0000410413;4.2545;-16.1130;0.3807;-0.0334;-0.0052;-0.2106
0000410422;3.8930;-15.9071;0.4238;-0.0092;-0.0894;-0.1972
0000410435;3.9624;-15.7299;0.5219;-0.0016;-0.2192;-0.1984
0000410444;4.0965;-15.6533;0.4693;0.0073;-0.3203;-0.2116
0000410456;4.2234;-15.5982;0.5770;0.0003;-0.4329;-0.2186
0000410465;4.6591;-15.5025;0.8260;-0.0113;-0.4935;-0.2152
0000410478;5.2553;-15.5384;0.8763;-0.0360;-0.5502;-0.2036
0000410487;5.9975;-15.4905;1.0104;-0.0484;-0.5553;-0.1807
0000410499;6.6846;-15.2152;0.9122;-0.0661;-0.5199;-0.1510
0000410508;6.9360;-15.2367;0.7805;-0.0821;-0.4806;-0.1262
0000410517;7.2712;-15.2223;0.6823;-0.1206;-0.4218;-0.1047
0000410530;7.4771;-15.4977;0.3519;-0.1511;-0.3463;-0.0881
0000410539;7.0174;-16.0292;0.1365;-0.1561;-0.2838;-0.0753
0000410608;5.4708;-15.5240;0.3974;0.1775;-0.2234;-0.0226
0000410617;5.8993;-15.2463;0.3543;0.1756;-0.2336;-0.0253
0000410630;5.7581;-15.1577;0.3232;0.1563;-0.2603;-0.0268
0000410639;6.0358;-15.1625;0.3711;0.1346;-0.2666;-0.0272
0000410651;6.1507;-15.3756;0.2107;0.1254;-0.2613;-0.0240
0000410660;6.0980;-15.5049;0.2442;0.1260;-0.2441;-0.0153
0000410673;6.2896;-15.4905;0.0766;0.1308;-0.2110;0.0020
0000410682;6.3901;-15.3444;0.0168;0.1375;-0.1941;0.0061
0000410691;6.3422;-15.2654;0.0048;0.1304;-0.1649;0.0212
0000410703;6.3710;-15.0930;-0.1413;0.1046;-0.1146;0.0413
0000410712;6.3087;-15.1074;-0.1077;0.0870;-0.0859;0.0536
0000410725;6.2944;-15.0571;-0.0646;0.0695;-0.0309;0.0755
0000410734;6.3446;-15.2678;-0.0024;0.0586;0.0209;0.0934
0000410746;6.3542;-15.2343;-0.0192;0.0608;0.0735;0.0934
0000410755;6.3853;-15.1529;-0.0120;0.0638;0.1018;0.0906
0000410768;6.2728;-15.1960;-0.0215;0.0477;0.1448;0.0806
0000410777;6.2369;-15.0284;-0.1269;0.0172;0.1741;0.0775
0000410786;6.4189;-14.9733;-0.1939;-0.0095;0.1984;0.0791
0000410798;6.3997;-14.8321;-0.1891;-0.0446;0.2254;0.0890
0000410807;6.5074;-15.0212;-0.1891;-0.0718;0.2489;0.1138
0000410820;6.5553;-15.0595;-0.1149;-0.0946;0.2964;0.1374
0000410829;6.6726;-15.2582;-0.2442;-0.0897;0.3348;0.1504
0000410898;5.7964;-16.2494;0.1628;0.0650;0.3877;0.0806
0000410907;5.6168;-16.5583;0.2274;0.0934;0.3592;0.0978
0000410920;5.6743;-16.4673;0.0886;0.2030;0.3155;0.1168
0000410929;5.7365;-16.3309;0.1030;0.2813;0.3048;0.1207
0000410941;6.0310;-15.6677;0.0790;0.3480;0.2944;0.0674
0000410950;6.0980;-15.2080;0.1963;0.3607;0.2999;0.0184
0000410959;6.3614;-14.8728;0.1844;0.3581;0.3031;-0.0285
0000410972;6.6990;-14.5974;0.2370;0.3424;0.3019;-0.0841
0000410981;6.7708;-14.5711;0.3807;0.3425;0.3064;-0.1051
0000410993;6.6679;-14.8728;0.3160;0.3397;0.3425;-0.0821
0000411002;6.9073;-14.9302;0.3496;0.3472;0.3813;-0.0288
0000411015;6.8546;-14.7052;0.3376;0.3568;0.4393;0.0401
0000411024;7.0461;-14.0468;0.1963;0.3557;0.4620;0.0705
0000411033;6.8714;-13.4267;0.2251;0.3099;0.4902;0.0909
0000411045;6.7564;-12.9885;0.1604;0.2196;0.4912;0.0815
0000411054;6.3686;-12.6677;0.1580;0.1478;0.4690;0.0476
0000411067;6.2153;-12.4307;0.2682;0.0368;0.4026;-0.0218
0000411076;6.1914;-12.3110;0.0766;-0.0452;0.3464;-0.0542
0000411088;5.7413;-12.7659;0.1293;-0.1367;0.2681;-0.0897
0000411097;5.3486;-13.1537;0.4118;-0.1909;0.2069;-0.0898
0000411110;4.7429;-14.2096;0.8595;-0.2525;0.0882;-0.0914
0000411119;4.2521;-15.1721;1.0606;-0.2766;-0.0268;-0.0969
0000411188;3.9863;-16.0172;0.5507;-0.2105;-1.3704;-0.0504
0000411197;4.8842;-16.6158;1.9968;-0.2693;-1.4368;0.1172
0000411206;5.4085;-18.2390;3.7589;-0.3083;-1.4060;0.2338
0000411219;5.2409;-20.3028;1.5562;-0.3281;-1.3304;0.2301
0000411228;5.2409;-20.7122;0.0503;-0.3609;-1.2812;0.1435
0000411240;5.7126;-20.4585;0.0239;-0.3856;-1.1876;0.1073
0000411249;6.4739;-20.2813;0.5866;-0.3766;-1.0198;0.1903
0000411262;7.9104;-19.9509;0.7590;-0.4453;-0.7412;0.1807
0000411271;8.7676;-20.2454;0.6560;-0.4450;-0.5296;0.0978
0000411283;9.1435;-20.6667;0.6776;-0.3285;-0.1864;-0.0197
0000411292;8.1977;-20.7649;0.7877;-0.2081;0.0671;-0.0576
0000411305;6.2752;-20.0682;1.1181;-0.1088;0.3327;-0.0894
0000411314;5.1571;-19.6516;1.3431;-0.1376;0.4223;-0.0989
0000411323;4.2593;-18.9190;1.2570;-0.1895;0.4461;-0.0839
0000411335;3.3543;-18.8017;1.1492;-0.2368;0.4098;-0.0397
0000411344;2.9353;-18.4377;1.0343;-0.2465;0.3485;-0.0076
0000411357;2.2338;-18.1744;0.9385;-0.1929;0.2205;0.0517
0000411366;2.2697;-17.6836;0.8978;-0.1355;0.1041;0.0845
0000411378;2.4157;-17.4609;0.8835;-0.0814;-0.0426;0.1284
0000411387;2.7557;-17.0156;0.8452;-0.0368;-0.1619;0.1535
0000411400;3.5099;-16.5487;0.8380;0.0136;-0.3064;0.1849
0000411409;3.9337;-16.3285;0.8092;0.0481;-0.3725;0.1993
0000411418;4.4388;-15.9669;0.6871;0.0858;-0.4202;0.2136
0000411487;5.6000;-15.2247;0.6967;0.1275;-0.2309;0.1560
0000411496;5.3103;-15.2104;0.8332;0.1386;-0.2058;0.1442
0000411509;5.0326;-15.2942;0.9505;0.1352;-0.1784;0.1258
0000411518;4.6304;-15.2822;0.8859;0.1191;-0.1665;0.1203
0000411529;4.7501;-15.2415;0.9146;0.0957;-0.1589;0.1095
0000411538;4.6974;-15.4833;0.7901;0.0553;-0.1448;0.1160
0000411552;4.9847;-15.4618;0.7494;0.0253;-0.1158;0.1283
0000411561;5.0374;-15.5503;0.7997;0.0093;-0.0818;0.1487
0000411570;5.2218;-15.6461;0.6440;-0.0004;-0.0581;0.1519
0000411583;5.4516;-15.7778;0.4860;-0.0087;0.0155;0.1564
0000411592;5.4851;-16.0268;0.4357;0.0087;0.0687;0.1543
0000411604;5.4564;-15.9837;0.5148;0.0381;0.1490;0.1383
0000411613;5.3798;-15.8760;0.5722;0.0673;0.1972;0.1106
0000411626;5.2337;-15.8568;0.7757;0.0886;0.2702;0.0649
0000411635;5.1068;-15.7898;0.7230;0.1043;0.3104;0.0430
0000411647;4.8674;-15.8424;0.7685;0.1191;0.3399;0.0080
0000411656;4.5011;-15.9382;0.7230;0.1247;0.3524;-0.0012
0000411665;4.5107;-15.7179;0.7542;0.1399;0.3445;-0.0073
0000411678;4.2425;-15.7251;0.7422;0.1488;0.3301;0.0003
0000411687;4.0965;-15.6509;0.5986;0.1376;0.3154;0.0101
0000411699;4.2186;-15.6293;0.5698;0.1406;0.2722;0.0117
0000411708;4.2521;-15.8568;0.4453;0.1284;0.2569;0.0317
0000411777;4.5729;-15.1242;0.4836;0.1839;0.1255;0.0052
0000411786;4.4724;-15.0619;0.3687;0.1724;0.1096;-0.0075
0000411798;4.1779;-15.1290;0.4118;0.1412;0.0763;-0.0145
0000411807;4.0773;-15.1074;0.3304;0.1042;0.0577;-0.0160
0000411816;4.1132;-15.4857;0.2011;0.0903;0.0277;-0.0238
0000411829;4.1420;-15.5982;0.1389;0.0614;-0.0168;-0.0264
0000411838;4.0941;-15.5863;0.0766;0.0448;-0.0476;-0.0300
0000411850;4.1108;-15.6437;-0.1269;0.0365;-0.1019;-0.0409
0000411859;3.9433;-15.8233;-0.2011;0.0337;-0.1589;-0.0517
0000411872;3.9552;-15.6485;-0.2322;0.0019;-0.2292;-0.0458
0000411881;4.1611;-15.6317;-0.1604;-0.0358;-0.2797;-0.0444
0000411893;4.1037;-15.4354;-0.2873;-0.0773;-0.3496;-0.0372
0000411902;4.0582;-15.3684;-0.2298;-0.0906;-0.4030;-0.0425
0000411915;3.9025;-15.4426;-0.2370;-0.1061;-0.4827;-0.0509
0000411924;3.9456;-15.2678;-0.2849;-0.1147;-0.5424;-0.0666
0000411933;3.8595;-15.3157;-0.2562;-0.1318;-0.5998;-0.0714
0000411945;4.0725;-15.1361;-0.3543;-0.1408;-0.6628;-0.0741
0000411954;4.1611;-15.1433;-0.2705;-0.1266;-0.7147;-0.0778
0000411967;4.1635;-15.0907;-0.3136;-0.1017;-0.7679;-0.0633
0000411976;4.2210;-15.0380;-0.2059;-0.0753;-0.8115;-0.0549
0000411988;4.2090;-15.0619;-0.1628;-0.0541;-0.8611;-0.0209
0000411997;4.1803;-15.0308;-0.2107;-0.0382;-0.8900;0.0140
0000412066;5.2529;-14.1569;-0.2418;-0.2344;-0.8516;0.0179
0000412075;5.4324;-14.4275;-0.0144;-0.2662;-0.8140;-0.0064
0000412087;5.6790;-15.1242;0.0455;-0.2663;-0.7450;-0.0830
0000412096;5.6383;-15.7658;-0.0718;-0.2250;-0.7025;-0.1688
0000412109;5.9352;-16.3620;0.0192;-0.1359;-0.6229;-0.2900
0000412118;6.0454;-16.2590;0.0742;-0.0425;-0.5816;-0.3580
0000412130;5.9999;-15.5934;0.2969;0.0481;-0.5163;-0.3854
0000412139;6.1052;-14.7459;0.3591;0.0638;-0.4479;-0.3297
0000412148;5.9256;-14.0037;0.5124;0.0338;-0.3906;-0.2498
0000412161;6.1866;-12.9981;0.6057;-0.0546;-0.2607;-0.0851
0000412170;5.9161;-12.9431;0.4764;-0.1240;-0.1633;0.0032
0000412182;6.1651;-12.8401;0.1030;-0.2365;-0.0007;0.0546
0000412191;6.0885;-13.5703;0.0072;-0.3463;0.1159;-0.0071
0000412204;6.0047;-14.9374;0.0192;-0.4307;0.2609;-0.1470
0000412213;5.8945;-15.7467;-0.0694;-0.4112;0.3376;-0.2297
0000412225;5.6647;-15.9981;-0.1460;-0.3120;0.4143;-0.2741
0000412234;5.7844;-15.2582;-0.2993;-0.2260;0.4442;-0.2445
0000412247;5.6096;-13.7523;-0.5770;-0.1929;0.4906;-0.1214
0000412256;5.1930;-13.1011;-0.8045;-0.2245;0.5329;-0.0389
0000412265;5.0278;-12.5815;-0.8021;-0.2487;0.5702;0.0233
0000412277;5.0925;-12.3158;-0.8452;-0.2715;0.6226;0.0572
0000412286;4.9680;-12.4379;-0.7470;-0.2695;0.6603;0.0480
0000412355;7.3215;-18.3228;3.9169;0.4422;0.9366;0.2093
0000412364;7.8147;-19.1584;3.1747;0.3499;0.9896;0.2013
0000412376;8.1211;-19.2637;1.6209;0.1352;1.1095;0.1234
0000412385;7.6974;-18.6987;1.1756;-0.0061;1.2240;0.0747
0000412398;5.6503;-18.3180;1.8938;-0.1194;1.2873;0.0040
0000412407;3.9361;-18.3037;2.0255;-0.1054;1.2395;-0.0476
0000412416;2.8802;-18.7394;2.1165;-0.0398;1.1382;-0.0759
0000412428;2.4229;-19.8192;2.6360;0.0806;0.9759;-0.0778
0000412437;2.8587;-20.1735;1.9369;0.1254;0.8452;-0.0636
0000412450;3.9744;-20.1927;0.5052;0.0608;0.6559;-0.0909
0000412459;4.5969;-20.1568;0.2107;-0.1027;0.5534;-0.0634
0000412471;4.6304;-20.3507;0.0551;-0.3276;0.4347;0.0302
0000412480;4.1132;-20.7290;0.0192;-0.3604;0.3281;0.1023
0000412493;3.3758;-20.6644;0.1580;-0.2531;0.1844;0.1907
0000412502;3.0526;-20.1041;0.4597;-0.1939;0.1086;0.2045
0000412514;3.3830;-18.9549;0.7614;-0.2113;0.0298;0.1508
0000412523;3.8858;-18.2702;0.8428;-0.2815;0.0047;0.1104
0000412532;4.2880;-17.9254;0.8859;-0.3641;-0.0120;0.0638
0000412545;4.7142;-18.0188;0.6393;-0.4266;-0.0342;0.0203
0000412554;4.7884;-18.2773;0.4405;-0.4243;-0.0604;-0.0041
0000412566;5.1164;-18.2247;0.3711;-0.3888;-0.1006;-0.0193
0000412575;5.1763;-18.2534;0.3376;-0.3381;-0.1310;-0.0306
0000412644;5.1523;-15.6413;0.0311;-0.2698;-0.1576;-0.2441
0000412653;4.9129;-15.5910;-0.0311;-0.2805;-0.1516;-0.2431
0000412665;4.8866;-15.5815;-0.0215;-0.2638;-0.1583;-0.2422
0000412674;4.9009;-15.5886;-0.0790;-0.2510;-0.1689;-0.2340
0000412687;5.0039;-15.8065;-0.0383;-0.2208;-0.1653;-0.1851
0000412696;5.4205;-15.7778;-0.0048;-0.1929;-0.1696;-0.1545
0000412708;5.2984;-15.9071;0.1125;-0.1652;-0.1631;-0.0995
0000412717;5.3463;-15.9502;0.0838;-0.1415;-0.1655;-0.0767
0000412726;5.3151;-15.7969;0.0862;-0.1350;-0.1564;-0.0642
0000412739;5.5474;-15.6365;0.0958;-0.1334;-0.1519;-0.0819
0000412748;5.5330;-15.7586;0.0790;-0.1376;-0.1454;-0.1070
0000412760;5.6671;-15.7395;0.0072;-0.1428;-0.1478;-0.1615
0000412769;5.6575;-15.7443;-0.0335;-0.1344;-0.1555;-0.1994
0000412782;5.5043;-15.8305;0.0599;-0.1226;-0.1643;-0.2336
0000412791;5.6767;-15.7515;0.0694;-0.1128;-0.1691;-0.2394
0000412803;5.2385;-16.1728;-0.0311;-0.0801;-0.1875;-0.2285
0000412812;5.1787;-16.2854;-0.0646;-0.0524;-0.1960;-0.2036
0000412825;5.1715;-16.1465;-0.0287;0.0177;-0.2224;-0.1603
0000412834;4.9967;-16.1704;-0.0383;0.0709;-0.2450;-0.1343
0000412846;5.2888;-15.7850;0.0096;0.1299;-0.2658;-0.1071
0000412855;5.4253;-15.6892;0.0646;0.1576;-0.2751;-0.0942
0000412864;5.4660;-15.5408;0.1221;0.1739;-0.2778;-0.0789
0000412933;5.9185;-15.6509;-0.1628;0.0281;-0.2172;0.0173
0000412942;5.8993;-15.7802;-0.2682;0.0072;-0.2081;0.0317
0000412954;5.8682;-15.9334;-0.4645;0.0203;-0.1964;0.0528
0000412963;5.7102;-15.9669;-0.6393;0.0290;-0.1797;0.0546
0000412977;5.6024;-16.0220;-0.7518;0.0460;-0.1669;0.0364
0000412986;5.6288;-15.8400;-0.5866;0.0665;-0.1511;0.0280
0000412999;5.7628;-15.4785;-0.6369;0.1071;-0.1492;-0.0013
0000413008;5.6862;-15.3564;-0.6393;0.1023;-0.1424;-0.0029
0000413020;5.7628;-15.2295;-0.5411;0.0745;-0.1304;0.0001
0000413029;5.6192;-15.4618;-0.6393;0.0534;-0.1256;0.0025
0000413038;5.6527;-15.4498;-0.7757;0.0386;-0.1144;0.0031
0000413051;5.7724;-15.3636;-0.7302;0.0357;-0.1079;-0.0097
0000413060;5.7245;-15.3612;-0.6991;0.0385;-0.1046;-0.0302
0000413072;6.0262;-15.0691;-0.7829;0.0187;-0.0897;-0.0725
0000413081;6.2034;-14.8321;-0.7518;-0.0153;-0.0722;-0.1112
0000413094;6.5290;-14.3963;-0.7590;-0.0534;-0.0402;-0.1775
0000413103;6.5027;-14.3796;-0.7350;-0.0785;-0.0270;-0.2174
0000413115;6.6295;-14.0204;-0.9194;-0.1204;0.0159;-0.2369
0000413124;6.6224;-14.0611;-0.9553;-0.1547;0.0450;-0.2166
0000413193;6.5194;-14.8536;-1.0295;0.0296;0.2176;-0.0644
0000413202;6.4141;-14.8417;-0.9649;0.0525;0.2253;-0.0388
0000413211;6.3135;-14.7315;-1.0367;0.0802;0.2197;0.0145
0000413223;6.1675;-14.7626;-1.1253;0.0564;0.1965;0.1085
0000413232;6.0406;-14.9374;-1.1444;0.0136;0.1753;0.1857
0000413245;5.8347;-15.5863;-1.1492;-0.0061;0.1180;0.2597
0000413254;5.5976;-15.9861;-1.0247;0.0201;0.0576;0.2595
0000413266;5.0685;-16.3117;-0.9936;0.1240;-0.0402;0.2268
0000413275;4.7357;-16.4075;-0.9026;0.2414;-0.1246;0.1977
0000413288;4.8147;-16.0268;-0.5674;0.3998;-0.2414;0.1715
0000413297;4.8267;-15.5982;-0.3472;0.4743;-0.2996;0.1855
0000413309;5.3367;-15.0835;-0.1484;0.4915;-0.3552;0.2170
0000413318;5.5210;-14.6262;-0.1101;0.4587;-0.3733;0.2256
0000413327;5.8921;-13.9343;-0.2011;0.3810;-0.3904;0.2018
0000413340;5.9568;-13.3764;-0.2227;0.2088;-0.3818;0.1547
0000413349;6.2010;-13.2375;-0.4741;0.0961;-0.3889;0.0987
0000413361;6.2201;-13.1968;-0.4884;-0.0396;-0.4010;0.0622
0000413370;6.2728;-13.3716;-0.6416;-0.1180;-0.4130;0.0420
0000413383;6.3327;-13.7403;-0.6752;-0.2296;-0.4028;0.0510
0000413392;6.3782;-14.1330;-0.3831;-0.2769;-0.3813;0.0634
0000413404;6.3877;-14.6789;-0.0168;-0.2543;-0.3495;0.0694
0000413413;6.3207;-14.9518;0.3998;-0.2037;-0.3419;0.0424
0000413482;2.1356;-19.5678;1.9848;0.1013;-0.9799;-0.5590
0000413491;1.9178;-19.0267;1.1420;0.1422;-1.1181;-0.5191
0000413500;2.4181;-18.0595;0.9050;0.1877;-1.2468;-0.4251
0000413512;4.1994;-17.0539;1.2163;0.1607;-1.2977;-0.2140
0000413521;5.8993;-16.7427;1.1061;0.1045;-1.2594;-0.0440
0000413534;7.3694;-18.0643;2.0830;0.0589;-1.0764;0.1768
0000413543;7.7237;-19.4601;2.2410;0.0574;-0.9132;0.2378
0000413555;7.5250;-21.1863;0.6201;0.0396;-0.6658;0.1637
0000413564;7.3287;-22.2804;-0.1413;-0.0272;-0.4780;0.0229
0000413577;6.7612;-22.2326;-0.0479;-0.0750;-0.2046;-0.1102
0000413586;6.8211;-20.9948;-0.0215;-0.0266;-0.0425;-0.1116
0000413598;6.9791;-19.0147;0.5674;-0.0481;0.1356;-0.0586
0000413607;6.9049;-18.2965;0.5626;-0.1597;0.2613;0.0043
0000413616;6.6415;-18.0786;0.4262;-0.2805;0.3612;0.0488
0000413629;5.5952;-18.4473;0.3352;-0.3668;0.4719;0.1332
0000413638;4.7645;-18.8041;0.2753;-0.3702;0.5007;0.1677
0000413650;4.0510;-18.5024;0.2155;-0.3012;0.4619;0.1708
0000413659;3.9169;-18.1768;0.1532;-0.2479;0.4185;0.1584
0000413672;4.0079;-17.4896;0.1389;-0.1815;0.3254;0.1066
0000413681;4.0941;-17.0204;0.4310;-0.1549;0.2753;0.0805
0000413693;4.5873;-16.2040;0.5890;-0.1191;0.2088;0.0585
0000413702;4.7214;-15.7203;0.6273;-0.0981;0.1572;0.0493
0000413711;5.1811;-15.2894;0.6632;-0.0917;0.1202;0.0496
0000413780;6.0310;-15.3923;-0.0551;-0.0380;0.1652;-0.0049
0000413789;6.0478;-15.7874;-0.0814;-0.0144;0.2020;-0.0318
0000413801;5.8466;-16.2830;0.0263;0.0209;0.2625;-0.0629
0000413810;5.8993;-16.6565;0.0622;0.0458;0.3112;-0.0698
0000413823;5.8059;-16.6636;0.1891;0.0935;0.3604;-0.0925
0000413832;5.7317;-16.6014;0.3065;0.1268;0.3828;-0.0918
0000413844;5.3702;-16.3213;0.4717;0.1563;0.4130;-0.0855
0000413853;5.3630;-16.1202;0.3687;0.1713;0.4277;-0.0821
0000413866;5.4229;-15.6916;0.6943;0.1564;0.4467;-0.0549
0000413875;5.0015;-15.9406;0.8045;0.1380;0.4603;-0.0262
0000413884;5.0877;-15.8783;0.6608;0.1348;0.4619;-0.0032
0000413896;5.2313;-16.0986;0.5770;0.1311;0.4795;0.0324
0000413905;5.2672;-16.3404;0.5578;0.1346;0.5007;0.0512
0000413918;5.2816;-16.3739;0.5267;0.1515;0.5232;0.0685
0000413927;5.2768;-16.5176;0.4621;0.1811;0.5389;0.0803
0000413939;5.3271;-16.4051;0.3735;0.2240;0.5412;0.0838
0000413948;5.0996;-16.1824;0.4118;0.2550;0.5419;0.0817
0000413957;5.0829;-15.9478;0.3352;0.2643;0.5252;0.0809
0000413970;4.8267;-15.5288;0.3041;0.2411;0.5028;0.0853
0000413979;4.6232;-15.3325;0.4693;0.1747;0.4824;0.0975
0000413991;4.5681;-15.3277;0.3519;0.0877;0.4495;0.1071
0000414000;4.7357;-15.4354;0.2969;0.0389;0.4281;0.1212
0000414069;5.4181;-16.0531;-0.2490;0.1852;0.2366;0.0081
0000414078;5.3726;-15.9526;-0.2538;0.2033;0.2277;-0.0005
0000414090;5.2577;-15.8855;-0.1389;0.2170;0.2094;-0.0013
0000414099;5.3463;-15.7108;-0.0718;0.2336;0.1767;-0.0097
0000414108;4.9775;-15.7538;0.0311;0.2473;0.1446;-0.0172
0000414121;5.1284;-15.4282;0.0048;0.2625;0.0934;-0.0217
0000414130;5.0733;-15.1242;-0.0455;0.2539;0.0518;-0.0272
0000414142;5.0685;-14.7914;-0.0359;0.2365;0.0008;-0.0187
0000414151;4.9799;-14.7722;0.0215;0.1912;-0.0312;-0.0028
0000414164;4.8746;-14.9278;0.0024;0.1527;-0.0775;0.0163
0000414173;4.8985;-14.9685;-0.0694;0.1331;-0.0991;0.0330
0000414185;4.8937;-15.1529;-0.2490;0.1295;-0.1294;0.0381
0000414194;4.7860;-15.3037;-0.3041;0.1062;-0.1484;0.0298
0000414207;4.6112;-15.1050;-0.4405;0.0490;-0.1739;0.0052
0000414216;4.8507;-14.8488;-0.5171;-0.0088;-0.2021;-0.0276
0000414225;4.7884;-14.7531;-0.6393;-0.0807;-0.2188;-0.0421
0000414237;4.9775;-14.5639;-0.7087;-0.1637;-0.2513;-0.0640
0000414246;4.9991;-14.5831;-0.7685;-0.2128;-0.2659;-0.0733
0000414259;4.7597;-14.9207;-0.8045;-0.2529;-0.2996;-0.0810
0000414268;4.7381;-14.9015;-0.7087;-0.2627;-0.3171;-0.0774
0000414280;4.7501;-15.2152;-0.7590;-0.2599;-0.3271;-0.0779
0000414289;4.8985;-15.2559;-0.8236;-0.2495;-0.3352;-0.0774
0000414356;4.8722;-14.6118;-0.4381;-0.1859;-0.3248;-0.2282
0000414365;4.8459;-14.2958;-0.5890;-0.1968;-0.3292;-0.2334
0000414377;4.7788;-14.4993;-0.5914;-0.1877;-0.3309;-0.2537
0000414386;4.7405;-14.6789;-0.3424;-0.1785;-0.3199;-0.2730
0000414399;5.0829;-15.1266;-0.2490;-0.1482;-0.3036;-0.3107
0000414408;5.3415;-15.2630;-0.2682;-0.1228;-0.2793;-0.3349
0000414420;5.9304;-15.3684;-0.1867;-0.1110;-0.2454;-0.3557
0000414429;6.0837;-15.4234;-0.3663;-0.1003;-0.1994;-0.3604
0000414438;6.3758;-15.1361;-0.3496;-0.0809;-0.1605;-0.3635
0000414452;6.7947;-14.6477;-0.4956;-0.0663;-0.0606;-0.3636
0000414461;6.9264;-14.3293;-0.4453;-0.0743;0.0145;-0.3693
0000414474;6.7971;-14.2718;-0.6129;-0.1543;0.1368;-0.3501
0000414483;6.6319;-14.3149;-0.7111;-0.2046;0.2333;-0.3204
0000414495;6.2489;-14.5663;-0.8571;-0.2581;0.3477;-0.2882
0000414504;6.2273;-14.6405;-0.7709;-0.2705;0.4073;-0.2645
0000414517;6.0454;-14.7746;-0.8571;-0.2593;0.4619;-0.2328
0000414526;5.6240;-14.8967;-0.8308;-0.2356;0.4903;-0.2032
0000414538;5.5210;-14.3365;-0.8284;-0.1891;0.5003;-0.1503
0000414547;5.0709;-13.6948;-0.8691;-0.1242;0.4894;-0.1088
0000414560;4.4388;-12.9885;-0.8906;-0.0687;0.4563;-0.0405
0000414569;3.8355;-12.5313;-0.8452;-0.0608;0.4133;-0.0099
0000414578;3.4261;-12.4379;-0.2442;-0.0468;0.3523;0.0004
0000414647;6.2177;-15.7467;3.2417;0.4726;0.0474;0.2810
0000414656;7.7069;-15.7395;2.4397;0.1158;0.1601;0.2579
0000414669;8.6742;-16.9845;2.1380;-0.3968;0.3833;0.1187
0000414678;9.2751;-18.7490;2.2817;-0.6728;0.5557;0.0057
0000414690;9.7348;-22.1272;2.4205;-0.7161;0.7617;-0.0553
0000414699;10.3022;-24.6363;2.1835;-0.4590;0.9018;0.0365
0000414712;11.1570;-25.9436;-0.2801;-0.0088;1.0299;0.2337
0000414721;11.0014;-23.9707;-1.2450;0.3000;1.1024;0.2657
0000414733;7.5298;-20.3507;0.2011;0.4186;1.2203;0.0622
0000414742;5.3415;-18.3204;1.0750;0.2242;1.2269;-0.0982
0000414751;3.2848;-17.8560;1.0750;-0.0320;1.1615;-0.1827
0000414764;1.0630;-18.5096;0.6608;-0.2631;0.9527;-0.1531
0000414773;0.7973;-19.3763;0.6225;-0.3047;0.7418;-0.1144
0000414785;2.6240;-20.1113;0.8547;-0.2397;0.4277;-0.0953
0000414794;4.0606;-20.2238;0.7135;-0.1597;0.2627;-0.1035
0000414807;5.6695;-19.7498;0.5794;-0.0663;0.1611;-0.0829
0000414816;6.1746;-19.3619;0.4118;-0.0446;0.1231;-0.0659
0000414828;6.3901;-18.7945;0.2394;-0.0218;0.1270;-0.0432
0000414837;6.6463;-18.3731;0.5219;-0.0254;0.1697;-0.0521
0000414846;6.6559;-18.0547;0.4884;-0.0582;0.2197;-0.0576
0000414859;6.9216;-17.7650;0.2897;-0.1340;0.3127;-0.0911
0000414868;6.6726;-17.6836;-0.1532;-0.1693;0.3496;-0.1202
0000414937;3.8666;-15.5432;0.0646;0.1957;-0.0336;-0.1027
0000414946;4.1252;-15.2606;0.0982;0.1696;-0.1156;-0.1066
0000414959;4.6615;-15.2056;0.1508;0.1222;-0.2060;-0.0973
0000414968;5.1643;-15.2870;0.1604;0.0994;-0.2478;-0.0829
0000414980;5.6455;-15.4474;0.0766;0.0947;-0.2795;-0.0622
0000414989;5.9568;-15.8017;0.1413;0.0978;-0.2874;-0.0349
0000415002;6.5290;-15.9238;0.1604;0.1039;-0.2738;-0.0031
0000415011;6.6272;-16.0747;0.2370;0.1010;-0.2465;0.0097
0000415020;6.7421;-16.0914;0.3328;0.1094;-0.2102;0.0000
0000415032;6.7109;-16.0196;0.3017;0.1128;-0.1500;-0.0321
0000415041;7.0437;-15.5551;0.1604;0.1058;-0.1182;-0.0734
0000415054;6.4596;-15.5719;0.2729;0.0570;-0.0721;-0.1314
0000415063;6.2345;-15.4929;0.2035;0.0145;-0.0593;-0.1611
0000415075;5.7964;-15.5671;0.0718;-0.0256;-0.0713;-0.1973
0000415084;5.4157;-15.6916;-0.0958;-0.0472;-0.0961;-0.1993
0000415097;5.2050;-15.8712;-0.1820;-0.0530;-0.1653;-0.1888
0000415106;4.9919;-16.0507;-0.1125;-0.0464;-0.2161;-0.1709
0000415118;5.2936;-15.7299;-0.2298;-0.0436;-0.2779;-0.1364
0000415127;5.4779;-15.5767;-0.3208;-0.0458;-0.3192;-0.1178
0000415140;5.9424;-15.4426;-0.2634;-0.0667;-0.3451;-0.0969
0000415149;6.3279;-15.4234;-0.2131;-0.0715;-0.3364;-0.0773
0000415158;6.5745;-15.3971;-0.1796;-0.0853;-0.3079;-0.0703
0000415227;6.0885;-16.1034;-0.3855;-0.0934;-0.0659;-0.1186
0000415236;5.9328;-15.9095;-0.2801;-0.0821;-0.0675;-0.1054
0000415249;5.6838;-15.7323;-0.2442;-0.0592;-0.0905;-0.0890
0000415258;5.7628;-15.6988;-0.3065;-0.0401;-0.1127;-0.0791
0000415270;5.8466;-15.5479;-0.2777;-0.0081;-0.1355;-0.0640
0000415279;6.1196;-15.5192;-0.2370;0.0421;-0.1440;-0.0433
0000415292;6.0406;-15.4450;-0.1772;0.1047;-0.1567;-0.0277
0000415301;6.2824;-15.3684;-0.1772;0.1292;-0.1458;-0.0116
0000415313;6.3039;-15.4809;-0.2466;0.1252;-0.1226;-0.0069
0000415322;6.4715;-15.5312;-0.1676;0.1230;-0.1029;-0.0017
0000415335;6.3758;-15.5432;-0.2682;0.1131;-0.0925;-0.0097
0000415344;6.2058;-15.6437;-0.2945;0.0914;-0.0725;-0.0043
0000415356;6.2321;-15.3875;-0.3615;0.0392;-0.0610;-0.0067
0000415365;6.4811;-15.1744;-0.4070;-0.0016;-0.0600;-0.0133
0000415374;6.2082;-15.1146;-0.4597;-0.0506;-0.0452;-0.0048
0000415387;6.3351;-14.8871;-0.4693;-0.0993;-0.0378;0.0148
0000415396;6.2082;-14.7459;-0.5148;-0.1339;-0.0262;0.0370
0000415408;6.7062;-14.3149;-0.8356;-0.1753;-0.0052;0.0889
0000415417;6.7708;-14.2551;-0.9433;-0.1916;0.0148;0.1195
0000415430;7.2640;-14.0875;-1.0918;-0.2010;0.0722;0.1845
0000415439;7.1802;-14.1066;-1.1301;-0.2009;0.1077;0.2145
0000415508;6.7157;-14.7291;-0.8021;0.0063;0.2726;0.2330
0000415517;6.3518;-15.0978;-0.6919;0.0248;0.2734;0.2093
0000415530;5.7892;-15.7491;-0.4238;0.1206;0.2475;0.2157
0000415539;5.7964;-15.9693;-0.3783;0.1796;0.2016;0.2248
0000415548;5.7940;-16.2064;-0.4166;0.2357;0.1704;0.2619
0000415560;5.7844;-16.0986;-0.3472;0.2868;0.1200;0.2799
0000415569;6.0717;-15.5815;-0.2753;0.2951;0.0889;0.2907
0000415582;6.4117;-14.8441;-0.1820;0.2334;0.0506;0.2934
0000415591;6.3231;-14.9422;-0.1748;0.1512;0.0262;0.3044
0000415603;6.3375;-15.0787;-0.1963;0.0165;-0.0057;0.3142
0000415612;6.3183;-15.7323;-0.2251;-0.0811;-0.0067;0.3227
0000415625;6.2369;-16.3787;-0.2155;-0.1563;-0.0132;0.3163
0000415634;5.8610;-16.8217;-0.2610;-0.1338;-0.0340;0.2799
0000415643;5.4468;-16.9414;-0.2682;-0.0670;-0.0540;0.2366
0000415655;5.3271;-16.2494;-0.4381;0.0726;-0.0957;0.1591
0000415664;5.4253;-15.6700;-0.5842;0.1653;-0.1346;0.0974
0000415677;5.8323;-14.6812;-0.5483;0.2052;-0.1913;0.0274
0000415686;6.3207;-13.8648;-0.5459;0.1669;-0.2193;0.0056
0000415698;6.9480;-13.6278;-0.6416;0.0632;-0.2394;0.0276
0000415707;7.1156;-13.4602;-0.5507;-0.0059;-0.2585;0.0667
0000415720;6.8091;-13.9941;-0.2298;-0.0851;-0.2505;0.1567
0000415729;6.4620;-14.5496;0.1748;-0.1063;-0.2473;0.2076
0000415798;4.4867;-16.6924;1.2665;-0.2345;-0.6376;-0.3536
0000415807;4.7621;-16.5008;1.1301;-0.3028;-0.7288;-0.3838
0000415820;5.1140;-16.3620;1.0223;-0.3726;-0.8087;-0.3323
0000415829;5.1308;-16.5727;1.2474;-0.3424;-0.8318;-0.2330
0000415838;5.1475;-16.5535;1.6783;-0.2777;-0.8364;-0.1035
0000415850;5.1188;-16.5607;2.0782;-0.1679;-0.8339;0.0284
0000415859;5.0757;-16.6325;2.1261;-0.1051;-0.8058;0.0807
0000415873;5.1260;-16.9390;1.7621;-0.0998;-0.7593;0.0741
0000415882;5.3343;-17.6141;1.7310;-0.1624;-0.6768;0.0454
0000415895;5.4181;-19.6229;1.2929;-0.3195;-0.5641;-0.0116
0000415904;5.6767;-21.1528;0.4932;-0.4390;-0.4762;-0.0489
0000415916;5.7269;-23.0490;-0.6536;-0.5033;-0.3499;-0.0682
0000415925;5.8993;-23.3243;-1.1277;-0.4093;-0.2517;-0.0250
0000415938;5.8442;-21.4832;-0.6512;-0.1383;-0.0846;0.0925
0000415947;5.7581;-19.4888;-0.1676;-0.0662;0.0264;0.1456
0000415956;5.8897;-17.9517;-0.1101;-0.1242;0.1518;0.1997
0000415968;5.5689;-17.1880;-0.1724;-0.2725;0.3179;0.2543
0000415977;5.4803;-17.1138;-0.2035;-0.3581;0.4298;0.2834
0000415990;4.9033;-17.5471;-0.3472;-0.3856;0.5060;0.2847
0000415999;4.6807;-17.6548;-0.4956;-0.3425;0.5337;0.2726
0000416011;4.3383;-17.9086;-0.5291;-0.2144;0.5029;0.2342
0000416020;4.0318;-17.9517;-0.4022;-0.0934;0.4591;0.2006
0000416089;4.7764;-14.9446;0.3926;0.3038;0.1494;0.2132
0000416098;4.7190;-15.1792;0.3687;0.3058;0.1737;0.1787
0000416110;5.3439;-14.9422;0.2322;0.3068;0.2185;0.1119
0000416119;5.5450;-15.0356;0.1484;0.2959;0.2669;0.0612
0000416128;5.7557;-14.8991;-0.0527;0.2884;0.3126;0.0161
0000416141;5.9065;-15.0356;-0.1844;0.2438;0.3884;-0.0245
0000416150;5.8227;-15.0930;-0.1604;0.2228;0.4197;-0.0300
0000416162;5.4636;-15.3229;-0.0814;0.2109;0.4566;-0.0257
0000416171;5.4348;-15.2989;-0.0455;0.2022;0.4642;-0.0123
0000416184;4.6064;-15.8951;-0.0718;0.1885;0.4574;0.0100
0000416193;4.3000;-15.9574;-0.1341;0.1812;0.4367;0.0097
0000416205;3.9217;-16.2854;0.0168;0.1832;0.3890;0.0112
0000416214;3.7661;-16.3596;-0.0575;0.1761;0.3411;-0.0063
0000416223;3.9935;-16.1058;-0.0694;0.1797;0.2810;-0.0111
0000416236;3.8978;-15.9214;-0.1556;0.1648;0.1937;-0.0238
0000416245;3.9049;-15.5695;-0.1197;0.1484;0.1379;-0.0160
0000416257;4.1707;-15.3253;-0.1844;0.1244;0.0711;-0.0036
0000416266;4.3455;-15.3971;-0.1389;0.1108;0.0320;0.0101
0000416279;4.7621;-15.4785;-0.1245;0.1053;0.0068;0.0294
0000416288;4.8530;-15.7634;-0.1508;0.1127;0.0027;0.0330
0000416300;5.0518;-15.8185;-0.2849;0.1228;0.0107;0.0302
0000416309;5.1715;-15.8233;-0.3855;0.1227;0.0191;0.0284
0000416318;5.0949;-15.8951;-0.4764;0.1276;0.0148;0.0196
0000416387;4.1683;-14.8608;-0.4645;0.1973;-0.3034;0.0606
0000416396;4.0079;-14.8943;-0.5770;0.1191;-0.3568;0.0494
0000416408;4.0366;-14.8608;-0.7949;0.0354;-0.4190;0.0211
0000416417;4.4101;-14.8680;-0.9816;0.0121;-0.4666;0.0015
0000416430;4.7070;-14.9470;-1.0487;0.0100;-0.5002;-0.0183
0000416439;4.9536;-14.9470;-0.9026;0.0183;-0.5073;-0.0361
0000416451;5.2002;-14.9638;-0.9361;0.0288;-0.5215;-0.0613
0000416460;5.5689;-14.7938;-0.9529;0.0362;-0.5221;-0.0866
0000416473;5.4803;-14.6381;-0.9122;0.0169;-0.5125;-0.1118
0000416482;5.6144;-14.4921;-1.0319;-0.0201;-0.4990;-0.1278
0000416494;5.5952;-14.2982;-1.1205;-0.0580;-0.4731;-0.1647
0000416503;5.4971;-14.2311;-1.1133;-0.0855;-0.4575;-0.1986
0000416512;5.2625;-14.3748;-1.2498;-0.1282;-0.4450;-0.2499
0000416525;5.3774;-14.4466;-1.3336;-0.1859;-0.4209;-0.3190
0000416534;5.3032;-14.6932;-1.2354;-0.2172;-0.4169;-0.3587
0000416546;5.4540;-14.9925;-1.0032;-0.2053;-0.3936;-0.3948
0000416555;5.2960;-15.0332;-0.8739;-0.1104;-0.3817;-0.4173
0000416568;5.5641;-14.8417;-0.5339;-0.0055;-0.3492;-0.3643
0000416577;5.5857;-14.5424;-0.5100;0.0524;-0.3163;-0.3164
0000416589;6.0286;-14.0803;-0.3950;0.0714;-0.2570;-0.2762
0000416598;6.2321;-14.0252;-0.2753;0.0400;-0.2013;-0.2778
0000416667;6.9528;-15.3420;-0.4597;-0.0161;0.3945;-0.3473
0000416676;6.7780;-14.9853;-0.5315;0.0294;0.4415;-0.3174
0000416688;6.2465;-14.6310;-0.6009;0.0682;0.4942;-0.3170
0000416697;6.0310;-14.5496;-0.5459;0.0758;0.5081;-0.3299
0000416706;5.5474;-14.7219;-0.6225;0.0440;0.5091;-0.3357
0000416719;4.9225;-14.9973;-0.7901;0.0309;0.4811;-0.3389
0000416728;5.0206;-15.1912;-0.8643;0.0632;0.4494;-0.3044
0000416740;5.0302;-15.1002;-1.1756;0.1684;0.4021;-0.2394
0000416749;5.3941;-14.6094;-1.3455;0.2561;0.3780;-0.1989
0000416762;5.2601;-13.9582;-1.3623;0.3086;0.3607;-0.1711
0000416771;5.4085;-13.7427;-0.8021;0.2882;0.3660;-0.1657
0000416783;5.5091;-13.7954;0.0263;0.2352;0.3852;-0.1406
0000416792;5.5665;-14.4299;0.8978;0.2342;0.4225;-0.0738
0000416805;5.9209;-15.1433;1.8100;0.2217;0.4770;0.0807
0000416814;6.1004;-16.2231;2.1739;0.2654;0.5461;0.2045
0000416823;6.6607;-17.1880;2.5857;0.3463;0.6784;0.3415
0000416835;7.1347;-17.9685;2.9257;0.4241;0.8307;0.4918
0000416844;7.4579;-18.1648;2.5690;0.3504;0.9309;0.5011
0000416857;6.8809;-17.9134;1.6640;0.0809;1.0647;0.2896
0000416866;5.9711;-17.6668;1.4341;-0.0977;1.1419;0.0802
0000416878;4.5921;-17.8153;1.8866;-0.2441;1.1776;-0.1664
0000416887;3.9840;-18.2606;2.1620;-0.2838;1.1321;-0.2617
0000416956;6.3303;-21.1983;0.4908;-0.1055;0.3461;0.0685
0000416965;6.5745;-20.4824;0.5411;-0.1219;0.3456;0.0266
0000416974;6.6104;-19.6109;0.9457;-0.1458;0.3753;-0.0358
0000416986;6.2704;-18.3923;1.0630;-0.2272;0.4124;-0.0897
0000416995;5.7126;-18.0116;0.9936;-0.3419;0.4249;-0.1069
0000417008;5.2936;-18.1744;0.8428;-0.4904;0.4068;-0.1243
0000417017;4.9249;-18.2079;0.6177;-0.4822;0.3937;-0.1158
0000417029;4.6878;-18.0307;0.6967;-0.4315;0.3672;-0.1203
0000417038;4.5945;-17.9326;0.5626;-0.3928;0.3276;-0.1234
0000417051;4.6591;-17.5615;0.4357;-0.3296;0.2746;-0.1375
0000417060;4.8100;-17.4442;0.4788;-0.2757;0.2382;-0.1619
0000417069;5.1020;-17.2406;0.4764;-0.2136;0.2122;-0.1812
0000417081;5.3056;-16.9940;0.5531;-0.1252;0.1745;-0.2024
0000417090;5.4660;-16.6852;0.5578;-0.0690;0.1506;-0.2104
0000417103;5.8658;-16.2064;0.6129;-0.0228;0.1216;-0.1982
0000417112;5.7964;-15.9621;0.6033;-0.0132;0.0985;-0.1891
0000417126;6.0238;-15.6054;0.5315;-0.0265;0.0819;-0.1518
0000417135;5.9017;-15.5599;0.2490;-0.0289;0.0694;-0.1486
0000417204;5.3798;-15.8496;-0.0718;0.0979;-0.0793;-0.0517
0000417213;5.4755;-15.7467;-0.0239;0.0866;-0.0954;-0.0286
0000417225;5.3893;-15.7299;-0.2011;0.0613;-0.1248;-0.0029
0000417234;5.6479;-15.5671;-0.0359;0.0552;-0.1464;0.0080
0000417243;5.6264;-15.5671;-0.1628;0.0469;-0.1655;0.0163
0000417256;5.8466;-15.6270;-0.2298;0.0253;-0.1788;0.0429
0000417265;6.1220;-15.5910;-0.2538;0.0152;-0.1880;0.0466
0000417277;5.8969;-15.9214;-0.1628;0.0124;-0.2100;0.0442
0000417286;6.1723;-15.7682;-0.2753;0.0216;-0.2225;0.0430
0000417299;5.9017;-15.9478;-0.1580;0.0368;-0.2497;0.0386
0000417308;5.7341;-15.9262;-0.0862;0.0532;-0.2755;0.0277
0000417320;5.7293;-15.7515;-0.2251;0.0606;-0.3006;0.0422
0000417329;5.7437;-15.8017;-0.2466;0.0694;-0.3178;0.0481
0000417343;5.6455;-15.7658;-0.1939;0.0786;-0.3457;0.0741
0000417352;5.6000;-15.7778;-0.1221;0.0877;-0.3519;0.0887
0000417361;5.7844;-15.6820;-0.2011;0.0850;-0.3547;0.0989
0000417374;5.8275;-15.8496;-0.1844;0.0769;-0.3493;0.1009
0000417383;6.0454;-15.8305;-0.1484;0.0614;-0.3244;0.0890
0000417395;6.1938;-15.9621;-0.2490;0.0589;-0.2904;0.0766
0000417404;6.5098;-15.8448;-0.2825;0.0742;-0.2582;0.0589
0000417417;6.6415;-15.9669;-0.2969;0.0927;-0.1908;0.0368
0000417426;6.8498;-15.7850;-0.4118;0.1022;-0.1294;0.0233
0000417495;6.0382;-14.4251;-0.5291;0.0157;0.1640;-0.0353
0000417504;5.8275;-14.3628;-0.6608;-0.0115;0.1717;-0.0422
0000417517;6.1172;-14.0276;-0.7542;-0.0494;0.1759;-0.0590
0000417526;5.9400;-14.1354;-0.6345;-0.0464;0.1704;-0.0843
0000417535;5.9664;-14.0396;-0.5531;-0.0152;0.1691;-0.0978
0000417547;6.0837;-13.9989;-0.6081;0.0442;0.1647;-0.1096
0000417556;6.5841;-13.7331;-0.6584;0.0839;0.1717;-0.1083
0000417569;6.8354;-13.7451;-0.6393;0.1242;0.1907;-0.0917
0000417578;7.2688;-13.5129;-0.6464;0.1398;0.2101;-0.0630
0000417590;7.3478;-13.6158;-0.6752;0.1382;0.2455;-0.0119
0000417599;7.5633;-13.6661;-0.6728;0.1119;0.2854;0.0356
0000417612;7.4220;-13.9199;-0.5459;0.1218;0.3044;0.0954
0000417621;6.9791;-14.3796;-0.3759;0.1242;0.3175;0.1432
0000417633;6.6894;-14.8824;-0.3280;0.1359;0.3215;0.2008
0000417642;6.2489;-15.7371;-0.1867;0.1487;0.3082;0.2423
0000417651;6.2393;-16.1273;-0.1197;0.1797;0.2966;0.2972
0000417664;6.2058;-16.3309;0.1508;0.2374;0.2689;0.3840
0000417673;6.0789;-16.3572;0.1293;0.2502;0.2497;0.4198
0000417685;6.1004;-15.7443;0.0862;0.2406;0.2064;0.4159
0000417694;5.7293;-15.4594;0.2897;0.2344;0.1729;0.3838
0000417707;5.7126;-14.8560;0.3974;0.1939;0.1247;0.3301
0000417716;5.6072;-14.7746;0.2490;0.1328;0.0873;0.3032
0000417725;5.6336;-14.8776;0.1700;0.0770;0.0516;0.2870
0000417794;6.5146;-14.8704;-1.0104;0.3393;-0.1316;0.3429
0000417803;6.7253;-14.2958;-0.9481;0.3431;-0.1531;0.3168
0000417816;6.4979;-13.8265;-0.5195;0.3144;-0.1687;0.2830
0000417825;6.5625;-13.4841;0.2107;0.2994;-0.1588;0.2791
0000417837;5.7772;-14.1234;1.3192;0.3111;-0.1553;0.2809
0000417846;4.9823;-14.8824;2.1476;0.3487;-0.1820;0.2438
0000417859;3.4381;-16.8145;3.5075;0.4076;-0.2707;0.1246
0000417868;2.1620;-18.1552;4.3335;0.4209;-0.3587;-0.0059
0000417880;0.4908;-20.1304;4.6112;0.2709;-0.5335;-0.2184
0000417889;-0.7254;-20.5542;3.1292;0.1135;-0.7397;-0.3464
0000417898;-1.2282;-19.7737;1.2282;0.0276;-0.9834;-0.4056
0000417911;1.2402;-17.6213;1.0582;-0.0851;-1.3206;-0.2677
0000417920;3.4836;-17.7674;2.7725;-0.1760;-1.4502;-0.0874
0000417932;5.0326;-20.2549;3.5075;-0.2687;-1.4702;0.0294
0000417941;5.5617;-21.9692;1.2761;-0.2912;-1.4345;-0.0352
0000417954;6.7995;-23.5135;0.0742;-0.2828;-1.3604;-0.1865
0000417963;7.1539;-22.6707;0.6009;-0.1050;-1.2183;-0.1371
0000417975;7.4579;-20.0562;1.2330;0.1138;-1.0063;0.0794
0000417984;7.9176;-18.2606;1.3096;0.0573;-0.8775;0.1982
0000417997;8.2839;-17.2239;1.0822;-0.1374;-0.6550;0.2642
0000418006;8.2696;-17.1736;1.0582;-0.2045;-0.4510;0.2511
0000418015;7.4915;-17.5471;1.1851;-0.1844;-0.2527;0.2136
0000418084;3.4788;-15.6916;1.3312;-0.1544;-0.0179;0.0179
0000418093;3.4429;-15.4977;1.3192;-0.1411;-0.0939;0.0528
0000418106;3.7350;-15.2152;1.3312;-0.1211;-0.1947;0.1026
0000418115;4.1204;-14.9542;1.3767;-0.1226;-0.2413;0.1330
0000418127;4.6136;-14.9614;1.3958;-0.1362;-0.2988;0.1551
0000418136;5.2265;-14.9590;1.1109;-0.1318;-0.3296;0.1560
0000418149;5.6144;-14.9422;1.0080;-0.1096;-0.3158;0.1573
0000418158;5.8706;-14.6717;0.9457;-0.1005;-0.2894;0.1408
0000418170;5.8323;-14.7363;0.9385;-0.1094;-0.2162;0.1172
0000418179;5.4468;-14.9159;1.0487;-0.1183;-0.1612;0.0998
0000418188;5.4205;-14.9183;1.1468;-0.1262;-0.1071;0.0885
0000418201;4.9033;-15.3708;1.1756;-0.1246;-0.0602;0.0576
0000418210;4.5801;-15.6389;1.2282;-0.1019;-0.0581;0.0345
0000418222;4.3479;-15.9143;1.1516;-0.0867;-0.0785;0.0196
0000418231;4.0055;-15.9597;1.1516;-0.0693;-0.1168;0.0024
0000418244;3.9552;-15.9238;1.0151;-0.0686;-0.1869;-0.0032
0000418253;4.2713;-15.8257;0.9792;-0.0787;-0.2485;-0.0145
0000418265;4.1611;-15.9861;0.9840;-0.1023;-0.3114;0.0119
0000418274;4.8004;-15.7730;0.9313;-0.1179;-0.3463;0.0298
0000418287;4.9297;-15.9933;0.9744;-0.1304;-0.3773;0.0576
0000418296;4.9488;-16.0459;0.9122;-0.1330;-0.3862;0.0655
0000418305;5.1882;-15.9669;0.8691;-0.1344;-0.3794;0.0750
0000418374;5.0973;-16.0651;0.4214;-0.1428;-0.2309;0.0306
0000418383;5.0733;-16.1968;0.4717;-0.1111;-0.2342;0.0316
0000418396;4.6304;-16.1992;0.4094;-0.0683;-0.2526;0.0561
0000418405;4.5155;-16.1202;0.4788;-0.0440;-0.2794;0.0669
0000418417;4.0941;-16.2423;0.5195;-0.0073;-0.3300;0.0837
0000418426;3.8020;-16.3069;0.5890;0.0165;-0.3693;0.0915
0000418439;4.1037;-16.0340;0.4908;0.0361;-0.4025;0.1066
0000418448;4.0486;-16.2279;0.5363;0.0552;-0.4315;0.1018
0000418457;4.5753;-16.0555;0.4884;0.0694;-0.4415;0.0939
0000418469;4.8866;-16.2064;0.4549;0.0826;-0.4477;0.0711
0000418478;4.8698;-16.2207;0.4142;0.0969;-0.4329;0.0522
0000418491;5.0685;-16.0771;0.3184;0.1198;-0.4210;0.0268
0000418500;5.2385;-15.9190;0.4142;0.1184;-0.3996;0.0167
0000418512;5.0182;-15.8305;0.4166;0.1148;-0.3753;-0.0027
0000418521;5.0613;-15.6078;0.4310;0.1062;-0.3675;-0.0153
0000418534;4.9488;-15.5312;0.3448;0.0834;-0.3628;-0.0019
0000418543;4.9440;-15.4905;0.4669;0.0722;-0.3524;0.0145
0000418555;4.7166;-15.5767;0.3711;0.0560;-0.3528;0.0326
0000418564;4.8722;-15.5336;0.2490;0.0324;-0.3531;0.0390
0000418573;4.6591;-15.6844;0.3136;0.0183;-0.3635;0.0484
0000418586;4.5945;-15.6653;0.2251;-0.0129;-0.3758;0.0469
0000418595;4.4365;-15.9047;0.2849;-0.0176;-0.3908;0.0424
0000418664;4.3215;-15.5815;0.2801;-0.1315;-0.5518;-0.0153
0000418673;4.3551;-15.6557;0.1149;-0.1282;-0.5829;-0.0257
0000418686;4.4604;-15.8305;0.0646;-0.1098;-0.6031;-0.0240
0000418695;4.6807;-15.7419;-0.0096;-0.1134;-0.6169;-0.0294
0000418707;4.6543;-15.9214;0.0239;-0.1030;-0.6221;-0.0309
0000418716;4.9057;-15.7467;0.0503;-0.1045;-0.6114;-0.0284
0000418729;4.9895;-15.6964;-0.1437;-0.1198;-0.6187;-0.0390
0000418738;4.9129;-15.9047;-0.1149;-0.1512;-0.6117;-0.0380
0000418747;5.1212;-15.6270;-0.0862;-0.1671;-0.6139;-0.0476
0000418759;4.8842;-15.7850;0.0383;-0.1868;-0.6086;-0.0458
0000418768;4.6735;-15.9310;0.0694;-0.2025;-0.6018;-0.0468
0000418781;4.7980;-16.0244;0.1915;-0.2185;-0.6017;-0.0502
0000418790;4.5490;-16.3644;0.3496;-0.2308;-0.5939;-0.0390
0000418801;5.0805;-16.5248;0.2753;-0.2292;-0.5781;-0.0096
0000418810;5.0111;-16.8959;0.2298;-0.2264;-0.5661;0.0113
0000418824;5.1619;-17.2023;0.1149;-0.2248;-0.5128;0.0598
0000418833;5.3271;-17.0228;0.2035;-0.2060;-0.4924;0.0742
0000418846;5.5402;-16.7642;0.3112;-0.1969;-0.4346;0.0885
0000418855;5.6455;-16.4793;0.3328;-0.1931;-0.4004;0.0965
0000418867;5.5210;-16.5463;0.5555;-0.1939;-0.3277;0.1107
0000418876;5.6240;-16.3716;0.4238;-0.1972;-0.2709;0.1300
0000418885;5.4181;-16.4290;0.3496;-0.2001;-0.2172;0.1303
0000418954;4.6998;-15.8041;0.3424;-0.1777;-0.0312;0.0385
0000418963;4.7692;-15.4689;0.3926;-0.1808;-0.0338;0.0221
0000418975;4.4029;-15.5408;0.5578;-0.1893;-0.0640;0.0117
0000418984;4.3574;-15.4426;0.5866;-0.1961;-0.0965;0.0007
0000418997;4.5083;-15.2870;0.6584;-0.2068;-0.1422;-0.0031
0000419006;4.4556;-15.6485;0.8332;-0.1960;-0.1869;-0.0112
0000419018;4.8602;-15.5839;1.0199;-0.1831;-0.2378;-0.0180
0000419027;4.7908;-15.8807;1.0319;-0.1689;-0.2685;-0.0051
0000419040;5.3606;-15.9597;1.0534;-0.1340;-0.3023;0.0108
0000419049;5.2529;-16.2806;1.0822;-0.1074;-0.3283;0.0180
0000419058;5.4708;-16.4362;1.2378;-0.0839;-0.3391;0.0298
0000419070;5.3439;-16.6373;1.3503;-0.0466;-0.3536;0.0472
0000419079;5.2720;-16.5703;1.3360;-0.0196;-0.3718;0.0472
0000419092;5.2816;-16.4745;1.3743;-0.0028;-0.3796;0.0522
0000419101;5.1523;-16.3835;1.3791;0.0040;-0.3781;0.0514
0000419113;5.2481;-16.0364;1.4293;0.0107;-0.3793;0.0529
0000419122;5.3582;-15.8831;1.5658;0.0161;-0.3812;0.0566
0000419135;5.0949;-16.0388;1.5682;0.0072;-0.3829;0.0465
0000419144;4.8722;-16.2878;1.4485;0.0136;-0.3918;0.0440
0000419153;5.1763;-16.2949;1.5730;0.0350;-0.3970;0.0226
0000419165;5.2122;-16.6253;1.5323;0.0592;-0.4022;-0.0060
0000419174;5.4444;-16.7977;1.3838;0.0823;-0.4133;-0.0352
0000419241;6.4859;-16.0795;1.1756;0.0176;-0.2316;-0.2290
0000419250;6.3662;-15.9286;1.1588;-0.0092;-0.1948;-0.2482
0000419262;6.2034;-15.8760;1.0678;-0.0362;-0.1523;-0.2738
0000419271;5.8035;-16.0962;1.0774;-0.0667;-0.1279;-0.2935
0000419284;5.7772;-16.1561;0.9816;-0.0905;-0.1059;-0.3127
0000419293;5.7868;-16.2997;0.7877;-0.0895;-0.1046;-0.3327
0000419305;5.8730;-16.0555;0.9002;-0.0871;-0.1140;-0.3453
0000419314;5.5617;-16.2758;0.8547;-0.0801;-0.1176;-0.3388
0000419327;5.6024;-16.1537;0.8859;-0.0408;-0.1515;-0.3377
0000419336;5.7365;-15.9669;1.0295;-0.0072;-0.1817;-0.3277
0000419345;5.6982;-15.8951;0.9577;0.0073;-0.2030;-0.3127
0000419357;5.4875;-15.9430;1.0127;0.0286;-0.2333;-0.2864
0000419366;5.6024;-15.6868;0.9673;0.0413;-0.2602;-0.2727
0000419379;5.5138;-15.6461;1.0223;0.0240;-0.2922;-0.2451
0000419388;5.8826;-15.2870;1.0391;0.0148;-0.3155;-0.2409
0000419400;5.8730;-15.3780;1.0032;-0.0001;-0.3191;-0.2308
0000419409;6.0765;-15.2511;1.1037;-0.0238;-0.3132;-0.2213
0000419422;6.2249;-15.4785;1.0032;-0.0606;-0.3132;-0.2280
0000419431;6.1914;-15.4689;1.0630;-0.0874;-0.3023;-0.2274
0000419443;6.3614;-15.6724;0.9840;-0.1348;-0.2762;-0.2316
0000419452;6.4955;-15.5575;0.9433;-0.1755;-0.2518;-0.2280
0000419461;6.5529;-15.5934;0.8068;-0.2152;-0.2232;-0.2224
0000419530;6.3255;-16.0076;0.1460;-0.2942;0.0765;-0.0238
0000419539;6.3159;-16.0340;0.1820;-0.2698;0.0871;-0.0111
0000419551;6.2130;-16.3692;0.1915;-0.2378;0.0881;0.0019
0000419560;6.0717;-16.6134;0.1484;-0.2194;0.0923;0.0148
0000419573;6.2225;-16.3787;0.2179;-0.1907;0.0963;0.0289
0000419582;6.1316;-16.2710;0.1460;-0.1928;0.1085;0.0405
0000419594;6.1004;-16.2854;0.2825;-0.1845;0.1266;0.0576
0000419603;5.9376;-16.2997;0.4645;-0.1855;0.1358;0.0550
0000419616;5.9687;-16.5320;0.7757;-0.1625;0.1383;0.0440
0000419625;5.9975;-16.4913;0.8260;-0.1535;0.1358;0.0360
0000419634;5.8323;-16.6996;0.8763;-0.1371;0.1223;0.0107
0000419646;5.5569;-16.7594;0.9002;-0.1444;0.1017;-0.0193
0000419655;5.2864;-16.8528;0.8859;-0.1506;0.0650;-0.0573
0000419668;5.4947;-16.6445;0.8140;-0.1688;0.0265;-0.0919
0000419677;5.3678;-16.5224;0.7446;-0.1703;-0.0079;-0.1123
0000419689;5.3606;-16.0986;0.6416;-0.1595;-0.0438;-0.1214
0000419698;5.4731;-16.0172;0.6201;-0.1342;-0.0767;-0.1219
0000419711;5.6240;-15.9047;0.5626;-0.1026;-0.1038;-0.1007
0000419720;5.6695;-15.8951;0.6057;-0.0813;-0.1198;-0.0914
0000419732;5.6695;-15.9143;0.4597;-0.0528;-0.1324;-0.0759
0000419741;5.6144;-16.0627;0.4669;-0.0285;-0.1372;-0.0645
0000419750;5.9137;-15.8448;0.4190;-0.0057;-0.1290;-0.0572
0000419819;5.7221;-15.9550;0.2514;-0.0272;0.0027;-0.0709
0000419828;5.7413;-15.9047;0.1341;-0.0334;-0.0001;-0.0789
0000419840;5.6910;-15.8376;0.1030;-0.0377;-0.0136;-0.0829
0000419849;5.5976;-15.6341;0.1604;-0.0510;-0.0262;-0.0765
0000419862;5.5713;-15.5192;0.1197;-0.0673;-0.0472;-0.0640
0000419871;5.5306;-15.6605;0.0790;-0.0738;-0.0658;-0.0496
0000419883;5.6000;-15.6198;0.0407;-0.0754;-0.0871;-0.0372
0000419892;5.4875;-15.7108;-0.0192;-0.0737;-0.1033;-0.0238
0000419905;5.6264;-15.8305;-0.0886;-0.0594;-0.1079;-0.0045
0000419914;5.5881;-16.1010;-0.1556;-0.0445;-0.1211;-0.0036
0000419926;5.6862;-16.1513;-0.1101;-0.0211;-0.1166;0.0003
0000419935;5.9256;-16.2901;-0.0048;0.0031;-0.1087;0.0020
0000419944;6.0142;-16.4194;0.1317;0.0294;-0.0945;0.0097
0000419957;6.2369;-16.8145;0.4262;0.0905;-0.0654;0.0052
0000419966;6.2082;-17.0036;0.4980;0.1346;-0.0494;0.0003
0000419978;5.9999;-17.3005;0.6823;0.1772;-0.0305;-0.0001
0000419987;6.0430;-17.0922;0.8164;0.1945;-0.0232;-0.0023
0000420000;5.5474;-16.8073;0.8499;0.1973;-0.0344;-0.0053
0000420009;5.3678;-16.2040;0.8715;0.1616;-0.0441;-0.0028
0000420021;5.2481;-15.8927;0.8547;0.1047;-0.0787;-0.0048
0000420030;5.0853;-15.6461;0.7302;0.0530;-0.1049;-0.0124
0000420039;5.1739;-15.3444;0.6464;0.0044;-0.1344;-0.0097
0000420108;6.1387;-15.7036;-0.2849;-0.2050;-0.1823;0.0104
0000420117;6.3231;-16.1106;-0.3855;-0.2016;-0.1464;0.0104
0000420129;6.2321;-16.2878;-0.2825;-0.1759;-0.1053;-0.0020
0000420138;6.3829;-16.4506;-0.3256;-0.1508;-0.0754;-0.0129
0000420150;6.2058;-16.5272;-0.2705;-0.1058;-0.0386;-0.0175
0000420158;6.4284;-16.6229;-0.3711;-0.0833;-0.0131;-0.0212
0000420169;5.8610;-16.6948;-0.1987;-0.0530;0.0088;-0.0268
0000420177;5.9831;-16.4386;-0.0192;-0.0340;0.0189;-0.0234
0000420189;5.6192;-16.4865;0.0072;-0.0149;0.0203;-0.0301
0000420197;5.6599;-16.3404;0.0766;-0.0177;0.0229;-0.0265
0000420208;5.6431;-16.1178;0.2179;-0.0159;0.0056;-0.0296
0000420216;5.6120;-15.9526;0.1077;-0.0261;-0.0040;-0.0212
0000420224;5.5091;-15.9574;0.2251;-0.0401;-0.0079;-0.0180
0000420237;5.4420;-15.9430;0.0383;-0.0612;-0.0377;-0.0099
0000420245;5.4133;-16.0148;0.0000;-0.0690;-0.0572;-0.0113
0000420257;5.4564;-16.1585;0.0215;-0.0762;-0.0698;-0.0115
0000420265;5.6168;-16.1561;0.0192;-0.0691;-0.0742;-0.0084
0000420276;5.7604;-16.0986;0.0024;-0.0637;-0.0746;-0.0085
