time;acc_x;acc_y;acc_z;gyro_x;gyro_y;gyro_z
0000129098;4.7357;-15.9933;-0.2179;-0.0252;0.5684;-0.0149
0000129107;4.7812;-15.8640;-0.1532;-0.0222;0.5405;-0.0163
0000129114;4.8076;-15.9143;-0.1006;-0.0184;0.5212;-0.0111
0000129122;4.8961;-15.8760;-0.1437;-0.0252;0.5097;-0.0091
0000129131;5.0973;-15.9310;-0.0455;-0.0290;0.5081;-0.0073
0000129139;5.2337;-15.9406;-0.1460;-0.0274;0.4975;0.0007
0000129151;5.4372;-16.0531;-0.1030;-0.0314;0.4668;-0.0009
0000129159;5.5737;-16.0412;-0.1628;-0.0278;0.4451;-0.0096
0000129170;6.0549;-15.9095;-0.1484;-0.0097;0.3998;-0.0266
0000129178;6.6008;-15.7562;-0.1389;-0.0013;0.3687;-0.0390
0000129186;6.5027;-15.9119;-0.1437;0.0071;0.3576;-0.0292
0000129198;5.9209;-16.0005;-0.1748;0.0045;0.3537;-0.0140
0000129206;5.5785;-15.8137;-0.1772;0.0041;0.3519;-0.0133
0000129217;4.4005;-15.9621;-0.1628;0.0147;0.3557;-0.0049
0000129225;3.7278;-16.0651;-0.1030;0.0280;0.3303;-0.0089
0000129293;4.3790;-15.7993;-0.0120;0.0065;-0.0197;-0.0565
0000129301;4.2401;-15.8951;0.0622;0.0044;-0.0702;-0.0629
0000129312;4.1396;-16.0603;0.0263;0.0027;-0.1427;-0.0759
0000129320;4.2521;-15.9143;0.0766;-0.0064;-0.2044;-0.0993
0000129332;4.4628;-15.9550;0.1269;0.0171;-0.2864;-0.1131
0000129340;4.4604;-16.1704;0.1197;0.0448;-0.3397;-0.1256
0000129348;4.6735;-15.9550;-0.0048;0.0530;-0.3829;-0.1235
0000129359;4.7333;-16.0866;-0.0479;0.0582;-0.4615;-0.1275
0000129367;4.6878;-16.3763;-0.0575;0.0514;-0.5028;-0.1175
0000129379;4.8985;-16.3428;-0.1365;0.0545;-0.5657;-0.1027
0000129387;5.1404;-16.2638;-0.1221;0.0634;-0.6099;-0.0995
0000129398;5.1451;-16.2447;-0.1460;0.0644;-0.6552;-0.0914
0000129406;5.1523;-16.1920;-0.0599;0.0649;-0.6932;-0.0945
0000129418;5.1906;-16.0723;-0.0168;0.0713;-0.7382;-0.0985
0000129426;5.2601;-15.9334;0.0407;0.0655;-0.7626;-0.0987
0000129437;5.1332;-15.6222;0.2107;0.0493;-0.8038;-0.0963
0000129445;5.1044;-15.6581;0.2729;0.0266;-0.8272;-0.0875
0000129457;4.8147;-15.5575;0.3184;-0.0137;-0.8819;-0.0702
0000129465;4.9895;-15.5001;0.3591;-0.0372;-0.9238;-0.0610
0000129473;4.9344;-15.3875;0.3376;-0.0570;-0.9630;-0.0473
0000129485;5.0374;-15.4977;0.3807;-0.0815;-1.0257;-0.0253
0000129493;5.0877;-15.6437;0.3807;-0.0966;-1.0585;-0.0053
0000129560;5.2601;-16.2016;0.2777;-0.0687;-1.2950;0.0264
0000129568;5.3343;-16.0962;0.2777;-0.0814;-1.3018;0.0195
0000129579;5.3654;-16.0531;0.2777;-0.0909;-1.3398;0.0045
0000129587;5.4827;-15.8185;0.2945;-0.1094;-1.3574;-0.0029
0000129599;5.3678;-15.9478;0.2586;-0.1200;-1.3908;-0.0139
0000129607;5.5091;-15.9238;0.2897;-0.1287;-1.4264;-0.0192
0000129618;5.2696;-15.9214;0.2777;-0.1419;-1.4595;-0.0123
0000129626;5.3606;-15.9765;0.3807;-0.1464;-1.5010;-0.0195
0000129634;5.3439;-15.8616;0.4741;-0.1524;-1.5239;-0.0043
0000129646;5.4660;-15.6772;0.4549;-0.1677;-1.5697;0.0080
0000129654;5.2050;-15.7682;0.3735;-0.1836;-1.5977;0.0211
0000129665;5.3463;-15.7491;0.3256;-0.1892;-1.6390;0.0230
0000129673;5.4827;-15.7036;0.2634;-0.1976;-1.6693;0.0250
0000129685;5.6623;-15.7562;0.2945;-0.2008;-1.7088;0.0317
0000129693;5.6192;-15.8520;0.1389;-0.1980;-1.7381;0.0306
0000129704;5.6192;-15.9430;0.1101;-0.2153;-1.7583;0.0377
0000129712;5.6623;-15.9454;0.0168;-0.2116;-1.8024;0.0354
0000129724;5.9185;-15.9693;-0.1030;-0.2177;-1.7985;0.0480
0000129732;5.8993;-16.0675;-0.1077;-0.2144;-1.8115;0.0605
0000129740;5.9520;-16.2016;-0.1437;-0.1968;-1.8036;0.0636
0000129751;5.8921;-16.4913;-0.1293;-0.1847;-1.7948;0.0755
0000129759;6.1555;-16.3787;-0.1341;-0.1699;-1.7772;0.0822
0000129823;6.3877;-15.9717;0.1963;-0.1074;-1.5143;0.1041
0000129831;6.4093;-15.8568;0.2418;-0.1107;-1.4877;0.1006
0000129842;6.2560;-15.7179;0.1987;-0.1172;-1.4421;0.1065
0000129850;6.2177;-15.6964;0.1700;-0.1300;-1.4055;0.1106
0000129862;6.1292;-15.7826;0.1987;-0.1426;-1.3634;0.1163
0000129870;6.1938;-15.5695;0.1724;-0.1462;-1.3395;0.1136
0000129881;5.9041;-15.8879;0.2418;-0.1428;-1.3090;0.1175
0000129889;5.9185;-15.8760;0.1891;-0.1370;-1.2870;0.1130
0000129897;5.9137;-15.9262;0.0694;-0.1288;-1.2741;0.1094
0000129909;5.9424;-16.0340;0.0551;-0.1168;-1.2380;0.1143
0000129917;5.9376;-16.0340;0.1077;-0.1190;-1.2027;0.1122
0000129928;6.0765;-16.0388;-0.0192;-0.1087;-1.1732;0.1107
0000129936;5.9137;-16.1728;0.0503;-0.0981;-1.1620;0.1062
0000129948;5.8251;-16.2854;0.0503;-0.0885;-1.1341;0.1094
0000129956;5.8514;-16.1417;0.0575;-0.0726;-1.1174;0.1099
0000129967;5.7078;-16.2518;0.1604;-0.0671;-1.0930;0.1131
0000129975;5.7796;-16.2183;0.2346;-0.0521;-1.0836;0.1088
0000129987;5.6479;-16.2423;0.2682;-0.0326;-1.0651;0.1079
0000129995;5.8012;-16.1178;0.2442;-0.0277;-1.0412;0.1128
0000130003;5.7317;-16.1704;0.2993;-0.0195;-1.0256;0.1116
0000130015;5.8802;-16.0340;0.4046;-0.0099;-0.9935;0.1074
0000130023;5.6431;-16.1752;0.3926;0.0021;-0.9859;0.1006
0000130087;5.1164;-16.0364;0.4764;-0.0117;-0.8146;0.2038
0000130095;4.8866;-16.0890;0.4956;0.0023;-0.7879;0.2096
0000130106;5.0350;-16.0148;0.5459;0.0191;-0.7398;0.2037
0000130114;5.1212;-15.8831;0.5818;0.0232;-0.7129;0.1775
0000130126;5.3175;-15.5839;0.6800;-0.0044;-0.6692;0.1400
0000130134;5.1739;-15.7347;0.6153;-0.0426;-0.6253;0.1176
0000130145;5.4372;-15.4641;0.4597;-0.0902;-0.5961;0.0887
0000130153;5.3534;-15.6126;0.3496;-0.1256;-0.5797;0.0843
0000130161;5.2577;-15.7969;0.2705;-0.1496;-0.5668;0.0869
0000130173;5.1595;-16.0124;0.1221;-0.1736;-0.5568;0.1046
0000130181;5.1140;-16.0603;0.0120;-0.1721;-0.5468;0.1202
0000130192;5.0135;-16.3189;-0.0407;-0.1708;-0.5385;0.1342
0000130200;4.8770;-16.4530;0.0503;-0.1528;-0.5420;0.1415
0000130212;4.8219;-16.6205;0.0814;-0.1311;-0.5395;0.1519
0000130220;4.9847;-16.3692;0.1053;-0.1102;-0.5384;0.1514
0000130231;4.6687;-16.2638;0.1460;-0.0914;-0.5466;0.1617
0000130239;4.6663;-16.1130;0.1389;-0.0841;-0.5680;0.1597
0000130251;4.6783;-15.8760;0.1341;-0.0851;-0.5793;0.1776
0000130259;4.4053;-15.9717;0.2777;-0.0801;-0.5946;0.1876
0000130267;4.6328;-15.8089;0.2394;-0.0683;-0.6078;0.1929
0000130279;4.7333;-15.9047;0.2586;-0.0606;-0.5978;0.2106
0000130287;4.8554;-15.8807;0.2442;-0.0422;-0.5901;0.2020
0000130351;5.2960;-15.8209;0.2801;0.0136;-0.3347;0.1342
0000130359;5.3774;-15.5910;0.3208;0.0091;-0.3050;0.1142
0000130370;4.9153;-15.9957;0.2682;0.0165;-0.2822;0.0911
0000130378;4.8028;-15.9047;0.3304;0.0100;-0.2735;0.0767
0000130390;4.6926;-15.7802;0.2346;0.0047;-0.2611;0.0533
0000130398;4.6376;-15.8975;0.3304;-0.0072;-0.2605;0.0366
0000130406;4.7716;-15.6509;0.2059;-0.0091;-0.2710;0.0124
0000130417;4.7812;-15.7371;0.1748;-0.0221;-0.2803;-0.0052
0000130425;4.7501;-15.7299;0.1724;-0.0205;-0.2895;-0.0144
0000130437;4.9847;-15.6270;0.0742;-0.0301;-0.2959;-0.0153
0000130445;5.1667;-15.6126;0.0407;-0.0357;-0.3006;-0.0187
0000130457;5.1547;-15.7084;0.0982;-0.0430;-0.2911;-0.0120
0000130465;5.1451;-15.8783;-0.0048;-0.0400;-0.2868;-0.0127
0000130476;5.1020;-15.9933;0.0239;-0.0416;-0.2706;-0.0011
0000130484;5.2960;-15.8185;0.0096;-0.0337;-0.2569;0.0013
0000130496;5.2601;-15.9262;0.0407;-0.0325;-0.2238;-0.0059
0000130504;5.1715;-15.7323;-0.0886;-0.0405;-0.1986;-0.0057
0000130515;5.1571;-15.4737;0.0215;-0.0522;-0.1796;-0.0345
0000130523;5.2960;-15.3420;0.0503;-0.0707;-0.1685;-0.0469
0000130531;5.0087;-15.6174;0.0024;-0.0833;-0.1637;-0.0640
0000130543;5.0015;-15.5432;-0.0958;-0.0950;-0.1597;-0.0751
0000130551;4.9297;-15.6892;-0.1101;-0.0922;-0.1703;-0.0797
0000130614;4.4915;-15.9645;-0.3496;-0.0410;-0.3464;-0.0693
0000130622;4.7645;-15.7562;-0.3998;-0.0400;-0.3798;-0.0763
0000130634;4.8076;-15.6748;-0.3759;-0.0380;-0.4250;-0.0861
0000130642;4.5849;-15.8376;-0.3855;-0.0397;-0.4576;-0.0941
0000130653;4.7884;-15.7347;-0.4549;-0.0464;-0.5032;-0.1038
0000130661;4.8100;-15.8736;-0.5076;-0.0577;-0.5260;-0.1025
0000130673;4.8698;-16.0172;-0.4932;-0.0620;-0.5552;-0.0935
0000130681;5.1978;-16.0675;-0.5794;-0.0605;-0.5714;-0.0959
0000130692;5.2313;-16.1824;-0.5602;-0.0537;-0.5712;-0.0858
0000130700;5.3989;-15.9813;-0.6871;-0.0389;-0.5798;-0.0898
0000130712;5.5641;-16.0196;-0.6967;-0.0302;-0.5618;-0.0791
0000130720;5.3606;-16.1728;-0.5794;-0.0312;-0.5606;-0.0802
0000130728;5.3846;-15.8975;-0.6967;-0.0260;-0.5584;-0.0842
0000130739;5.3175;-16.1369;-0.5124;-0.0151;-0.5465;-0.0802
0000130747;5.2648;-16.1178;-0.4573;0.0036;-0.5510;-0.0886
0000130759;4.9560;-16.5391;-0.2418;0.0244;-0.5477;-0.0659
0000130767;5.2074;-16.5607;-0.1101;0.0344;-0.5361;-0.0492
0000130778;5.3463;-16.7738;-0.0670;0.0413;-0.5179;-0.0195
0000130786;5.4708;-16.9677;-0.1939;0.0370;-0.4972;0.0107
0000130798;5.7317;-16.9007;-0.2059;0.0361;-0.4473;0.0397
0000130806;5.7221;-16.9198;-0.1652;0.0412;-0.4118;0.0496
0000130869;5.0877;-16.5990;0.1125;0.0962;-0.2236;0.0048
0000130877;4.8770;-16.6565;0.0910;0.1042;-0.2116;0.0168
0000130889;5.1427;-16.6924;0.1676;0.1398;-0.2025;0.0286
0000130897;5.0494;-16.7498;0.2705;0.1617;-0.1896;0.0474
0000130905;4.8243;-16.8672;0.2059;0.1753;-0.1811;0.0562
0000130916;4.8650;-16.5391;0.2658;0.1931;-0.1820;0.0654
0000130924;4.7884;-16.2016;0.3256;0.1972;-0.1955;0.0655
0000130936;4.7309;-15.8041;0.3184;0.1763;-0.2161;0.0536
0000130944;4.7309;-15.8736;0.3496;0.1532;-0.2403;0.0454
0000130955;4.6783;-15.7658;0.3184;0.1292;-0.2870;0.0175
0000130963;4.8243;-15.8089;0.4238;0.1234;-0.3269;-0.0021
0000130975;4.8937;-15.9119;0.4597;0.1131;-0.3849;-0.0248
0000130983;5.1116;-15.9909;0.5243;0.1096;-0.4157;-0.0348
0000130991;5.1116;-16.0244;0.6393;0.1188;-0.4479;-0.0472
0000131002;5.5905;-15.9909;0.7949;0.1235;-0.4743;-0.0421
0000131010;5.6814;-15.9430;0.8260;0.1302;-0.4900;-0.0469
0000131022;5.9735;-15.7969;0.9529;0.1312;-0.4804;-0.0450
0000131030;6.0525;-15.7371;1.1205;0.1247;-0.4566;-0.0374
0000131041;6.1028;-15.7682;1.2186;0.1096;-0.4215;-0.0344
0000131049;6.0214;-15.7443;1.4341;0.0961;-0.4048;-0.0450
0000131061;5.8299;-15.7179;1.5730;0.0758;-0.3794;-0.0582
0000131069;5.8347;-15.6293;1.6927;0.0542;-0.3589;-0.0628
0000131132;4.8698;-15.9190;2.4086;0.0510;-0.5662;-0.0248
0000131140;4.7022;-16.1872;2.3679;0.0493;-0.6053;-0.0181
0000131148;4.8554;-15.9286;2.3679;0.0500;-0.6399;-0.0184
0000131160;5.3510;-15.6126;2.3248;0.0548;-0.6779;-0.0129
0000131168;5.5043;-15.4953;2.3080;0.0590;-0.6900;-0.0036
0000131179;5.6551;-15.3564;2.1859;0.0554;-0.6903;-0.0039
0000131187;5.9041;-15.3444;2.0877;0.0404;-0.6759;0.0007
0000131199;6.0214;-15.5168;2.0063;0.0338;-0.6450;-0.0084
0000131207;6.1076;-15.8113;1.9321;0.0260;-0.6169;-0.0179
0000131218;6.3662;-15.8999;1.9489;0.0262;-0.5780;-0.0333
0000131226;6.4284;-15.9310;1.8771;0.0268;-0.5550;-0.0593
0000131234;6.6224;-15.9095;1.9225;0.0225;-0.5168;-0.0706
0000131246;6.6176;-16.0244;1.8052;0.0153;-0.4699;-0.0881
0000131254;6.5745;-15.9645;1.7549;-0.0021;-0.4421;-0.1014
0000131265;6.4548;-15.8329;1.8124;-0.0205;-0.4199;-0.1294
0000131273;6.4859;-15.8257;1.8938;-0.0321;-0.4017;-0.1387
0000131285;6.1148;-16.0412;1.6640;-0.0473;-0.3809;-0.1518
0000131293;6.2704;-15.7778;1.7047;-0.0502;-0.3712;-0.1684
0000131304;5.9879;-15.7730;1.5897;-0.0409;-0.3663;-0.1915
0000131312;5.6886;-16.0388;1.6472;-0.0390;-0.3567;-0.2045
0000131324;6.0932;-15.7395;1.6185;-0.0424;-0.3557;-0.2341
0000131332;5.8610;-15.8568;1.6161;-0.0382;-0.3653;-0.2545
0000131395;6.2944;-15.5479;1.3719;0.0265;-0.4772;-0.2309
0000131403;6.5457;-15.5240;1.2570;0.0189;-0.4719;-0.2134
0000131411;6.5242;-15.6677;1.2833;0.0253;-0.4736;-0.2070
0000131423;6.9384;-15.5575;1.2665;0.0366;-0.4463;-0.1883
0000131431;6.8570;-15.5982;1.3024;0.0401;-0.4225;-0.1825
0000131442;7.1730;-15.6485;1.2450;0.0621;-0.3781;-0.1792
0000131450;7.1012;-15.6748;1.2761;0.0636;-0.3367;-0.1744
0000131462;7.3598;-15.6246;1.1588;0.0494;-0.2710;-0.1823
0000131470;7.3047;-15.5551;1.1444;0.0404;-0.2342;-0.1884
0000131481;7.1251;-15.7084;1.0894;0.0191;-0.1765;-0.1928
0000131489;7.3310;-15.6844;1.0319;0.0017;-0.1302;-0.1917
0000131501;7.1323;-15.8089;0.9912;-0.0100;-0.0766;-0.1937
0000131509;7.2975;-15.7203;0.9409;-0.0124;-0.0472;-0.1856
0000131517;6.9935;-15.9574;0.9433;-0.0120;-0.0180;-0.1727
0000131528;6.8785;-15.8257;0.8092;-0.0185;0.0181;-0.1675
0000131536;6.9911;-15.9119;0.7207;-0.0277;0.0469;-0.1595
0000131548;6.9336;-15.9981;0.7111;-0.0200;0.0652;-0.1487
0000131556;6.9480;-15.7778;0.8356;-0.0265;0.0918;-0.1348
0000131567;6.9599;-15.8544;0.7254;-0.0348;0.1107;-0.1342
0000131575;7.0557;-15.9693;0.6728;-0.0314;0.1351;-0.1254
0000131587;7.1539;-15.9334;0.7997;-0.0076;0.1687;-0.1096
0000131595;7.3909;-15.8736;0.8547;-0.0063;0.1986;-0.0983
0000131658;7.8985;-15.7515;0.8140;0.0168;0.5804;-0.0561
0000131666;7.9057;-15.6653;0.6943;0.0101;0.6283;-0.0678
0000131674;7.8602;-15.6078;0.6464;0.0020;0.6714;-0.0697
0000131686;7.7117;-15.7012;0.6847;-0.0153;0.7350;-0.0722
0000131694;7.6040;-15.7538;0.7207;-0.0009;0.7633;-0.0807
0000131705;7.4388;-15.8807;0.6608;-0.0045;0.7909;-0.0934
0000131713;7.2042;-15.8209;0.6009;0.0035;0.7942;-0.1019
0000131725;7.0485;-15.8616;0.5794;-0.0111;0.8041;-0.1005
0000131733;6.9935;-16.0699;0.5507;-0.0270;0.7987;-0.1055
0000131744;6.9121;-15.8760;0.4669;-0.0444;0.7787;-0.1043
0000131752;6.8354;-15.9981;0.3687;-0.0645;0.7686;-0.0995
0000131760;6.7062;-15.9167;0.3759;-0.0742;0.7541;-0.1003
0000131772;6.8570;-15.9861;0.2322;-0.0975;0.7270;-0.0971
0000131780;7.0437;-15.9765;0.2729;-0.1033;0.7148;-0.0913
0000131792;7.0964;-16.0842;0.5148;-0.1046;0.6947;-0.0957
0000131800;7.1778;-16.1633;0.8452;-0.0953;0.6805;-0.0878
0000131811;7.0054;-16.4937;1.2258;-0.0625;0.6526;-0.0947
0000131819;6.7540;-16.8504;1.4557;-0.0440;0.6234;-0.1062
0000131831;6.2106;-17.1377;1.6592;-0.0376;0.5466;-0.1451
0000131839;5.7102;-17.3077;1.7430;-0.0345;0.4742;-0.1645
0000131906;6.0430;-15.8592;0.7853;-0.1454;-0.2106;-0.1659
0000131914;6.4476;-15.7610;0.9457;-0.1475;-0.2142;-0.1140
0000131922;7.0102;-15.6030;0.9457;-0.1459;-0.1941;-0.0697
0000131934;7.5250;-15.9286;1.1037;-0.1525;-0.1227;-0.0218
0000131942;7.6806;-16.2064;1.2450;-0.1382;-0.0648;-0.0033
0000131953;7.8243;-16.3763;1.3072;-0.0882;0.0286;0.0224
0000131961;7.7524;-16.2806;1.5179;-0.0509;0.1102;0.0414
0000131973;7.3263;-16.3165;1.6783;-0.0087;0.2106;0.0350
0000131981;6.8618;-16.3045;1.8555;0.0115;0.2581;0.0065
0000131992;6.2968;-16.2159;1.9393;0.0248;0.2898;-0.0313
0000132000;5.8466;-16.1369;1.9082;0.0285;0.2975;-0.0478
0000132012;5.6838;-15.8616;2.0207;0.0432;0.2939;-0.0616
0000132020;5.3175;-15.7682;2.0877;0.0552;0.2832;-0.0521
0000132028;5.2313;-15.5479;2.3296;0.0769;0.2534;-0.0412
0000132039;4.9392;-15.5264;2.6288;0.1030;0.2098;-0.0119
0000132047;4.8794;-15.4977;2.7078;0.1267;0.1811;0.0196
0000132059;4.9105;-15.4043;2.8299;0.1683;0.1366;0.0522
0000132067;4.9704;-15.3732;2.8635;0.1912;0.1106;0.0710
0000132078;4.9560;-15.2463;2.7773;0.2056;0.0957;0.0967
0000132086;5.2337;-14.9877;2.6600;0.2048;0.0918;0.1018
0000132098;5.5881;-14.7890;2.4565;0.1697;0.1163;0.1122
0000132106;5.8754;-14.7124;2.4229;0.1152;0.1494;0.1202
0000132114;5.7700;-14.9590;2.2242;0.0625;0.1832;0.1186
0000132181;5.4013;-16.4003;1.6448;0.0360;0.4619;0.1492
0000132189;5.2529;-16.4482;1.6520;0.0533;0.4736;0.1636
0000132201;5.3726;-16.0172;1.6520;0.0557;0.4946;0.1972
0000132209;5.2098;-15.8855;1.7789;0.0469;0.5053;0.2077
0000132220;5.2074;-15.6796;1.7071;0.0257;0.5249;0.2133
0000132228;5.4253;-15.5934;1.6735;0.0127;0.5367;0.2138
0000132236;5.2816;-15.4019;1.7119;-0.0073;0.5525;0.2064
0000132248;5.0470;-15.6653;1.7166;0.0047;0.5637;0.1711
0000132256;5.5067;-15.3612;1.5802;0.0201;0.5773;0.1581
0000132267;5.2529;-15.4857;1.5778;0.0520;0.5828;0.1363
0000132275;5.2648;-15.4019;1.6376;0.0711;0.5860;0.1215
0000132287;5.3295;-15.1314;1.5060;0.0923;0.5973;0.1258
0000132295;4.9847;-15.3013;1.4916;0.0985;0.5971;0.1291
0000132306;5.1068;-15.0547;1.4485;0.1007;0.5949;0.1370
0000132314;4.8507;-15.2271;1.4964;0.1031;0.5854;0.1275
0000132322;4.8722;-14.9494;1.5155;0.0999;0.5742;0.1236
0000132334;4.7812;-14.9781;1.4126;0.0929;0.5449;0.1091
0000132342;4.6759;-15.1409;1.4293;0.0767;0.5179;0.0989
0000132353;4.6280;-15.1936;1.4293;0.0678;0.4780;0.0681
0000132361;4.5945;-15.2654;1.4916;0.0584;0.4403;0.0436
0000132373;4.7764;-15.2487;1.4006;0.0456;0.3838;0.0068
0000132381;4.5418;-15.4689;1.4222;0.0349;0.3444;-0.0144
0000132389;4.6280;-15.2989;1.3503;0.0117;0.3100;-0.0257
0000132456;4.6831;-15.2511;0.9649;-0.1107;0.0522;0.0392
0000132464;4.5993;-15.2199;0.9912;-0.1083;0.0115;0.0513
0000132476;4.4125;-14.9494;1.0104;-0.1047;-0.0609;0.0686
0000132484;4.4987;-14.8824;1.1013;-0.1026;-0.0946;0.0795
0000132495;4.4365;-14.7387;1.0582;-0.1063;-0.1567;0.0861
0000132503;4.6280;-14.5615;1.0678;-0.1298;-0.1968;0.0907
0000132515;4.5179;-14.8943;0.9266;-0.1709;-0.2332;0.1079
0000132523;4.8674;-14.7674;0.8643;-0.1992;-0.2463;0.1211
0000132534;5.0973;-14.8105;0.7877;-0.2230;-0.2643;0.1240
0000132542;4.8866;-15.0643;0.6704;-0.2435;-0.2707;0.1208
0000132550;4.9344;-15.0619;0.6464;-0.2498;-0.2753;0.1042
0000132562;4.7477;-15.0667;0.6393;-0.2542;-0.2890;0.0733
0000132570;4.9009;-15.0811;0.6153;-0.2621;-0.2978;0.0617
0000132581;4.8219;-15.0667;0.5387;-0.2682;-0.3100;0.0373
0000132589;4.6639;-15.2750;0.5866;-0.2615;-0.3239;0.0172
0000132601;4.8770;-15.3109;0.6512;-0.2413;-0.3337;-0.0116
0000132609;4.9344;-15.1984;0.6823;-0.2141;-0.3395;-0.0357
0000132620;4.9321;-15.2846;0.6656;-0.1791;-0.3587;-0.0838
0000132628;4.7429;-15.3229;0.6081;-0.1498;-0.3852;-0.1172
0000132640;4.8914;-15.2966;0.5650;-0.1470;-0.3981;-0.1504
0000132648;4.7309;-15.3516;0.6416;-0.1426;-0.4134;-0.1681
0000132656;4.6735;-15.5695;0.5602;-0.1384;-0.4233;-0.1859
0000132723;6.0358;-15.5886;0.5483;-0.0721;-0.3651;-0.2554
0000132731;5.9448;-15.5767;0.5459;-0.0758;-0.3452;-0.2682
0000132743;5.5665;-15.8568;0.3256;-0.0833;-0.3232;-0.3178
0000132751;5.4133;-15.9071;0.3519;-0.0763;-0.3174;-0.3623
0000132762;5.1834;-16.0124;0.3089;-0.0550;-0.2950;-0.4138
0000132770;5.2098;-15.9526;0.2059;-0.0237;-0.2871;-0.4413
0000132782;5.5282;-15.5839;0.1867;0.0329;-0.2603;-0.4370
0000132790;5.8610;-15.4522;0.3376;0.0638;-0.2439;-0.4092
0000132801;6.3829;-15.1074;0.4836;0.0858;-0.2010;-0.3360
0000132809;6.6679;-14.7100;0.5507;0.0781;-0.1603;-0.2787
0000132817;6.6152;-14.7196;0.5028;0.0649;-0.1182;-0.2329
0000132829;6.6200;-14.4155;0.7398;0.0248;-0.0453;-0.1962
0000132837;6.5481;-14.4299;0.8068;-0.0088;0.0141;-0.1949
0000132848;6.0190;-14.7243;0.7781;-0.0393;0.0886;-0.2121
0000132856;6.0023;-14.6693;0.6991;-0.0544;0.1300;-0.2438
0000132868;5.7652;-14.6693;0.6584;-0.0620;0.1805;-0.2701
0000132876;5.7197;-14.4729;0.5171;-0.0561;0.2069;-0.2707
0000132887;5.9568;-13.9271;0.4214;-0.0614;0.2449;-0.2229
0000132895;6.0430;-13.3668;0.3017;-0.0857;0.2647;-0.1732
0000132907;6.3877;-13.1202;0.7446;-0.1412;0.3012;-0.0893
0000132915;6.2273;-13.4698;0.5578;-0.1595;0.3234;-0.0253
0000132923;6.6008;-14.0420;0.6632;-0.1136;0.3701;0.0458
0000132990;6.9360;-18.1959;1.0942;0.3720;0.7753;0.1391
0000132998;6.7373;-17.5064;0.9673;0.2916;0.8159;0.0991
0000133010;5.6910;-17.1856;1.3527;0.1636;0.8168;0.0358
0000133018;5.2601;-17.0300;1.5131;0.1187;0.7905;-0.0151
0000133029;5.0685;-16.7450;1.8890;0.1351;0.7288;-0.0966
0000133037;4.9033;-16.8767;2.2625;0.1621;0.6795;-0.1367
0000133049;5.4468;-17.2742;2.5618;0.2266;0.6273;-0.1600
0000133057;5.8419;-17.5112;2.8659;0.2579;0.6086;-0.1593
0000133065;6.3662;-17.7219;3.3710;0.2665;0.6209;-0.1266
0000133076;6.7756;-18.5431;3.7757;0.2601;0.6602;-0.0384
0000133084;7.0773;-18.9980;3.3567;0.2256;0.6929;0.0470
0000133096;7.7979;-19.1297;2.2745;0.0903;0.7512;0.1524
0000133104;8.0685;-18.8472;1.5778;-0.0278;0.7899;0.1768
0000133116;7.3789;-17.9493;1.0104;-0.1749;0.8375;0.1555
0000133124;6.2297;-17.5256;0.6560;-0.2459;0.8447;0.0929
0000133135;4.6950;-16.8695;0.3519;-0.3091;0.8079;-0.0181
0000133143;3.8427;-16.4290;0.4357;-0.3468;0.7497;-0.0926
0000133151;3.1651;-16.4003;0.4812;-0.3772;0.6671;-0.1647
0000133163;2.6001;-16.5559;0.6321;-0.3937;0.5259;-0.2589
0000133171;2.8323;-16.8911;0.7901;-0.3778;0.4301;-0.2827
0000133183;3.3064;-17.5112;0.9026;-0.2871;0.2928;-0.2645
0000133191;3.9696;-17.8847;0.8475;-0.2220;0.2318;-0.2314
0000133259;7.5609;-17.0611;1.3838;-0.2297;0.3776;-0.1593
0000133267;6.9983;-17.0898;1.5036;-0.2722;0.4237;-0.2052
0000133279;6.3853;-17.0491;1.2905;-0.3183;0.4478;-0.2693
0000133287;5.6719;-17.1042;1.1516;-0.3379;0.4479;-0.2871
0000133299;5.0805;-17.0276;1.0678;-0.3469;0.4106;-0.3088
0000133307;4.8243;-17.1042;0.9194;-0.3263;0.3675;-0.3191
0000133315;4.5226;-17.0707;0.8811;-0.2992;0.3131;-0.3132
0000133326;4.5226;-16.9557;1.0127;-0.2398;0.2108;-0.3128
0000133334;4.6519;-16.9174;0.9026;-0.1892;0.1336;-0.3151
0000133346;5.0111;-16.6924;1.0439;-0.1252;0.0254;-0.3126
0000133354;5.4420;-16.3835;1.1612;-0.0915;-0.0302;-0.3019
0000133365;5.8131;-16.1800;1.2186;-0.0574;-0.1031;-0.2906
0000133373;6.3494;-15.8760;1.2929;-0.0564;-0.1367;-0.2738
0000133385;6.6439;-15.6485;1.3144;-0.0470;-0.1564;-0.2457
0000133393;6.7971;-15.6365;1.4413;-0.0405;-0.1617;-0.2382
0000133404;7.1371;-15.4905;1.3575;-0.0314;-0.1515;-0.2168
0000133412;7.0485;-15.3827;1.2977;-0.0262;-0.1391;-0.2214
0000133420;7.1443;-15.4306;1.1899;-0.0373;-0.1206;-0.2176
0000133432;6.8977;-15.4570;1.1253;-0.0584;-0.0929;-0.2077
0000133440;6.8043;-15.4450;1.1109;-0.0661;-0.0807;-0.2066
0000133452;6.4500;-15.6030;0.9385;-0.0865;-0.0835;-0.2044
0000133460;6.3135;-15.6006;0.8475;-0.0746;-0.0975;-0.2016
0000133528;6.6128;-15.8520;0.3855;0.0352;-0.2741;-0.1708
0000133536;6.9719;-15.6030;0.4836;0.0624;-0.2771;-0.1624
0000133548;7.3622;-15.5072;0.3376;0.0825;-0.2435;-0.1458
0000133556;7.5657;-15.2559;0.3735;0.0933;-0.2066;-0.1315
0000133568;7.5082;-15.2654;0.2322;0.0971;-0.1500;-0.1170
0000133576;7.6399;-14.9422;0.2442;0.1011;-0.1059;-0.1163
0000133587;7.6614;-14.6358;0.1604;0.0827;-0.0409;-0.1075
0000133595;7.5537;-14.7315;0.2298;0.0801;0.0037;-0.1025
0000133603;7.3430;-14.6621;0.1508;0.0710;0.0425;-0.0986
0000133615;7.4986;-14.3485;0.0790;0.0659;0.0945;-0.0977
0000133623;7.3071;-14.2455;0.1269;0.0476;0.1239;-0.0947
0000133634;7.0557;-14.2431;0.0622;0.0321;0.1601;-0.0925
0000133642;7.1946;-14.0324;0.0958;0.0409;0.1816;-0.0854
0000133654;7.3885;-13.8792;0.0096;0.0346;0.2245;-0.0404
0000133662;7.3598;-14.0683;-0.0168;0.0184;0.2751;-0.0093
0000133673;7.6351;-14.0540;-0.1508;0.0298;0.3468;0.0522
0000133681;7.6830;-14.1521;-0.1939;0.0433;0.3989;0.0841
0000133689;7.8171;-14.2527;-0.2418;0.0328;0.4670;0.1144
0000133701;7.9607;-14.3796;-0.2825;0.0486;0.5550;0.1231
0000133709;7.7572;-14.5639;-0.0383;0.1069;0.6025;0.1276
0000133721;7.7835;-15.1266;0.3615;0.2316;0.6660;0.1031
0000133729;7.4795;-15.8041;0.5890;0.3167;0.6944;0.0644
0000133797;6.5242;-14.8249;1.7597;0.6937;0.5124;-0.0526
0000133805;6.5505;-14.7842;1.8723;0.5718;0.4563;-0.0241
0000133817;6.5697;-14.9997;1.6903;0.4161;0.4068;0.0385
0000133825;6.5338;-15.5049;1.5682;0.3559;0.3925;0.0913
0000133833;6.8354;-15.6820;1.5299;0.3230;0.3906;0.1384
0000133845;7.4005;-16.0435;1.2402;0.2959;0.4246;0.2088
0000133853;7.5920;-15.9454;1.1516;0.3027;0.4652;0.2304
0000133865;7.7405;-15.6150;0.8404;0.2783;0.5486;0.2613
0000133873;7.9511;-15.2654;0.7494;0.2487;0.5967;0.2645
0000133885;7.7021;-15.2942;0.5722;0.2032;0.6604;0.2625
0000133893;7.4843;-15.3708;0.4956;0.1945;0.6795;0.2726
0000133901;7.4172;-15.3851;0.2753;0.1984;0.7023;0.2916
0000133913;7.0916;-15.6078;0.1987;0.2537;0.7117;0.3216
0000133921;6.9240;-15.3708;0.2083;0.2738;0.7105;0.3413
0000133933;6.7086;-15.2822;0.3783;0.2952;0.6864;0.3528
0000133941;6.3255;-15.1864;0.6464;0.3100;0.6584;0.3345
0000133952;6.4212;-14.8656;0.8739;0.2944;0.6093;0.3115
0000133960;6.3135;-14.5328;0.8930;0.2666;0.5717;0.2695
0000133972;6.1746;-14.0492;0.9385;0.1911;0.5136;0.2196
0000133980;6.2680;-13.8217;1.0271;0.1370;0.4687;0.1743
0000133988;6.4117;-13.9295;1.1732;0.0655;0.4447;0.1374
0000134000;6.7181;-14.2479;1.1444;-0.0124;0.4255;0.0837
0000134008;6.6631;-14.6453;1.0008;-0.0373;0.4307;0.0529
0000134076;4.2377;-18.2366;3.5626;0.1387;0.1723;-0.4518
0000134084;3.8547;-17.9972;3.4189;0.1232;0.0362;-0.4535
0000134096;3.2394;-17.4058;3.2537;0.0312;-0.1909;-0.3325
0000134104;2.7725;-17.1545;3.2178;-0.0682;-0.3633;-0.2244
0000134117;2.9975;-16.9509;3.2705;-0.2170;-0.6041;-0.0284
0000134126;3.4309;-17.5280;3.0502;-0.3010;-0.7520;0.0612
0000134135;4.1492;-17.7961;2.4924;-0.3559;-0.8470;0.1107
0000134148;5.4971;-18.2007;1.9201;-0.3981;-0.8641;0.1446
0000134157;6.0573;-18.8160;1.6783;-0.4229;-0.8230;0.1447
0000134170;6.9743;-19.1321;1.2474;-0.4453;-0.6911;0.1318
0000134179;7.2640;-19.1153;1.0678;-0.4527;-0.5592;0.1005
0000134192;7.4053;-18.5215;1.0104;-0.4423;-0.3697;0.0612
0000134201;7.2377;-18.0164;1.2258;-0.4478;-0.2225;0.0573
0000134214;6.4859;-17.4920;1.3671;-0.4839;-0.0745;0.0598
0000134223;5.5809;-17.2646;1.5562;-0.5369;-0.0129;0.0715
0000134236;4.5777;-17.0324;1.6281;-0.5838;-0.0016;0.0751
0000134245;4.1875;-16.8839;1.5395;-0.6061;-0.0329;0.0813
0000134254;3.9313;-16.6660;1.4868;-0.6215;-0.0853;0.0877
0000134267;3.6631;-16.3572;1.4126;-0.6207;-0.1956;0.1047
0000134276;3.3926;-16.3500;1.4317;-0.6211;-0.2870;0.1158
0000134289;3.7469;-16.1202;1.2115;-0.6074;-0.4261;0.1372
0000134298;4.0270;-15.7850;1.1851;-0.5883;-0.4910;0.1657
0000134365;6.0334;-15.6461;1.1564;-0.2577;-0.4211;0.1777
0000134374;6.5505;-15.3253;1.2043;-0.2324;-0.3279;0.1426
0000134387;6.6343;-15.5503;1.3001;-0.1828;-0.1982;0.0919
0000134396;6.5960;-15.7922;1.2522;-0.1419;-0.1085;0.0644
0000134409;6.4189;-15.9286;1.2737;-0.0989;-0.0036;0.0397
0000134418;5.8658;-15.8185;1.3312;-0.0851;0.0610;0.0304
0000134427;5.5929;-15.9430;1.3312;-0.0874;0.0930;0.0222
0000134440;5.1643;-15.8760;1.3743;-0.1065;0.1152;0.0128
0000134449;4.9871;-15.6437;1.3623;-0.1156;0.1002;0.0029
0000134462;4.6950;-15.6461;1.1899;-0.1400;0.0616;0.0140
0000134471;4.3144;-15.8592;1.1253;-0.1444;0.0117;0.0229
0000134483;4.5298;-16.0364;0.8643;-0.1314;-0.0533;0.0377
0000134492;4.5107;-15.9717;0.8428;-0.1090;-0.1062;0.0594
0000134505;4.6974;-16.0555;0.7566;-0.0636;-0.1708;0.0791
0000134514;4.5753;-16.2351;0.6752;-0.0277;-0.2026;0.0927
0000134523;4.8195;-16.0890;0.6129;-0.0083;-0.2212;0.1090
0000134539;5.1787;-16.0555;0.6081;0.0348;-0.2523;0.1200
0000134548;5.1499;-15.8951;0.6297;0.0508;-0.2583;0.1270
0000134613;4.5466;-15.7634;-0.0215;-0.0386;-0.4634;0.1075
0000134622;4.3981;-15.8233;-0.0048;-0.0324;-0.5368;0.1053
0000134634;4.5226;-15.6437;-0.1197;-0.0370;-0.6235;0.0941
0000134643;4.6136;-15.3420;-0.2011;-0.0541;-0.6852;0.1001
0000134656;4.7884;-14.9374;-0.3519;-0.0810;-0.7639;0.1085
0000134665;4.7573;-14.8967;-0.2825;-0.1034;-0.7886;0.1183
0000134677;5.1092;-14.6022;-0.3591;-0.1226;-0.8122;0.1211
0000134686;5.3391;-14.6118;-0.4118;-0.1372;-0.8304;0.1031
0000134695;5.3439;-14.6286;-0.5219;-0.1681;-0.8259;0.0911
0000134708;5.2385;-14.7531;-0.7661;-0.2004;-0.8363;0.0298
0000134717;5.3463;-14.7555;-0.8499;-0.2105;-0.8400;-0.0229
0000134729;5.4899;-14.7172;-0.8691;-0.2190;-0.8348;-0.0859
0000134738;5.5785;-14.5639;-0.6967;-0.2005;-0.8290;-0.1299
0000134751;5.6407;-14.7124;-0.6488;-0.1895;-0.8276;-0.1511
0000134760;5.6240;-14.7483;-0.5219;-0.1663;-0.8362;-0.1456
0000134772;5.7820;-14.7028;-0.3855;-0.0955;-0.8284;-0.1386
0000134781;5.5115;-14.7387;-0.3136;-0.0578;-0.8208;-0.1464
0000134794;5.5043;-14.7291;-0.3256;-0.0476;-0.7999;-0.1711
0000134803;5.5857;-14.8608;-0.3089;-0.0588;-0.7548;-0.1916
0000134815;5.7245;-14.9087;-0.5746;-0.0596;-0.7128;-0.2555
0000134824;6.1292;-15.0093;-0.4908;-0.0420;-0.6759;-0.3250
0000134889;7.2089;-14.9973;0.0742;0.2101;-0.1343;-0.3609
0000134898;7.0892;-14.7028;-0.0551;0.1468;-0.0405;-0.3788
0000134907;7.0150;-14.6669;-0.1796;0.0665;0.0450;-0.4116
0000134919;6.8690;-14.4682;-0.2227;-0.0398;0.1572;-0.4413
0000134928;6.7421;-14.3844;-0.2777;-0.1005;0.2216;-0.4426
0000134941;6.5577;-14.3844;-0.3160;-0.1584;0.2753;-0.3725
0000134950;6.3686;-14.2910;-0.4597;-0.1648;0.2846;-0.3210
0000134962;6.0789;-13.9630;-0.6512;-0.1733;0.2842;-0.2301
0000134971;5.8921;-13.5512;-0.7518;-0.1827;0.2810;-0.1584
0000134984;5.5354;-13.1657;-0.8715;-0.1800;0.2518;-0.0899
0000134993;5.2002;-13.0580;-0.8667;-0.1825;0.2433;-0.0381
0000135005;4.9225;-13.6541;-0.3304;-0.1478;0.2228;0.0060
0000135014;4.8842;-14.1378;0.1867;-0.0655;0.2061;0.0393
0000135027;5.7030;-14.9039;1.3384;0.1266;0.1944;0.1435
0000135036;6.1316;-15.4402;1.9249;0.2324;0.1840;0.2421
0000135045;6.6463;-15.6509;2.6983;0.3115;0.2053;0.3528
0000135057;7.1970;-16.2255;3.5195;0.3974;0.3104;0.5349
0000135066;7.0437;-16.9294;3.8954;0.4120;0.4234;0.6828
0000135079;6.8570;-17.7434;2.8419;0.2200;0.5848;0.8037
0000135088;6.7301;-18.6389;2.0351;0.0244;0.7097;0.7911
0000135100;6.5481;-19.6301;1.7358;-0.1587;0.8218;0.6402
0000135109;6.3662;-19.7953;1.6520;-0.1613;0.8809;0.4454
0000135118;5.6503;-19.6277;1.8004;-0.0919;0.9018;0.2466
0000135183;6.4787;-21.3084;0.2849;-0.0326;0.5737;0.3176
0000135192;6.4117;-19.8240;0.5339;-0.1464;0.5629;0.1851
0000135204;5.7652;-18.6077;0.4525;-0.3043;0.5798;-0.0185
0000135213;4.8100;-18.6413;0.2514;-0.3860;0.5577;-0.1022
0000135226;3.7661;-18.8855;0.3639;-0.4215;0.4856;-0.1920
0000135235;4.0031;-18.9333;0.3256;-0.3717;0.4133;-0.2537
0000135247;4.4053;-18.8974;0.3352;-0.2862;0.3307;-0.3047
0000135256;5.1882;-18.2630;0.2921;-0.2603;0.2912;-0.3140
0000135269;5.6599;-17.5663;0.2753;-0.2699;0.2395;-0.2988
0000135278;5.6599;-17.3963;0.2777;-0.2678;0.2168;-0.2629
0000135287;5.7317;-17.0180;0.3855;-0.2445;0.1873;-0.2290
0000135299;5.7533;-16.7786;0.5531;-0.1651;0.1416;-0.1867
0000135308;5.7221;-16.3811;0.7398;-0.1127;0.1139;-0.1733
0000135321;5.8682;-15.8664;1.0056;-0.0554;0.0815;-0.2174
0000135330;6.2872;-15.3468;1.1636;-0.0406;0.0597;-0.2795
0000135342;6.5362;-15.0619;1.2570;-0.0458;0.0293;-0.3641
0000135351;6.5529;-14.7363;1.1756;-0.0722;0.0047;-0.4137
0000135364;6.4739;-14.3868;1.1564;-0.1030;-0.0356;-0.4334
0000135373;6.0717;-14.3580;1.1372;-0.1131;-0.0699;-0.4154
0000135385;5.5426;-14.3365;1.0247;-0.1082;-0.1256;-0.3687
0000135394;5.3271;-14.3652;0.9170;-0.1049;-0.1693;-0.3309
0000135403;5.2074;-14.6262;0.7039;-0.1142;-0.2056;-0.2848
0000135468;6.2824;-16.5272;0.5291;0.0586;-0.4654;-0.0670
0000135477;6.5386;-16.3883;0.4812;0.0502;-0.4572;-0.0790
0000135489;6.8283;-16.0268;0.4118;0.0424;-0.4411;-0.1051
0000135498;7.1275;-15.7922;0.4860;0.0027;-0.4082;-0.1092
0000135511;6.9528;-15.7874;0.3184;-0.0566;-0.3665;-0.1195
0000135520;7.0868;-15.6653;0.1125;-0.0938;-0.3353;-0.1071
0000135532;6.7804;-15.8712;0.1053;-0.1085;-0.3070;-0.0943
0000135541;6.6224;-16.1297;0.0503;-0.0907;-0.2919;-0.0842
0000135554;6.7421;-16.0842;-0.0527;-0.0388;-0.2642;-0.0791
0000135563;6.7181;-15.8736;-0.0407;0.0133;-0.2498;-0.0873
0000135572;6.8115;-15.8185;-0.0910;0.0605;-0.2218;-0.0813
0000135584;6.9288;-15.5288;0.0766;0.1092;-0.1877;-0.0774
0000135593;7.1539;-15.1768;0.0982;0.1230;-0.1576;-0.0741
0000135606;7.1491;-14.9015;0.1341;0.1215;-0.1053;-0.0530
0000135615;7.1251;-14.9398;0.0886;0.1175;-0.0709;-0.0464
0000135627;7.3310;-14.9518;0.0599;0.0990;-0.0116;-0.0254
0000135636;7.3981;-14.9781;0.1149;0.0841;0.0308;-0.0097
0000135649;7.5058;-15.0404;-0.0790;0.0654;0.1051;0.0108
0000135658;7.5848;-14.9494;-0.1173;0.0649;0.1571;0.0153
0000135670;7.4172;-14.7555;-0.2586;0.0730;0.2276;0.0120
0000135679;7.5441;-14.4514;-0.3256;0.0781;0.2888;0.0011
0000135688;7.4939;-14.3676;-0.3112;0.0886;0.3389;-0.0148
0000135753;7.2018;-14.2431;-0.4022;0.0144;0.6483;0.0497
0000135762;7.1084;-14.7291;-0.3639;0.0328;0.6639;0.0409
0000135774;6.6942;-15.1505;-0.2298;0.1270;0.6727;0.0226
0000135783;6.6655;-15.2104;-0.2705;0.2121;0.6823;0.0109
0000135796;6.3925;-15.0476;-0.0862;0.3146;0.6432;-0.0333
0000135805;6.0717;-14.8201;0.1891;0.3565;0.5933;-0.0486
0000135817;5.9879;-14.6381;0.4956;0.3611;0.4888;-0.0302
0000135826;5.6767;-14.6501;0.5914;0.3315;0.3836;0.0067
0000135835;5.5498;-15.0308;0.5387;0.2449;0.2727;0.0743
0000135848;5.2433;-15.6533;0.3519;0.1176;0.1086;0.1769
0000135857;5.2840;-15.9717;0.3472;0.0779;-0.0019;0.2382
0000135869;5.3463;-16.0651;0.4453;0.0833;-0.1275;0.2730
0000135878;5.4037;-15.9478;0.4262;0.1098;-0.2148;0.2430
0000135891;5.6719;-15.7395;0.4381;0.1115;-0.3116;0.1915
0000135900;6.1723;-15.5144;0.2777;0.0969;-0.3427;0.2028
0000135912;6.5793;-15.6174;0.2083;0.0837;-0.3704;0.2650
0000135921;6.7181;-15.7562;0.1437;0.0711;-0.3928;0.3393
0000135930;6.7205;-15.5886;-0.0192;0.0580;-0.4315;0.4060
0000135943;6.4620;-14.9925;-0.0335;0.0261;-0.4940;0.4337
0000135952;6.3566;-14.4155;-0.0814;-0.0157;-0.5397;0.3882
0000135964;6.0214;-13.7954;-0.0694;-0.1262;-0.5856;0.2590
0000135973;6.1411;-13.1633;-0.2777;-0.2433;-0.6326;0.1420
0000136040;5.7054;-17.7362;0.9912;-0.1211;-0.9188;0.0777
0000136049;5.1739;-18.7490;1.7980;0.0121;-0.9790;0.0085
0000136062;4.3598;-20.2621;2.0782;0.1010;-1.0670;-0.1643
0000136071;3.7828;-20.8439;2.1284;0.1191;-1.1588;-0.2990
0000136083;3.3160;-20.5901;2.1715;0.1434;-1.2951;-0.3724
0000136092;3.4524;-19.3571;2.0399;0.1612;-1.3928;-0.3139
0000136101;4.4987;-17.9565;2.3415;0.1579;-1.4634;-0.1899
0000136114;6.4308;-16.9055;2.6145;0.0770;-1.4730;-0.0007
0000136123;7.3095;-17.1832;2.8754;0.0188;-1.3920;0.0849
0000136135;7.6638;-18.7538;2.8994;-0.0561;-1.2116;0.1286
0000136144;7.8578;-19.7067;2.3391;-0.1100;-1.0504;0.0953
0000136157;7.8865;-21.1863;1.1444;-0.2395;-0.7705;-0.0305
0000136166;7.7979;-21.3659;0.4573;-0.2742;-0.5693;-0.1159
0000136178;7.9033;-20.6548;-0.0694;-0.2062;-0.3138;-0.1304
0000136187;8.0828;-19.2614;-0.0742;-0.1545;-0.1498;-0.1135
0000136200;7.4077;-17.7171;0.0622;-0.1847;0.0340;-0.0652
0000136209;6.7732;-16.9031;0.1317;-0.2298;0.1224;-0.0242
0000136218;6.0382;-16.6397;0.2346;-0.2619;0.1729;0.0091
0000136230;5.3127;-16.5846;0.4501;-0.2734;0.1880;0.0413
0000136239;4.3838;-16.6900;0.5698;-0.2286;0.1583;0.0456
0000136252;4.0941;-16.5415;0.6776;-0.1535;0.0826;0.0424
0000136261;3.8738;-16.2997;0.7207;-0.1027;0.0139;0.0362
0000136328;6.4332;-15.1481;1.4078;0.2053;-0.1673;0.0570
0000136337;6.5888;-15.1218;1.2498;0.2240;-0.1274;0.0369
0000136350;6.7469;-15.3133;1.0654;0.2009;-0.0164;0.0292
0000136359;6.9288;-15.3349;1.0942;0.1805;0.0722;0.0296
0000136368;6.9719;-15.5312;1.0846;0.1727;0.1484;0.0233
0000136380;6.8761;-15.8233;1.1181;0.1684;0.2481;0.0040
0000136389;6.7421;-15.9574;1.0702;0.1613;0.3230;-0.0049
0000136402;6.5505;-15.8855;0.7925;0.1565;0.3901;-0.0177
0000136411;6.1435;-16.0100;0.8356;0.1492;0.4020;-0.0188
0000136423;5.9664;-15.8999;0.7757;0.1338;0.4006;0.0159
0000136432;5.5043;-16.0028;0.7446;0.1306;0.3790;0.0397
0000136445;5.3343;-15.9478;0.7039;0.1278;0.3280;0.0793
0000136454;5.0566;-15.8927;0.8212;0.1343;0.2943;0.1061
0000136463;4.8937;-15.5096;0.8523;0.1358;0.2486;0.1184
0000136475;5.0326;-15.1744;0.5842;0.0897;0.1962;0.1231
0000136484;5.0637;-15.0547;0.4645;0.0388;0.1539;0.1206
0000136497;5.1930;-15.1122;0.2658;-0.0478;0.1122;0.1274
0000136506;5.2816;-15.2343;0.0096;-0.1042;0.0861;0.1298
0000136518;5.2337;-15.5575;-0.2227;-0.1455;0.0554;0.1228
0000136527;5.2529;-15.5958;-0.2538;-0.1408;0.0301;0.1041
0000136540;5.1380;-15.4043;-0.4812;-0.1267;-0.0079;0.0593
0000136549;5.0182;-15.3253;-0.4166;-0.1308;-0.0494;0.0175
0000136558;4.8028;-15.0883;-0.3041;-0.1270;-0.1106;-0.0228
0000136627;4.5155;-13.3596;-0.1556;-0.1920;-0.6326;0.0659
0000136636;4.6400;-13.3237;-0.4477;-0.1861;-0.6759;0.0854
0000136649;5.0111;-13.3094;-0.7518;-0.1976;-0.7103;0.0978
0000136658;5.2960;-13.5440;-0.8164;-0.2149;-0.7151;0.0995
0000136670;5.7126;-14.2000;-0.5650;-0.2214;-0.6980;0.0959
0000136679;6.1459;-14.8512;-0.4693;-0.2096;-0.6757;0.0632
0000136692;6.5553;-15.6940;-0.3184;-0.1648;-0.6199;-0.0076
0000136701;6.7229;-16.3452;-0.2490;-0.1106;-0.5790;-0.0685
0000136713;6.5841;-16.5751;-0.2849;-0.0513;-0.5009;-0.1322
0000136722;6.4045;-16.2327;-0.3567;-0.0336;-0.4206;-0.1665
0000136735;6.2944;-15.5360;-0.4334;-0.0296;-0.3206;-0.2193
0000136744;6.1148;-15.1314;-0.5818;-0.0528;-0.2368;-0.2543
0000136756;6.0597;-15.1002;-0.6369;-0.1102;-0.1335;-0.3083
0000136765;6.1627;-15.3205;-0.6919;-0.1527;-0.0621;-0.3529
0000136774;6.4212;-15.6102;-0.7494;-0.1767;-0.0027;-0.4050
0000136787;6.5697;-16.0196;-0.5578;-0.1342;0.0689;-0.4510
0000136796;6.4787;-16.1824;-0.6225;-0.0662;0.1083;-0.4706
0000136808;6.5864;-15.6413;-0.7039;0.0512;0.1720;-0.4812
0000136817;6.5769;-15.2032;-0.7949;0.1057;0.2403;-0.4815
0000136830;6.3686;-14.3652;-0.6680;0.1751;0.3051;-0.4919
0000136839;6.2704;-13.7092;-0.6201;0.1849;0.3448;-0.5013
0000136908;6.0549;-12.7587;1.2594;-0.1200;0.4682;0.0244
0000136917;6.0932;-13.5201;1.7549;-0.0213;0.4971;0.1601
0000136930;6.5841;-14.5208;2.2410;0.1037;0.5617;0.3555
0000136939;6.9959;-15.6365;2.8467;0.1262;0.6082;0.4490
0000136948;7.8338;-16.9509;3.4548;0.1095;0.6630;0.5151
0000136960;8.9352;-18.5096;3.2417;0.0337;0.7485;0.5363
0000136969;9.1482;-18.7227;1.7789;-0.0506;0.8363;0.4842
0000136982;8.3103;-17.3987;0.2418;-0.1592;1.0011;0.3179
0000136991;6.7804;-16.5128;0.2514;-0.2402;1.1202;0.2158
0000137003;4.6591;-16.3787;1.1277;-0.3657;1.1770;0.0949
0000137012;3.2202;-17.5040;1.3671;-0.4486;1.1114;0.0121
0000137025;2.4301;-20.3076;2.1069;-0.4135;0.9210;0.0123
0000137034;2.4493;-22.6659;2.9329;-0.2148;0.7726;0.1203
0000137043;3.1149;-24.1719;2.3846;0.0224;0.6015;0.2545
0000137055;5.2481;-23.3746;0.6680;0.2840;0.3467;0.3018
0000137064;6.6463;-21.4090;0.7326;0.2926;0.2631;0.2785
0000137077;6.2800;-18.6987;1.2761;0.0426;0.2194;0.1929
0000137086;5.4779;-17.8320;1.1085;-0.1800;0.1663;0.1412
0000137098;4.0941;-18.4473;0.5100;-0.4149;0.0456;0.1316
0000137107;3.5889;-19.4074;0.5291;-0.4679;-0.0689;0.1360
0000137120;4.2665;-20.9636;0.3376;-0.3653;-0.2306;0.0897
0000137129;5.3391;-21.4042;0.0479;-0.2621;-0.2801;0.0402
0000137138;6.2369;-20.9636;-0.0934;-0.1358;-0.2844;-0.0096
0000137207;6.6750;-16.6612;1.0008;-0.0469;0.0357;-0.2216
0000137216;6.7181;-16.1776;0.9744;-0.0829;0.0633;-0.2537
0000137229;6.4691;-16.1585;0.8906;-0.1200;0.0799;-0.2627
0000137238;6.1196;-16.0986;0.7326;-0.1246;0.0723;-0.2563
0000137250;5.8035;-16.0890;0.5962;-0.1199;0.0364;-0.2140
0000137259;5.5761;-16.0723;0.5914;-0.0871;-0.0176;-0.1829
0000137272;5.2744;-16.0579;0.4717;-0.0068;-0.1058;-0.1351
0000137281;5.4181;-15.6868;0.4094;0.0430;-0.1696;-0.1009
0000137293;5.4851;-15.3373;0.4980;0.1143;-0.2606;-0.0729
0000137302;5.5952;-14.9925;0.6225;0.1466;-0.3307;-0.0581
0000137311;5.6431;-14.9135;0.6249;0.1466;-0.3829;-0.0254
0000137324;5.8155;-14.7196;0.5171;0.1162;-0.4518;-0.0048
0000137333;5.9065;-14.9638;0.5315;0.0925;-0.4850;0.0061
0000137345;6.0980;-15.1840;0.4262;0.0546;-0.5085;0.0129
0000137354;6.2273;-15.4665;0.4334;0.0264;-0.5017;0.0135
0000137367;6.4955;-15.7419;0.3065;0.0093;-0.4956;-0.0257
0000137376;6.6846;-15.7922;0.2897;0.0289;-0.4780;-0.0518
0000137388;6.9360;-15.7754;0.1532;0.0562;-0.4421;-0.0829
0000137397;7.0294;-15.7634;-0.0048;0.0572;-0.4012;-0.0991
0000137406;6.9408;-15.8161;-0.0910;0.0600;-0.3625;-0.1122
0000137420;6.9911;-15.7203;-0.1245;0.0546;-0.2844;-0.1180
0000137429;7.0725;-15.5910;-0.1389;0.0677;-0.2449;-0.1180
0000137498;6.8378;-15.1744;-0.2658;0.0849;0.0345;-0.0091
0000137507;6.9001;-15.0308;-0.3017;0.0950;0.0663;0.0120
0000137519;7.0461;-14.9781;-0.2251;0.1228;0.1090;0.0365
0000137528;6.8091;-14.8536;-0.1556;0.1428;0.1475;0.0446
0000137541;6.7301;-14.5855;-0.2490;0.1623;0.2016;0.0354
0000137550;6.8953;-14.2718;-0.1556;0.1768;0.2415;0.0148
0000137562;6.8738;-13.7307;-0.1652;0.1779;0.2930;-0.0228
0000137571;6.7708;-13.6254;-0.0431;0.1701;0.3269;-0.0465
0000137580;7.0509;-13.4626;-0.2466;0.1667;0.3541;-0.0561
0000137593;7.2975;-13.0532;-0.3304;0.1406;0.4210;-0.0333
0000137602;7.3933;-13.0077;-0.4334;0.0965;0.4759;0.0104
0000137614;7.5513;-13.0556;-0.5315;0.0274;0.5391;0.0822
0000137623;7.6231;-13.1729;-0.6177;-0.0195;0.5749;0.1459
0000137636;7.5992;-13.5368;-0.7398;-0.0931;0.6118;0.2133
0000137645;7.2927;-14.0731;-0.6800;-0.1148;0.6193;0.2301
0000137657;7.0342;-14.5472;-0.3711;-0.0874;0.6179;0.2324
0000137666;6.6535;-14.8584;-0.2586;-0.0372;0.6002;0.1951
0000137679;5.7724;-15.5934;-0.2993;0.0478;0.5696;0.1362
0000137688;5.8754;-15.5384;-0.2777;0.1111;0.5440;0.1188
0000137697;5.5522;-15.5527;-0.1532;0.1641;0.5111;0.1239
0000137709;5.5785;-15.3899;-0.0096;0.2016;0.4453;0.1713
0000137718;5.2170;-15.4187;-0.1556;0.1775;0.3729;0.2221
0000137787;6.1100;-14.5903;0.1101;0.1923;0.0588;0.2602
0000137796;6.5338;-14.5400;0.0910;0.1363;0.0717;0.2529
0000137808;6.9168;-14.1737;0.0503;0.0520;0.0722;0.2537
0000137817;7.2233;-13.7906;-0.1724;0.0029;0.0652;0.2457
0000137830;6.9288;-13.6757;-0.3280;-0.0578;0.0388;0.2105
0000137839;6.8307;-13.5344;-0.5004;-0.0946;0.0128;0.1860
0000137848;6.3758;-13.4410;-0.0144;-0.1196;-0.0096;0.1609
0000137860;5.8466;-13.6350;0.1676;-0.1005;-0.0044;0.1695
0000137869;5.2074;-14.2192;0.5890;-0.0426;-0.0161;0.1601
0000137882;4.6304;-15.1122;1.1612;0.0827;-0.0521;0.1395
0000137891;3.8571;-16.4386;1.7478;0.1893;-0.1232;0.0814
0000137903;3.3351;-18.5886;2.7725;0.3380;-0.2629;-0.0538
0000137912;2.6336;-20.5877;3.3136;0.3960;-0.3832;-0.1845
0000137925;2.1069;-22.0817;3.1053;0.4347;-0.6150;-0.3977
0000137934;1.9393;-21.6340;2.7150;0.4513;-0.7897;-0.4756
0000137943;2.3032;-19.6205;2.6217;0.4314;-0.9590;-0.4578
0000137955;4.0941;-16.9294;3.4046;0.2410;-1.1073;-0.2252
0000137964;5.5282;-16.5032;4.1635;0.0380;-1.1387;-0.0153
0000137977;6.2848;-18.4928;4.0007;-0.1490;-1.0756;0.2045
0000137986;6.4524;-19.0291;2.7869;-0.2340;-1.0231;0.2567
0000137998;6.7109;-19.1967;1.2929;-0.4339;-0.8904;0.2411
0000138007;7.3550;-18.9142;0.6273;-0.5594;-0.7354;0.2224
0000138075;5.5617;-19.1728;0.4190;-0.1508;0.5826;-0.1787
0000138084;4.6878;-18.8065;0.6057;-0.1366;0.6203;-0.2178
0000138096;4.0247;-18.0882;0.6608;-0.1394;0.6023;-0.2362
0000138105;3.9456;-17.3675;0.9122;-0.1472;0.5550;-0.2244
0000138114;4.1156;-16.7618;0.9385;-0.1592;0.5097;-0.1949
0000138127;4.2377;-16.2279;0.9529;-0.1612;0.4386;-0.1395
0000138136;4.0414;-16.1728;1.0151;-0.1641;0.3930;-0.0835
0000138148;4.1372;-16.0986;0.9697;-0.1446;0.3196;-0.0152
0000138157;4.1755;-15.9262;1.1205;-0.0989;0.2597;0.0310
0000138170;4.2162;-15.6509;1.0511;-0.0240;0.1680;0.1001
0000138179;4.4819;-15.2918;1.0942;0.0476;0.1063;0.1318
0000138191;4.4867;-15.2271;1.1181;0.1151;0.0470;0.1729
0000138200;4.8961;-14.8656;1.0606;0.1354;0.0258;0.1927
0000138209;5.0374;-14.7962;0.9481;0.1368;0.0083;0.1935
0000138222;5.2672;-14.8488;0.9218;0.1001;0.0076;0.1721
0000138231;5.0829;-14.9877;0.8021;0.0577;0.0107;0.1216
0000138243;5.1547;-15.3756;0.6081;0.0075;0.0362;0.0500
0000138252;5.2122;-16.0005;0.6440;0.0045;0.0556;-0.0011
0000138265;5.5809;-16.0172;0.6440;0.0492;0.0797;-0.0613
0000138274;5.6288;-16.0483;0.6105;0.0899;0.0935;-0.0922
0000138286;5.5593;-15.9430;0.6728;0.1140;0.1090;-0.1050
0000138295;5.3965;-15.9981;0.7039;0.1194;0.1182;-0.0881
0000138304;5.4827;-15.7467;0.7829;0.1043;0.1179;-0.0553
0000138373;4.8866;-16.0819;0.1844;-0.0572;0.0180;0.0608
0000138382;4.8674;-16.0268;0.0982;-0.0254;0.0051;0.0341
0000138394;5.0901;-15.8161;0.1437;-0.0088;-0.0124;0.0079
0000138403;5.0518;-15.7084;0.1915;-0.0085;-0.0298;-0.0013
0000138416;5.2553;-15.6054;0.2825;-0.0088;-0.0743;-0.0278
0000138425;5.2792;-15.3827;0.2969;-0.0048;-0.1010;-0.0262
0000138437;5.1116;-15.4953;0.1437;0.0020;-0.1472;-0.0191
0000138446;4.9871;-15.5120;0.0910;0.0032;-0.1892;-0.0015
0000138459;4.6112;-15.6629;0.0455;-0.0136;-0.2453;0.0241
0000138468;4.6519;-15.4618;0.1053;-0.0258;-0.3026;0.0236
0000138477;4.6974;-15.3947;0.0048;-0.0262;-0.3467;0.0324
0000138489;4.4197;-15.3875;-0.0838;-0.0317;-0.4191;0.0193
0000138498;4.5610;-15.3780;-0.1030;-0.0372;-0.4760;-0.0011
0000138511;5.0159;-15.1721;-0.2849;-0.0440;-0.5384;-0.0386
0000138520;5.0613;-15.3540;-0.2729;-0.0482;-0.5652;-0.0722
0000138532;5.3295;-15.2295;-0.4549;-0.0537;-0.5902;-0.1375
0000138541;5.6838;-15.0356;-0.4741;-0.0624;-0.6055;-0.1897
0000138554;5.7652;-14.8943;-0.4046;-0.0673;-0.5849;-0.2618
0000138563;5.8442;-14.8871;-0.3448;-0.0498;-0.5714;-0.2862
0000138575;5.8802;-14.6190;-0.4166;-0.0132;-0.5501;-0.2798
0000138584;5.8155;-14.3101;-0.3879;-0.0120;-0.5325;-0.2629
0000138652;5.1404;-14.7100;-0.8068;-0.2972;-0.5684;-0.2370
0000138661;5.1547;-14.8991;-0.7685;-0.2750;-0.5693;-0.2483
0000138673;5.4827;-15.1146;-0.7925;-0.2220;-0.5758;-0.2377
0000138682;5.3558;-15.4354;-0.7590;-0.1532;-0.5929;-0.2280
0000138691;5.5952;-15.4043;-0.7566;-0.0867;-0.5986;-0.2124
0000138704;5.6168;-15.6317;-0.6440;0.0029;-0.5915;-0.2254
0000138713;5.8921;-15.5168;-0.6249;0.0485;-0.5777;-0.2689
0000138725;6.1076;-15.4761;-0.5722;0.0576;-0.5301;-0.3557
0000138734;6.1890;-15.5432;-0.3903;0.0123;-0.4812;-0.4295
0000138747;6.3398;-15.3277;-0.4525;-0.0935;-0.3880;-0.5208
0000138756;6.3877;-15.4570;-0.4645;-0.1455;-0.3135;-0.5474
0000138768;6.8115;-15.3780;-0.3903;-0.1683;-0.2206;-0.5458
0000138777;6.8307;-15.4187;-0.3376;-0.1498;-0.1595;-0.5173
0000138790;7.0150;-15.1577;-0.1963;-0.1367;-0.0863;-0.4664
0000138799;6.8115;-15.0787;-0.2179;-0.1251;-0.0497;-0.4334
0000138811;6.6774;-14.7387;-0.1365;-0.0977;-0.0209;-0.3768
0000138820;6.2560;-14.4538;-0.1891;-0.0867;0.0009;-0.3138
0000138833;5.6790;-13.6924;-0.2658;-0.0717;-0.0091;-0.2260
0000138842;5.1068;-13.3022;-0.3136;-0.0762;-0.0428;-0.1639
0000138851;5.0111;-12.6510;-0.3352;-0.1115;-0.0673;-0.0882
0000138863;4.7429;-11.9614;-0.5890;-0.1793;-0.1005;0.0043
0000138872;4.8914;-11.7364;-0.7374;-0.2437;-0.1218;0.0683
0000138941;8.2001;-18.9812;3.3567;0.3917;0.2449;0.5818
0000138950;8.9807;-19.6181;3.0335;0.3904;0.3780;0.6416
0000138963;9.6989;-19.1440;1.3838;0.1568;0.6233;0.6206
0000138972;9.4739;-18.6724;1.1229;-0.0554;0.8432;0.5271
0000138984;8.1139;-18.1313;1.1803;-0.2978;1.0805;0.2992
0000138993;6.5074;-18.0355;1.0846;-0.3761;1.1850;0.1316
0000139002;5.7221;-18.4354;0.9768;-0.4029;1.2180;0.0254
0000139015;4.7309;-19.3571;0.9673;-0.3756;1.1679;-0.0833
0000139024;4.5442;-19.9341;1.1013;-0.3052;1.0869;-0.1299
0000139036;4.2449;-21.2605;0.9361;-0.1947;0.9687;-0.1276
0000139045;4.4724;-21.6292;0.6967;-0.1415;0.8812;-0.0658
0000139058;4.6088;-21.8662;0.5602;-0.0843;0.7518;0.0624
0000139067;4.5226;-21.5550;0.4693;-0.0466;0.6412;0.0991
0000139079;4.8483;-20.5853;0.6081;-0.0289;0.4838;0.0529
0000139088;5.2146;-19.6037;1.0223;-0.0654;0.3865;-0.0080
0000139101;5.2218;-18.6700;1.3743;-0.1462;0.2741;-0.1100
0000139110;5.3606;-18.1840;1.4748;-0.2334;0.2113;-0.1677
0000139119;5.6168;-17.9924;1.2713;-0.3174;0.1540;-0.2165
0000139131;6.0358;-17.9374;1.0487;-0.4128;0.0949;-0.2879
0000139140;6.6798;-17.8943;0.8284;-0.4626;0.0771;-0.3226
0000139205;6.0932;-16.8959;0.4094;0.0739;0.0155;-0.2145
0000139214;6.0214;-16.4314;0.4788;0.1138;0.0031;-0.1913
0000139226;6.2034;-15.7778;0.6129;0.1338;-0.0131;-0.1811
0000139235;6.1651;-15.5096;0.7278;0.1219;-0.0281;-0.1668
0000139248;6.4380;-15.1433;0.7566;0.1049;-0.0677;-0.1583
0000139257;6.5505;-15.0045;0.6776;0.0921;-0.0850;-0.1402
0000139266;6.5577;-15.1074;0.6656;0.0953;-0.1120;-0.1176
0000139278;6.4620;-15.2128;0.5722;0.0989;-0.1382;-0.0818
0000139287;6.4931;-15.1792;0.5674;0.1074;-0.1616;-0.0652
0000139300;6.4428;-15.2846;0.3639;0.1226;-0.1839;-0.0301
0000139309;6.1842;-15.4019;0.3807;0.1411;-0.2132;-0.0302
0000139321;6.1148;-15.4354;0.3232;0.1528;-0.2471;-0.0416
0000139330;5.7269;-15.5623;0.3663;0.1488;-0.2803;-0.0569
0000139343;5.9927;-15.5408;0.3089;0.1340;-0.3399;-0.0878
0000139352;6.0071;-15.7036;0.3472;0.1130;-0.3713;-0.0971
0000139364;6.4212;-15.6437;0.2634;0.0982;-0.4066;-0.1043
0000139373;6.4380;-15.7969;0.1844;0.0867;-0.4306;-0.1059
0000139382;6.7373;-15.6317;0.0838;0.0858;-0.4374;-0.1018
0000139395;6.7301;-15.6772;0.0551;0.0706;-0.4315;-0.0833
0000139404;6.8929;-15.3684;-0.0527;0.0502;-0.4247;-0.0678
0000139416;6.9647;-15.4354;-0.2035;0.0237;-0.4014;-0.0526
0000139425;6.9647;-15.3756;-0.2394;0.0111;-0.3844;-0.0494
0000139490;7.0533;-16.2423;-0.6464;0.0218;-0.1844;0.0392
0000139499;7.1251;-16.1010;-0.6009;0.0454;-0.1541;0.0598
0000139511;7.2113;-15.9238;-0.5866;0.0568;-0.0979;0.0730
0000139520;7.1850;-15.7515;-0.5195;0.0665;-0.0609;0.0787
0000139533;7.1012;-15.4354;-0.4070;0.0521;0.0024;0.0806
0000139542;6.9983;-15.1002;-0.3112;0.0254;0.0441;0.0755
0000139551;6.8378;-14.9231;-0.1053;0.0060;0.0665;0.0541
0000139563;6.7516;-14.3389;-0.0407;-0.0462;0.0945;0.0081
0000139572;6.7612;-14.0348;0.0718;-0.0971;0.1215;-0.0269
0000139585;6.5912;-13.6996;0.0096;-0.1703;0.1346;-0.0846
0000139594;6.6942;-13.4602;-0.2251;-0.2030;0.1383;-0.1062
0000139606;6.8307;-13.4195;-0.4908;-0.2703;0.1536;-0.0791
0000139615;7.1874;-13.4243;-0.6895;-0.3126;0.1495;-0.0345
0000139628;7.0964;-14.0061;-0.8882;-0.3609;0.1551;0.0851
0000139637;7.0892;-14.6621;-1.1875;-0.4002;0.1633;0.1468
0000139649;6.9887;-15.1697;-1.2522;-0.3644;0.1671;0.2128
0000139658;7.0246;-15.6868;-1.1827;-0.3265;0.1727;0.2399
0000139667;6.6726;-16.1226;-1.0606;-0.2530;0.1760;0.2370
0000139680;6.6870;-16.1082;-0.9984;-0.0866;0.1681;0.1899
0000139689;6.6990;-15.8688;-1.0654;0.0321;0.1639;0.1579
0000139701;6.5457;-15.6461;-1.0008;0.1327;0.1624;0.1472
0000139710;6.5936;-15.3564;-1.0104;0.1651;0.1525;0.1519
0000139775;5.8778;-14.8871;-0.5459;0.3720;-0.1403;0.1641
0000139784;6.0765;-14.6717;-0.5411;0.4128;-0.1615;0.1663
0000139796;6.3901;-14.6789;-0.5650;0.4245;-0.1759;0.2056
0000139805;6.5888;-15.0547;-0.6057;0.3901;-0.1909;0.2626
0000139818;7.0030;-15.5360;-0.7135;0.3214;-0.1958;0.3830
0000139827;6.9264;-16.3596;-0.7638;0.2998;-0.2190;0.4604
0000139836;7.3215;-16.6636;-0.7566;0.3196;-0.2455;0.5080
0000139848;7.1611;-17.0635;-0.6249;0.4137;-0.2621;0.4734
0000139857;7.0126;-16.6612;-0.5243;0.4931;-0.2750;0.3905
0000139870;6.4739;-15.5479;-0.5028;0.5705;-0.2852;0.2431
0000139879;6.2417;-14.4753;-0.4405;0.5733;-0.3076;0.1580
0000139891;6.0166;-13.2447;-0.4453;0.4803;-0.3405;0.0919
0000139900;6.0669;-12.7970;-0.5148;0.3503;-0.3687;0.0675
0000139913;6.3542;-12.8257;-0.1389;0.1747;-0.3985;0.0666
0000139922;6.3829;-13.2447;-0.0192;0.0811;-0.4090;0.0806
0000139934;6.3039;-14.1114;0.2490;0.0173;-0.4309;0.0710
0000139943;6.3542;-14.6238;0.5555;0.0149;-0.4590;0.0187
0000139952;6.0885;-15.4139;0.9098;0.0348;-0.4842;-0.0397
0000139965;5.3510;-16.6900;1.7789;0.1001;-0.5590;-0.1555
0000139974;4.8937;-17.5208;2.6384;0.1492;-0.6386;-0.2381
0000139986;3.9025;-18.7059;3.0885;0.1435;-0.7755;-0.3281
0000139995;3.0239;-19.0794;2.8922;0.0815;-0.9049;-0.3355
0000140060;7.1323;-16.9438;1.8196;-0.3222;-1.1094;0.3738
0000140069;7.3670;-17.4154;1.3264;-0.3373;-0.9421;0.3761
0000140081;7.4675;-18.3923;0.9505;-0.3304;-0.6643;0.3183
0000140090;7.8769;-18.9190;0.7925;-0.3031;-0.4337;0.2196
0000140099;7.7452;-19.8312;0.5962;-0.2362;-0.2233;0.1015
0000140112;7.5130;-19.9389;0.5507;-0.1218;0.0406;-0.0707
0000140121;6.6032;-19.9700;0.6321;-0.0322;0.1828;-0.1464
0000140133;5.6431;-18.9645;0.8787;0.0228;0.2959;-0.1879
0000140142;5.0805;-18.1313;0.9936;-0.0492;0.3321;-0.1633
0000140155;4.4628;-17.0826;0.8140;-0.2695;0.2902;-0.0794
0000140164;4.0773;-16.9821;0.6153;-0.4457;0.2332;0.0207
0000140176;3.7445;-17.5998;0.0982;-0.5730;0.1474;0.1548
0000140185;3.2992;-18.1648;-0.1724;-0.5585;0.0750;0.2261
0000140198;3.1843;-18.7777;-0.3232;-0.3946;-0.0406;0.2854
0000140207;3.2346;-18.7322;-0.2322;-0.2273;-0.1158;0.2990
0000140216;3.6775;-18.2869;-0.1987;-0.0542;-0.1939;0.2677
0000140228;4.2042;-17.8200;0.0622;0.0606;-0.2594;0.2052
0000140237;5.2146;-16.9773;0.2945;0.0938;-0.2843;0.1568
0000140250;5.7509;-16.7929;0.5100;0.1327;-0.2746;0.1095
0000140259;6.2513;-16.4984;0.7350;0.1561;-0.2233;0.1039
0000140271;6.6631;-15.9693;0.8452;0.1545;-0.1287;0.0951
0000140280;6.8690;-15.4306;0.9529;0.1131;-0.0366;0.0787
0000140347;5.0996;-15.6317;0.6488;0.0253;0.3926;-0.1264
0000140356;4.7118;-15.5958;0.5219;0.0428;0.3549;-0.0959
0000140365;4.3718;-15.5096;0.4884;0.0536;0.3042;-0.0544
0000140378;4.0223;-15.7419;0.1269;0.0444;0.1939;0.0008
0000140387;4.0270;-15.9861;0.0718;0.0409;0.1118;0.0296
0000140399;4.3622;-15.8927;-0.0599;0.0420;0.0151;0.0448
0000140408;4.3838;-15.9885;-0.2227;0.0490;-0.0533;0.0390
0000140421;5.1044;-15.9382;-0.2298;0.0636;-0.1091;0.0181
0000140430;5.1380;-15.8329;-0.1867;0.0589;-0.1398;0.0017
0000140442;5.3175;-15.4474;-0.1604;0.0249;-0.1671;-0.0172
0000140451;5.3367;-15.3373;-0.1532;-0.0069;-0.1978;-0.0297
0000140464;5.4516;-15.0260;-0.1341;-0.0589;-0.2186;-0.0244
0000140473;5.3893;-15.0045;-0.2035;-0.0805;-0.2503;-0.0290
0000140482;5.3271;-14.8010;-0.1341;-0.1073;-0.2666;-0.0237
0000140494;5.0829;-14.8297;-0.2586;-0.1379;-0.3070;-0.0297
0000140503;4.9775;-14.8369;-0.3280;-0.1623;-0.3431;-0.0329
0000140516;5.2194;-14.7986;-0.5052;-0.1887;-0.3913;-0.0325
0000140525;5.1930;-14.8967;-0.5267;-0.1912;-0.4226;-0.0338
0000140537;5.2218;-15.0188;-0.5866;-0.1731;-0.4598;-0.0468
0000140546;5.1834;-15.1721;-0.4884;-0.1576;-0.4836;-0.0596
0000140559;5.3271;-15.1026;-0.5004;-0.1328;-0.4944;-0.0703
0000140568;5.4468;-15.0476;-0.5531;-0.1162;-0.5015;-0.0929
0000140635;5.6288;-14.4921;-0.7326;-0.1394;-0.4562;-0.1723
0000140644;5.7437;-14.4514;-0.8787;-0.1539;-0.4453;-0.1704
0000140657;5.7461;-14.7004;-1.0439;-0.1322;-0.4008;-0.1491
0000140666;5.8778;-14.8848;-0.9026;-0.0831;-0.3629;-0.1467
0000140678;5.9975;-15.2630;-0.7159;0.0254;-0.2956;-0.1593
0000140687;5.8730;-15.7945;-0.5052;0.1470;-0.2558;-0.1911
0000140696;6.1292;-15.7419;-0.4836;0.2594;-0.2089;-0.2058
0000140709;5.9951;-15.5982;-0.3424;0.4116;-0.1620;-0.2286
0000140718;5.6072;-15.2247;-0.2370;0.4678;-0.1258;-0.2129
0000140730;5.4851;-14.4059;0.0838;0.4722;-0.0666;-0.1779
0000140739;5.4205;-13.9366;0.3065;0.4241;-0.0213;-0.1560
0000140752;6.1100;-13.1490;0.3352;0.2654;0.0488;-0.1600
0000140761;6.0956;-13.2160;0.2825;0.1049;0.1058;-0.1688
0000140773;6.4476;-13.3908;-0.0694;-0.0977;0.1676;-0.1917
0000140782;6.4021;-13.9917;-0.2298;-0.2045;0.2224;-0.1899
0000140795;6.3949;-14.8345;-0.3663;-0.2767;0.3040;-0.1848
0000140804;6.4284;-15.0787;-0.7135;-0.2645;0.3732;-0.1595
0000140816;6.3422;-15.1601;-0.7733;-0.2098;0.4634;-0.1456
0000140825;6.3446;-14.8584;-0.8978;-0.1745;0.5267;-0.1502
0000140834;6.2034;-14.4275;-1.0774;-0.1612;0.5921;-0.1455
0000140847;6.1699;-13.7475;-1.1133;-0.2013;0.6940;-0.1379
0000140856;6.0142;-13.3285;-1.0511;-0.2486;0.7410;-0.1348
0000140923;5.5929;-15.6964;2.2146;-0.0582;0.9950;0.1904
0000140932;6.1076;-16.9557;3.2489;-0.0187;1.1262;0.2830
0000140945;6.8833;-19.2661;4.1252;-0.0897;1.3125;0.4744
0000140954;7.7955;-20.7865;3.0047;-0.1986;1.4264;0.5596
0000140966;9.1866;-21.0857;0.6943;-0.2490;1.5897;0.5632
0000140975;9.2009;-20.8918;-0.3831;-0.2261;1.7127;0.4073
0000140984;7.8099;-20.3148;-0.1580;-0.2465;1.8225;0.1507
0000140997;4.8123;-20.3531;0.6919;-0.2779;1.8118;-0.2045
0000141006;3.2920;-20.8391;0.8188;-0.2202;1.6554;-0.3695
0000141018;2.0542;-22.0554;1.8842;0.0561;1.3793;-0.3944
0000141027;1.8340;-22.9365;2.0039;0.2882;1.1535;-0.2722
0000141040;2.4804;-22.7377;0.9337;0.4519;0.7783;-0.0141
0000141049;3.6895;-21.4497;0.7470;0.4077;0.5344;0.1081
0000141061;3.9193;-19.6899;0.6895;0.1751;0.2698;0.1112
0000141070;3.8762;-18.5215;0.3376;-0.0485;0.0879;0.0393
0000141083;3.2130;-18.2582;-0.1700;-0.3347;-0.1488;-0.0461
0000141092;3.3232;-18.3707;-0.3687;-0.4385;-0.2858;-0.0971
0000141101;3.7302;-18.5814;-0.2897;-0.4029;-0.3870;-0.1327
0000141113;4.8650;-18.4521;-0.3352;-0.2962;-0.4610;-0.1624
0000141122;5.7988;-17.9900;-0.3615;-0.2286;-0.4854;-0.1628
0000141135;6.7876;-17.6285;-0.4190;-0.1675;-0.4748;-0.1256
0000141144;7.0677;-17.5471;-0.4142;-0.1139;-0.4670;-0.0967
0000141211;6.8690;-14.3413;0.7566;0.3792;-0.0637;-0.2771
0000141220;6.6750;-14.0300;0.7398;0.3259;-0.0501;-0.3321
0000141233;6.5481;-14.0133;0.7733;0.2405;-0.0867;-0.3657
0000141242;6.5050;-14.0875;0.6871;0.1732;-0.1164;-0.3540
0000141254;6.1244;-14.7698;0.6440;0.1335;-0.1723;-0.3084
0000141263;6.0861;-15.1481;0.5842;0.1416;-0.2152;-0.2657
0000141276;6.2968;-15.2319;0.5435;0.1543;-0.2356;-0.1892
0000141285;6.1148;-15.4809;0.4525;0.1648;-0.2405;-0.1484
0000141294;5.9903;-15.5360;0.3543;0.1727;-0.2411;-0.1264
0000141306;5.9089;-15.6150;0.2610;0.1671;-0.2515;-0.1045
0000141315;5.7628;-15.6437;0.2825;0.1544;-0.2570;-0.0969
0000141328;5.5545;-16.0005;0.1844;0.1470;-0.2826;-0.0974
0000141337;5.5498;-16.0962;0.1317;0.1475;-0.3042;-0.0979
0000141349;5.9687;-16.0651;-0.0263;0.1611;-0.3305;-0.1136
0000141358;6.1914;-15.9717;-0.0479;0.1621;-0.3317;-0.1247
0000141371;6.3183;-15.9597;-0.0359;0.1571;-0.3453;-0.1323
0000141380;6.6343;-15.6341;-0.1484;0.1266;-0.3315;-0.1280
0000141392;6.6224;-15.8903;-0.1987;0.0743;-0.3147;-0.1179
0000141401;6.7253;-16.0196;-0.2035;0.0385;-0.3016;-0.1099
0000141410;6.9839;-16.2064;-0.1437;0.0035;-0.2719;-0.0985
0000141423;7.0366;-16.4362;-0.2346;-0.0183;-0.2248;-0.0630
0000141432;6.9887;-16.4649;-0.3017;-0.0008;-0.1952;-0.0424
0000141501;6.9767;-15.0356;-0.0024;0.0325;-0.0087;0.0249
0000141510;7.3694;-14.7459;0.0024;0.0127;0.0289;0.0384
0000141523;7.4388;-14.4083;-0.0934;-0.0104;0.0821;0.0542
0000141532;7.6016;-14.1402;-0.0742;-0.0284;0.1188;0.0637
0000141544;7.5393;-14.0181;-0.0718;-0.0999;0.1772;0.0766
0000141553;7.5537;-14.0061;-0.1604;-0.1576;0.2173;0.0833
0000141566;7.3813;-14.2910;-0.0239;-0.1749;0.2523;0.0957
0000141575;7.3981;-14.3125;0.1724;-0.1735;0.2730;0.1114
0000141584;7.2832;-14.2359;0.0766;-0.1745;0.2839;0.1143
0000141598;7.0797;-14.3077;0.0239;-0.1891;0.2934;0.1168
0000141607;6.6224;-14.3054;-0.1341;-0.2285;0.2854;0.0995
0000141620;6.1004;-14.6142;-0.1365;-0.2082;0.2485;0.0819
0000141629;5.8706;-14.7435;-0.0407;-0.1623;0.2134;0.0877
0000141641;5.5162;-15.2463;0.1484;-0.1059;0.1604;0.1011
0000141650;5.3486;-15.6581;0.1269;-0.0389;0.1067;0.0974
0000141663;5.5115;-16.0555;0.1293;0.0573;0.0332;0.1062
0000141672;5.7269;-16.0483;0.0910;0.1171;-0.0067;0.1202
0000141681;6.0094;-15.4043;-0.0479;0.1510;-0.0544;0.1348
0000141693;6.1196;-14.7842;-0.0934;0.1378;-0.1238;0.1362
0000141702;6.0956;-14.2647;-0.2394;0.0898;-0.1852;0.1447
0000141770;7.6614;-16.4745;-0.8284;0.0990;-0.2859;0.2734
0000141779;8.1786;-16.2399;-0.8571;0.1935;-0.2288;0.2946
0000141791;8.3318;-15.7155;-0.9601;0.2992;-0.1533;0.3032
0000141800;8.2839;-14.9662;-0.8667;0.3432;-0.0958;0.3103
0000141814;7.7237;-14.4155;-0.6728;0.3519;-0.0545;0.2999
0000141823;7.5441;-14.1880;-0.5602;0.3175;-0.0500;0.2932
0000141836;6.8570;-13.9965;-0.3256;0.2168;-0.0564;0.2826
0000141845;6.8307;-13.9223;-0.2658;0.1347;-0.0765;0.2711
0000141854;6.7038;-13.5679;0.0383;0.0277;-0.0974;0.2542
0000141866;6.1124;-13.5368;-0.5243;-0.0703;-0.1605;0.2006
0000141875;5.8179;-13.5105;-0.5387;-0.0938;-0.2300;0.1444
0000141888;5.0087;-13.9917;-0.3328;-0.1684;-0.3539;0.0549
0000141897;4.3287;-14.7148;0.3567;-0.2289;-0.4646;-0.0011
0000141909;3.1795;-16.7427;1.5754;-0.1957;-0.6654;-0.0905
0000141918;1.9297;-18.7634;2.5450;-0.1079;-0.8430;-0.1820
0000141931;0.6297;-21.2054;2.5474;0.0053;-1.1407;-0.3652
0000141940;0.1748;-21.5765;1.9680;0.0346;-1.3791;-0.4964
0000141952;1.5251;-19.9581;1.8938;-0.0028;-1.6743;-0.4582
0000141961;3.6919;-18.0427;2.2577;-0.0974;-1.7782;-0.2546
0000141970;5.3870;-16.4841;2.0973;-0.2173;-1.8381;-0.0578
0000142039;8.1331;-19.6588;0.2897;-0.2016;-0.1320;0.0398
0000142048;7.1323;-19.4768;0.4621;-0.1360;0.0589;-0.0189
0000142060;6.1387;-19.3835;0.5722;-0.0943;0.2254;-0.0783
0000142069;5.0230;-19.5654;0.5890;-0.0787;0.2972;-0.1009
0000142082;3.7589;-19.7641;0.4070;-0.0667;0.3445;-0.0925
0000142091;3.1292;-19.9533;0.4262;-0.0819;0.3269;-0.0805
0000142103;2.3487;-19.6875;0.5124;-0.0669;0.2430;-0.0633
0000142112;2.4301;-18.7490;0.6440;-0.0462;0.1593;-0.0512
0000142125;3.4069;-17.3843;0.5986;-0.0687;0.0304;-0.0258
0000142134;4.1635;-16.7786;0.5339;-0.0985;-0.0404;-0.0076
0000142143;4.8315;-16.3763;0.5004;-0.1158;-0.0811;0.0309
0000142155;5.7054;-16.0028;0.7446;-0.0929;-0.0990;0.0678
0000142164;6.1028;-16.1058;0.8308;-0.0332;-0.0895;0.0929
0000142177;6.6391;-15.7802;0.8308;0.0950;-0.0353;0.1442
0000142186;6.9887;-15.3684;0.8643;0.1856;0.0357;0.1771
0000142198;7.1491;-14.9973;0.8308;0.2300;0.1644;0.2093
0000142207;7.0892;-14.7076;0.8308;0.2301;0.2543;0.2073
0000142220;6.5314;-14.9494;0.7446;0.1955;0.3689;0.1912
0000142229;5.9544;-15.0380;0.8882;0.1613;0.4241;0.1705
0000142238;5.5186;-15.1505;0.7374;0.1490;0.4351;0.1322
0000142250;5.0398;-15.1553;0.7207;0.1504;0.4205;0.0777
0000142259;4.5633;-15.3564;0.6895;0.1524;0.3994;0.0378
0000142327;5.3798;-15.3492;-0.1030;-0.0341;0.0242;-0.0132
0000142336;5.7652;-15.6246;-0.3017;-0.0634;0.0107;-0.0205
0000142348;6.1172;-16.0220;-0.5363;-0.0621;-0.0025;-0.0505
0000142357;6.3111;-16.2758;-0.4453;-0.0417;0.0109;-0.0610
0000142370;5.8179;-16.2566;-0.5076;-0.0008;0.0221;-0.0843
0000142379;5.6982;-16.0890;-0.4717;0.0200;0.0199;-0.0997
0000142391;5.1427;-16.3189;-0.5650;0.0393;0.0049;-0.1083
0000142400;5.2457;-16.0292;-0.4429;0.0779;-0.0191;-0.1216
0000142409;4.9967;-16.1441;-0.3591;0.0973;-0.0494;-0.1167
0000142422;4.8507;-15.8424;-0.3615;0.1246;-0.1138;-0.1183
0000142431;4.8530;-15.7012;-0.1676;0.1126;-0.1478;-0.1085
0000142443;4.8219;-15.4929;-0.1891;0.0949;-0.2000;-0.0910
0000142452;4.7238;-15.4378;-0.1053;0.0830;-0.2498;-0.0863
0000142465;4.7860;-15.3947;-0.1891;0.0634;-0.2996;-0.0586
0000142474;4.8722;-15.3804;-0.0814;0.0476;-0.3285;-0.0422
0000142486;5.2433;-15.2511;-0.1556;0.0257;-0.3637;-0.0179
0000142495;5.4803;-15.0212;-0.2155;0.0093;-0.4002;-0.0280
0000142508;5.3510;-14.8345;-0.1413;-0.0212;-0.4317;-0.0413
0000142517;5.3056;-14.7291;-0.0766;-0.0321;-0.4491;-0.0497
0000142529;4.9201;-14.7148;-0.0862;-0.0288;-0.4766;-0.0537
0000142538;5.1260;-14.4179;-0.1006;-0.0175;-0.4855;-0.0340
0000142607;6.2584;-13.8552;-0.5866;-0.0132;-0.3127;0.0179
0000142616;6.4691;-14.2694;-0.7254;-0.0045;-0.2565;-0.0185
0000142625;6.6319;-14.7148;-0.5746;0.0091;-0.1765;-0.0481
0000142637;6.7469;-15.4857;-0.4286;0.0477;-0.0757;-0.1160
0000142646;6.9336;-15.7275;-0.4549;0.0921;-0.0036;-0.1836
0000142659;6.8043;-16.1992;-0.4022;0.1242;0.1152;-0.2970
0000142668;6.5242;-16.2255;-0.5986;0.1324;0.2016;-0.3625
0000142680;6.2177;-15.6916;-0.6560;0.1286;0.2839;-0.4475
0000142689;6.0956;-15.3468;-0.5746;0.0967;0.3283;-0.4754
0000142702;5.3822;-15.1098;-0.6967;0.0670;0.3569;-0.4599
0000142711;5.3295;-14.9781;-0.8428;0.0679;0.3639;-0.4341
0000142723;5.3917;-14.8081;-0.9960;0.0524;0.3729;-0.4112
0000142732;5.4181;-15.0523;-1.2019;0.0218;0.3869;-0.4016
0000142741;5.4492;-15.1002;-1.2929;-0.0013;0.4026;-0.3993
0000142754;5.7245;-15.0907;-1.4844;-0.0232;0.4174;-0.3970
0000142763;5.8969;-15.0164;-1.4629;-0.0269;0.4318;-0.3695
0000142775;5.8873;-14.5759;-1.4940;-0.0200;0.4493;-0.2940
0000142784;5.9448;-13.8409;-1.4246;-0.0133;0.4628;-0.2253
0000142797;5.7557;-13.1921;-1.4940;-0.0396;0.4902;-0.1394
0000142806;5.8945;-12.7491;-1.6041;-0.0805;0.5304;-0.0958
0000142818;5.7245;-12.9119;-1.1803;-0.1343;0.5716;-0.0789
0000142827;5.6838;-13.8409;-0.0168;-0.1155;0.5963;-0.0814
0000142896;9.6223;-19.5391;2.4373;0.5171;1.1254;0.3600
0000142905;9.1506;-18.8879;1.8459;0.1911;1.3290;0.3687
0000142914;7.6495;-18.3755;1.5060;-0.0790;1.5046;0.3014
0000142926;5.9664;-17.7530;2.2745;-0.2125;1.5925;0.0761
0000142935;4.6352;-17.7793;3.0598;-0.2322;1.5613;-0.0926
0000142948;3.2202;-18.3635;3.6296;-0.1603;1.4023;-0.2018
0000142957;2.3032;-18.9238;3.3950;-0.0286;1.2550;-0.1872
0000142969;1.7142;-19.0985;3.3519;0.1478;1.0587;-0.1058
0000142978;2.6288;-18.6532;3.6440;0.2180;0.9141;-0.0642
0000142991;4.0869;-18.2821;3.7637;0.1704;0.7505;-0.0278
0000143000;5.1667;-18.4641;3.4285;0.0749;0.6742;-0.0234
0000143009;5.8155;-18.7634;2.8395;-0.0293;0.6190;-0.0284
0000143021;6.5793;-18.7945;2.3032;-0.1347;0.5589;-0.0757
0000143030;6.4907;-18.6197;2.1500;-0.1935;0.5396;-0.1231
0000143043;6.1292;-18.0954;1.9632;-0.2447;0.5225;-0.1689
0000143052;5.5665;-17.8991;1.8028;-0.2822;0.5013;-0.1812
0000143064;5.1834;-17.5567;1.6113;-0.3218;0.4639;-0.1865
0000143073;5.0996;-17.4513;1.2929;-0.3449;0.4357;-0.1785
0000143086;4.9895;-17.3221;1.0439;-0.3351;0.3778;-0.1933
0000143095;4.9704;-17.3005;1.0151;-0.2920;0.3376;-0.2173
0000143107;5.0278;-16.9964;0.9744;-0.2004;0.2871;-0.2466
0000143116;5.2146;-16.8241;1.0127;-0.1206;0.2546;-0.2638
0000143125;5.3534;-16.5176;1.0678;-0.0192;0.2121;-0.2967
0000143193;6.7253;-15.6437;0.8523;0.2567;0.0674;-0.2161
0000143202;6.9264;-15.4211;0.7781;0.2611;0.0877;-0.1791
0000143214;6.9216;-15.3923;0.9098;0.2738;0.1111;-0.1752
0000143223;7.0270;-15.2846;0.7829;0.2678;0.1458;-0.1605
0000143236;7.0749;-15.2199;0.6871;0.2749;0.1793;-0.1565
0000143245;6.8642;-15.2966;0.5650;0.2613;0.2128;-0.1516
0000143256;6.5673;-15.2295;0.4788;0.2253;0.2246;-0.1396
0000143265;6.4069;-15.2966;0.3831;0.1984;0.2209;-0.1363
0000143274;6.3829;-15.4641;0.3903;0.1695;0.2168;-0.1230
0000143288;6.1603;-15.7299;0.4597;0.1491;0.1803;-0.1035
0000143297;6.3710;-15.8903;0.3831;0.1551;0.1608;-0.0878
0000143310;6.4811;-15.8999;0.3112;0.1737;0.1368;-0.0565
0000143319;6.6272;-15.8640;0.4142;0.1832;0.1226;-0.0409
0000143331;6.4165;-15.9071;0.4549;0.1701;0.1082;-0.0361
0000143340;6.8115;-15.6461;0.3663;0.1536;0.0961;-0.0526
0000143353;6.7181;-15.6581;0.3448;0.1069;0.0882;-0.0723
0000143362;6.7133;-15.6174;0.2897;0.0855;0.0803;-0.0874
0000143374;6.7995;-15.5934;0.3352;0.0713;0.0762;-0.1091
0000143383;6.6822;-15.6988;0.3663;0.0574;0.0759;-0.1035
0000143392;6.4069;-15.9861;0.3304;0.0565;0.0644;-0.1069
0000143405;6.4715;-16.1010;0.2634;0.0710;0.0618;-0.0842
0000143414;6.6367;-15.9262;0.1915;0.0778;0.0544;-0.0689
0000143483;6.2824;-15.9741;0.3687;-0.0081;-0.0837;-0.0103
0000143492;6.3207;-16.0699;0.3974;-0.0208;-0.1006;0.0053
0000143505;6.4356;-15.9693;0.4381;-0.0149;-0.1552;0.0201
0000143514;6.3470;-16.0388;0.5004;-0.0306;-0.1773;0.0313
0000143526;6.4045;-15.9574;0.5698;-0.0333;-0.2206;0.0320
0000143535;6.2872;-16.1249;0.5171;-0.0396;-0.2518;0.0269
0000143544;6.5481;-15.9310;0.4764;-0.0502;-0.2738;0.0216
0000143557;6.7876;-15.8664;0.3208;-0.0585;-0.2975;0.0183
0000143566;6.7253;-15.7562;0.3950;-0.0640;-0.3142;0.0089
0000143578;6.6918;-15.6772;0.3615;-0.0865;-0.3112;0.0076
0000143587;7.0653;-15.4761;0.1891;-0.1001;-0.3218;0.0045
0000143600;7.1347;-15.6820;0.2562;-0.1287;-0.3218;0.0132
0000143609;7.1658;-15.7443;0.3304;-0.1424;-0.3301;0.0197
0000143621;7.2544;-15.9143;0.3352;-0.1394;-0.3428;0.0313
0000143630;6.9815;-16.1609;0.5267;-0.1351;-0.3440;0.0505
0000143643;7.1012;-15.9861;0.7901;-0.1174;-0.3511;0.0617
0000143652;6.7469;-16.2662;0.8882;-0.1111;-0.3541;0.0608
0000143661;6.8857;-16.0962;0.8882;-0.1339;-0.3447;0.0528
0000143673;6.6319;-16.1992;0.7685;-0.1547;-0.3520;0.0278
0000143682;6.6487;-16.2686;0.6512;-0.1683;-0.3559;0.0125
0000143695;6.6295;-16.2279;0.6225;-0.1937;-0.3696;-0.0043
0000143704;6.9145;-16.2590;0.5794;-0.1955;-0.3797;-0.0151
0000143773;6.6559;-16.3787;0.9792;-0.2076;-0.2691;-0.0661
0000143782;6.7109;-16.2997;1.0104;-0.2554;-0.2679;-0.0921
0000143795;6.6774;-16.0196;0.8116;-0.3319;-0.2534;-0.0981
0000143804;6.8067;-15.9645;0.7446;-0.3741;-0.2414;-0.0806
0000143816;6.6487;-15.9047;0.6656;-0.3993;-0.2333;-0.0520
0000143825;6.8402;-15.7347;0.6800;-0.3980;-0.2325;-0.0316
0000143834;6.5673;-15.8760;0.5866;-0.3941;-0.2324;-0.0052
0000143847;6.3207;-16.0890;0.6584;-0.3604;-0.2356;0.0200
0000143856;5.9903;-16.2183;0.8140;-0.3303;-0.2590;0.0241
0000143868;5.5043;-16.1010;0.7111;-0.2843;-0.2908;0.0197
0000143877;5.5593;-15.8688;0.7757;-0.2430;-0.3368;0.0183
0000143890;5.1571;-15.9358;0.9098;-0.2082;-0.4129;0.0200
0000143899;5.0709;-15.6605;0.9840;-0.1960;-0.4638;0.0228
0000143911;5.1332;-15.5192;0.9816;-0.1803;-0.5444;0.0337
0000143920;5.0781;-15.8233;1.0319;-0.1568;-0.6029;0.0469
0000143933;5.5402;-15.9909;1.0582;-0.1188;-0.6761;0.0545
0000143942;5.8802;-16.0005;1.0870;-0.0919;-0.6977;0.0726
0000143951;6.0980;-16.0986;1.1971;-0.0838;-0.7063;0.0894
0000143963;6.5003;-16.1441;1.0439;-0.0662;-0.7152;0.0951
0000143972;6.6104;-16.2949;1.0630;-0.0540;-0.6961;0.1038
0000143985;6.8259;-16.0842;0.9529;-0.0278;-0.6580;0.0914
0000143994;6.8402;-15.9909;1.0127;-0.0212;-0.6089;0.0921
0000144061;6.8402;-16.4410;1.0175;-0.0445;-0.2388;0.0727
0000144070;6.6080;-16.6182;0.9553;-0.0293;-0.1994;0.0871
0000144083;6.5649;-16.4769;0.9098;-0.0080;-0.1541;0.0963
0000144092;6.3590;-16.4889;1.0487;0.0217;-0.1279;0.0974
0000144104;6.3087;-16.2471;0.9912;0.0406;-0.0849;0.1029
0000144113;6.4308;-16.0603;0.9553;0.0548;-0.0638;0.1018
0000144122;6.2034;-15.9502;0.8859;0.0658;-0.0396;0.0925
0000144135;6.1962;-15.7036;0.8667;0.0652;-0.0065;0.0797
0000144144;6.1723;-15.6126;1.0223;0.0604;0.0109;0.0614
0000144156;6.0262;-15.5839;1.1157;0.0528;0.0282;0.0497
0000144165;5.8419;-15.9047;1.1827;0.0546;0.0433;0.0529
0000144178;5.8802;-15.9502;1.2665;0.0637;0.0568;0.0578
0000144187;5.9328;-16.0842;1.3623;0.0783;0.0721;0.0594
0000144199;5.7628;-16.2973;1.4174;0.1130;0.0826;0.0604
0000144208;5.8634;-16.4817;1.4748;0.1468;0.1033;0.0626
0000144217;5.9711;-16.2662;1.4772;0.1793;0.1184;0.0662
0000144230;6.0478;-16.0962;1.5658;0.2116;0.1532;0.0629
0000144239;6.0262;-16.1202;1.5227;0.2241;0.1839;0.0641
0000144251;6.1842;-15.8448;1.5802;0.2325;0.2240;0.0657
0000144260;6.2776;-15.8640;1.5874;0.2200;0.2673;0.0759
0000144273;6.0334;-16.0196;1.5514;0.2134;0.3138;0.0801
0000144282;6.1316;-15.8855;1.4724;0.2037;0.3408;0.0823
0000144291;6.1603;-15.9526;1.4461;0.2085;0.3697;0.0910
0000144358;5.3295;-16.2327;1.0558;0.2439;0.4286;0.1780
0000144367;5.2194;-16.2111;0.9577;0.2601;0.4291;0.1901
0000144380;5.4636;-15.8209;0.9744;0.2670;0.4426;0.1964
0000144389;5.4229;-16.0005;0.9433;0.2570;0.4453;0.1923
0000144401;5.7102;-15.9143;0.8188;0.2241;0.4509;0.1969
0000144410;5.7293;-16.1249;0.7398;0.2086;0.4566;0.1935
0000144423;5.8969;-16.2782;0.7398;0.2062;0.4707;0.1803
0000144432;6.0549;-16.2566;0.6895;0.2048;0.4875;0.1875
0000144441;6.0525;-16.4984;0.6201;0.2190;0.5041;0.2041
0000144453;5.7772;-16.6612;0.6656;0.2559;0.5307;0.2117
0000144462;5.9137;-16.4817;0.6057;0.2902;0.5514;0.2273
0000144475;5.7174;-16.2734;0.6800;0.3667;0.5658;0.2050
0000144484;5.5354;-15.9885;0.8212;0.4044;0.5682;0.1944
0000144496;5.2313;-15.6078;1.0151;0.4269;0.5598;0.1648
0000144505;4.9775;-15.6844;1.1205;0.4323;0.5423;0.1492
0000144514;5.1212;-15.3732;1.1444;0.4225;0.5173;0.1343
0000144527;5.1212;-15.4618;1.2234;0.4006;0.4954;0.1287
0000144536;5.0733;-15.5025;1.2977;0.3902;0.4826;0.1274
0000144548;5.0996;-15.6222;1.2905;0.3700;0.4730;0.1196
0000144557;5.4133;-15.5815;1.0942;0.3708;0.4674;0.1120
0000144570;5.5019;-15.5934;1.1444;0.3629;0.4698;0.0961
0000144579;5.4420;-15.7012;1.1732;0.3476;0.4812;0.0986
0000144646;5.0685;-15.8305;0.8954;0.2481;0.5469;0.0000
0000144655;5.3271;-15.7515;0.9337;0.2354;0.5581;-0.0049
0000144664;5.2696;-15.7275;0.8715;0.2165;0.5590;-0.0135
0000144677;5.0877;-15.7826;0.8835;0.2037;0.5585;-0.0193
0000144686;4.9153;-15.8137;0.8595;0.2092;0.5442;-0.0378
0000144698;4.7860;-15.7850;0.8021;0.1867;0.5241;-0.0521
0000144707;4.6950;-15.6389;0.8308;0.1712;0.5005;-0.0621
0000144721;4.3598;-15.4953;0.7853;0.1522;0.4522;-0.0705
0000144730;4.2784;-15.5910;0.7805;0.1504;0.4122;-0.0903
0000144743;4.1324;-15.4211;0.8045;0.1151;0.3616;-0.0986
0000144752;4.3718;-15.5025;0.7446;0.0881;0.3251;-0.1043
0000144761;4.6184;-15.3397;0.7135;0.0604;0.2910;-0.1066
0000144773;4.5250;-15.4330;0.6416;0.0357;0.2469;-0.1120
0000144782;4.7573;-15.4929;0.6153;0.0294;0.2144;-0.1147
0000144795;4.6495;-15.5671;0.6488;0.0192;0.1768;-0.1179
0000144804;4.5131;-15.6653;0.7446;0.0218;0.1492;-0.1210
0000144816;4.6998;-15.6006;0.7278;0.0057;0.1206;-0.1246
0000144825;4.7381;-15.5647;0.7039;-0.0015;0.0945;-0.1392
0000144838;4.7669;-15.6246;0.6488;-0.0633;0.0767;-0.1494
0000144847;4.7716;-15.6437;0.5626;-0.0879;0.0753;-0.1540
0000144856;5.0877;-15.4905;0.6249;-0.0995;0.0727;-0.1781
0000144868;5.1882;-15.5743;0.6704;-0.1278;0.0838;-0.1990
0000144877;5.3319;-15.5671;0.5507;-0.1458;0.0938;-0.2076
0000144942;5.3750;-15.7538;0.2873;-0.2413;0.2118;-0.2633
0000144951;5.5282;-15.5240;0.3232;-0.2405;0.2177;-0.2818
0000144963;5.2720;-15.6557;0.4597;-0.2445;0.2222;-0.2919
0000144972;5.1092;-15.7898;0.3472;-0.2414;0.2118;-0.2876
0000144985;4.9895;-15.9167;0.4980;-0.2357;0.2040;-0.2625
0000144994;5.0159;-15.6054;0.5459;-0.2378;0.2145;-0.2326
0000145006;4.8363;-15.8400;0.5459;-0.2587;0.2197;-0.1904
0000145015;4.7692;-16.0148;0.7661;-0.2722;0.2324;-0.1760
0000145024;5.1236;-15.8233;0.8595;-0.2899;0.2723;-0.1536
0000145037;5.5665;-15.9214;1.2067;-0.2673;0.3343;-0.1443
0000145046;5.6743;-16.1992;1.3599;-0.2289;0.3848;-0.1440
0000145058;6.0789;-16.5798;1.4246;-0.1777;0.4529;-0.1502
0000145067;6.2608;-16.6732;1.5634;-0.1515;0.5153;-0.1463
0000145080;6.3782;-16.7522;1.7047;-0.1368;0.5732;-0.1491
0000145089;6.2489;-16.5224;1.7286;-0.1395;0.5849;-0.1412
0000145101;5.7365;-16.4218;1.9561;-0.1502;0.5793;-0.1134
0000145110;5.2361;-16.3883;1.8364;-0.1769;0.5652;-0.0870
0000145123;4.5801;-16.2447;1.7693;-0.1920;0.4991;-0.0609
0000145132;4.2329;-16.1776;1.7119;-0.1958;0.4399;-0.0432
0000145141;3.9720;-16.2111;1.5562;-0.1968;0.3770;-0.0257
0000145153;4.1037;-16.0771;1.3503;-0.1831;0.2822;-0.0116
0000145162;4.0127;-16.0435;1.3575;-0.1680;0.2201;0.0028
0000145227;6.6798;-16.3596;1.0678;0.0160;0.2037;0.0405
0000145236;6.7325;-16.3500;1.1181;0.0380;0.2737;0.0412
0000145248;6.5649;-16.6996;1.3048;0.0691;0.3734;0.0277
0000145257;6.4931;-16.5775;1.2881;0.0938;0.4425;0.0079
0000145270;6.4739;-16.1944;1.3599;0.1094;0.5357;-0.0285
0000145279;6.0047;-16.1896;1.4198;0.1179;0.5907;-0.0602
0000145288;5.7724;-16.0603;1.3575;0.1167;0.6293;-0.0841
0000145300;5.1978;-15.9957;1.6017;0.1192;0.6446;-0.1187
0000145309;4.8770;-15.9382;1.6065;0.1179;0.6299;-0.1456
0000145322;4.5633;-16.0555;1.5538;0.1053;0.5828;-0.1691
0000145331;4.5873;-16.1010;1.6520;0.1160;0.5321;-0.1825
0000145343;4.6591;-16.0483;1.7238;0.1274;0.4671;-0.1865
0000145352;4.8171;-15.8807;1.7957;0.1204;0.4279;-0.1787
0000145365;5.1068;-15.8592;1.8196;0.1232;0.3777;-0.1707
0000145374;5.4779;-15.5815;1.8196;0.1311;0.3500;-0.1699
0000145383;5.5043;-15.6892;1.8052;0.1230;0.3483;-0.1563
0000145395;5.7317;-15.6868;1.7047;0.1356;0.3527;-0.1514
0000145404;5.9376;-15.8065;1.7789;0.1625;0.3617;-0.1535
0000145417;6.2489;-15.8496;1.7526;0.1833;0.3964;-0.1611
0000145426;6.3446;-15.7515;1.6999;0.1985;0.4245;-0.1623
0000145438;6.4572;-15.6629;1.7430;0.2181;0.4678;-0.1653
0000145447;6.3159;-15.6724;1.7597;0.2356;0.4844;-0.1667
0000145512;6.2848;-15.9047;1.4222;0.2293;0.6863;-0.0861
0000145521;6.1986;-16.2686;1.4293;0.2368;0.7298;-0.0963
0000145530;6.4883;-16.4075;1.5371;0.2563;0.7685;-0.1196
0000145542;6.8331;-16.4745;1.4126;0.2858;0.8447;-0.1424
0000145551;6.7349;-16.6038;1.5179;0.2898;0.9020;-0.1498
0000145564;6.8235;-16.5487;1.4509;0.2915;0.9896;-0.1909
0000145573;6.9121;-16.4290;1.5419;0.2762;1.0492;-0.2018
0000145585;6.9528;-16.4913;1.4796;0.2884;1.1237;-0.2238
0000145594;7.0509;-16.3237;1.6257;0.3010;1.1796;-0.2515
0000145607;6.7876;-16.4649;1.6209;0.3301;1.2700;-0.2882
0000145616;6.7852;-16.6062;1.7454;0.3580;1.3314;-0.3170
0000145625;6.7684;-16.5128;1.8220;0.3744;1.3921;-0.3527
0000145637;6.4979;-16.7403;1.7526;0.3954;1.4617;-0.4218
0000145646;6.7301;-16.6660;1.7885;0.3997;1.5151;-0.4691
0000145659;6.9384;-16.1345;1.6472;0.4062;1.5780;-0.5305
0000145668;6.7109;-16.0675;1.4940;0.3930;1.6170;-0.5478
0000145678;6.9312;-15.7898;1.4772;0.3852;1.6776;-0.5608
0000145686;7.0653;-15.6078;1.3599;0.3768;1.7236;-0.5532
0000145698;7.0797;-15.4091;1.3001;0.3625;1.7986;-0.5502
0000145706;7.1036;-15.3947;1.1636;0.3512;1.8523;-0.5541
0000145714;6.9528;-15.5432;1.1325;0.3443;1.9032;-0.5654
0000145725;6.8259;-15.7395;1.0463;0.3399;1.9810;-0.5774
0000145733;6.8354;-15.7084;0.9960;0.3404;2.0380;-0.5981
