time;acc_x;acc_y;acc_z;gyro_x;gyro_y;gyro_z
0000995972;6.6128;2.9449;1.1899;-0.0322;-0.0533;-0.0172
0000995980;6.6008;2.8706;1.2977;-0.0273;-0.0500;-0.0163
0000995989;6.5936;2.8754;1.2857;-0.0216;-0.0489;-0.0188
0000995998;6.7397;2.9784;1.3192;-0.0187;-0.0453;-0.0124
0000996008;6.5386;2.9592;1.3144;-0.0109;-0.0368;-0.0147
0000996017;6.5697;2.9880;1.2330;-0.0055;-0.0376;-0.0176
0000996030;6.5960;3.0957;1.3479;-0.0104;-0.0366;-0.0188
0000996039;6.6702;3.0718;1.2833;-0.0113;-0.0348;-0.0203
0000996048;6.7349;3.0574;1.2306;-0.0237;-0.0382;-0.0204
0000996060;6.6032;3.0311;1.2713;-0.0305;-0.0366;-0.0208
0000996069;6.4284;2.8036;1.3001;-0.0290;-0.0398;-0.0216
0000996082;6.5625;2.9329;1.2977;-0.0268;-0.0364;-0.0147
0000996091;6.5362;2.8754;1.3312;-0.0200;-0.0285;-0.0073
0000996103;6.5170;2.9281;1.3001;-0.0168;-0.0222;-0.0092
0000996112;6.4308;2.9209;1.2617;-0.0084;-0.0286;-0.0180
0000996125;6.6391;3.0981;1.2498;-0.0207;-0.0236;-0.0152
0000996134;6.6343;3.2489;1.2474;-0.0187;-0.0330;-0.0211
0000996143;6.3710;3.0718;1.2378;-0.0209;-0.0293;-0.0188
0000996211;6.6511;2.9521;1.2905;-0.0156;-0.0588;-0.0204
0000996220;6.7612;3.0526;1.3072;-0.0216;-0.0525;-0.0152
0000996233;6.6056;2.8299;1.2977;-0.0187;-0.0440;-0.0193
0000996242;6.6056;2.9975;1.2881;-0.0168;-0.0497;-0.0269
0000996254;6.5912;2.8778;1.3503;-0.0201;-0.0416;-0.0172
0000996263;6.7062;2.9161;1.3144;-0.0119;-0.0409;-0.0205
0000996276;6.4643;2.9018;1.2809;-0.0123;-0.0344;-0.0171
0000996285;6.4141;2.7940;1.3072;-0.0040;-0.0472;-0.0171
0000996294;6.4859;2.9592;1.2594;-0.0059;-0.0380;-0.0109
0000996306;6.6080;3.0406;1.2594;-0.0077;-0.0424;-0.0109
0000996315;6.5386;3.0023;1.2977;-0.0099;-0.0520;-0.0188
0000996328;6.4667;3.0981;1.3048;-0.0089;-0.0488;-0.0148
0000996337;6.6607;2.9880;1.2546;-0.0199;-0.0396;-0.0151
0000996349;6.5625;2.9904;1.3503;-0.0117;-0.0378;-0.0176
0000996358;6.4787;2.6743;1.2881;-0.0108;-0.0258;-0.0111
0000996371;6.6128;2.8467;1.3384;0.0020;-0.0175;-0.0151
0000996380;6.5098;2.8946;1.3384;0.0007;-0.0104;-0.0169
0000996389;6.6918;2.9066;1.3671;0.0032;0.0037;-0.0151
0000996401;6.5864;2.9305;1.2833;-0.0001;0.0055;-0.0149
0000996410;6.3015;2.7438;1.3001;0.0019;0.0063;-0.0230
0000996423;6.3111;2.7581;1.2833;-0.0092;0.0144;-0.0127
0000996432;6.4787;2.7869;1.3408;-0.0036;0.0072;-0.0184
0000996501;6.3710;2.7892;1.2474;0.0222;-0.0153;-0.0021
0000996510;6.3375;2.8826;1.2665;0.0254;-0.0176;0.0045
0000996519;6.5673;3.1675;1.3360;0.0199;-0.0226;0.0117
0000996532;6.6559;3.5171;1.4389;-0.0084;-0.0461;0.0215
0000996541;6.3422;3.2250;1.4413;-0.0348;-0.0715;0.0168
0000996553;6.4069;3.1340;1.4222;-0.0609;-0.0950;0.0148
0000996562;6.5529;3.0837;1.4389;-0.0805;-0.1050;0.0131
0000996575;6.4141;2.7150;1.3743;-0.0794;-0.1184;-0.0064
0000996584;6.4380;2.7485;1.2833;-0.0759;-0.1198;-0.0091
0000996596;6.4236;2.4732;1.2737;-0.0581;-0.1174;-0.0155
0000996605;6.6918;2.7557;1.2019;-0.0378;-0.1167;-0.0320
0000996614;6.7421;2.8850;1.2785;-0.0434;-0.1047;-0.0277
0000996627;6.8809;3.1388;1.1660;-0.0538;-0.0899;-0.0310
0000996636;6.9025;3.1484;1.1612;-0.0663;-0.0827;-0.0349
0000996648;7.0461;3.2896;1.1732;-0.0743;-0.0485;-0.0234
0000996657;6.6966;2.8778;1.1636;-0.0786;-0.0183;-0.0068
0000996670;6.7469;2.8204;1.0654;-0.0537;0.0149;0.0008
0000996679;6.9240;2.8563;0.9792;-0.0349;0.0413;0.0125
0000996691;6.8283;2.8252;0.9697;-0.0104;0.0745;0.0250
0000996700;6.7540;2.8180;1.0295;0.0071;0.0889;0.0332
0000996709;6.7971;2.8802;0.9649;0.0132;0.0982;0.0365
0000996722;6.7900;3.1963;0.9840;0.0103;0.1037;0.0429
0000996731;6.7828;3.1843;0.9457;0.0072;0.1098;0.0510
0000996800;6.5841;2.8276;1.0654;0.0324;0.1266;0.0464
0000996809;6.5841;2.8802;1.1205;0.0376;0.1287;0.0494
0000996818;6.7181;2.9808;1.0487;0.0357;0.1386;0.0569
0000996831;6.6870;2.9018;1.0343;0.0352;0.1446;0.0588
0000996840;6.7780;2.7557;1.0918;0.0400;0.1443;0.0490
0000996852;6.6104;2.8419;1.0032;0.0461;0.1499;0.0429
0000996861;6.8091;2.9185;0.9337;0.0446;0.1652;0.0445
0000996874;6.6990;2.8611;0.9577;0.0484;0.1761;0.0530
0000996883;6.6511;2.9592;0.9816;0.0534;0.1777;0.0545
0000996892;6.7469;2.8252;0.8260;0.0609;0.1716;0.0512
0000996904;6.8450;3.0335;0.8475;0.0649;0.1745;0.0432
0000996913;6.6559;2.9712;0.8188;0.0699;0.1760;0.0389
0000996926;6.8690;2.9928;0.8763;0.0633;0.1761;0.0189
0000996935;6.8690;2.9401;0.8404;0.0636;0.1817;0.0092
0000996947;6.7852;2.8323;1.0080;0.0661;0.1969;0.0016
0000996956;6.9384;2.9832;0.9433;0.0659;0.2124;0.0072
0000996965;6.8307;2.8395;0.9002;0.0661;0.2253;0.0119
0000996978;6.8163;2.9951;0.8739;0.0641;0.2394;0.0238
0000996987;6.7038;3.0023;0.8619;0.0610;0.2397;0.0201
0000996999;6.7660;3.0550;0.7590;0.0526;0.2509;0.0238
0000997008;6.7397;3.0047;0.8523;0.0573;0.2599;0.0257
0000997017;6.6750;2.9233;0.9146;0.0625;0.2681;0.0252
0000997030;7.0342;3.1125;0.9313;0.0827;0.2789;0.0188
0000997039;6.7995;2.8515;0.9385;0.0897;0.2884;0.0207
0000997108;6.1723;2.7653;0.7207;0.0795;0.3215;0.0048
0000997117;6.3279;3.0047;0.5890;0.0787;0.3148;0.0187
0000997130;6.0765;3.1603;0.5890;0.0898;0.2855;0.0079
0000997139;5.7317;3.3279;0.6752;0.0929;0.2463;-0.0117
0000997148;5.7557;3.1651;0.6009;0.0854;0.2149;-0.0236
0000997160;5.7533;3.0718;0.6249;0.0659;0.1683;-0.0445
0000997169;5.8921;3.0071;0.6656;0.0528;0.1306;-0.0605
0000997182;6.1770;3.0311;0.7207;0.0465;0.1009;-0.0757
0000997191;6.2632;2.9281;0.6776;0.0365;0.0913;-0.0857
0000997203;6.4284;2.9808;0.8787;0.0270;0.0785;-0.1031
0000997212;6.4787;2.9473;0.7853;0.0161;0.0757;-0.1144
0000997221;6.5769;3.1364;0.8164;0.0017;0.0797;-0.1258
0000997234;6.3901;2.9305;0.7949;-0.0115;0.0745;-0.1339
0000997243;6.4835;2.9353;0.7829;-0.0108;0.0677;-0.1404
0000997255;6.4141;2.7533;0.7638;-0.0201;0.0673;-0.1442
0000997264;6.4667;2.7653;0.8452;-0.0221;0.0625;-0.1532
0000997277;6.5601;2.8419;0.7470;-0.0250;0.0612;-0.1609
0000997286;6.5577;2.7294;0.5291;-0.0302;0.0687;-0.1571
0000997298;6.7804;3.0358;0.5459;-0.0364;0.0758;-0.1549
0000997307;6.6607;3.1340;0.5986;-0.0585;0.0870;-0.1561
0000997316;6.7133;3.1412;0.7230;-0.0754;0.0866;-0.1636
0000997329;6.7349;3.3112;0.8164;-0.1034;0.1005;-0.1727
0000997338;6.7469;3.2848;0.7230;-0.1077;0.1055;-0.1837
0000997407;6.6343;3.3615;0.4621;-0.0850;0.2316;-0.0997
0000997416;6.5769;3.4046;0.4980;-0.1123;0.2244;-0.0947
0000997429;6.6104;3.4884;0.3663;-0.1524;0.1981;-0.0910
0000997438;6.3375;3.2322;0.5435;-0.1871;0.1872;-0.0985
0000997447;6.4787;3.3830;0.5531;-0.2074;0.1763;-0.1210
0000997459;6.3877;3.2681;0.3687;-0.2348;0.1724;-0.1408
0000997468;6.6726;3.3686;0.4070;-0.2442;0.1873;-0.1577
0000997481;6.7229;3.1771;0.2586;-0.2598;0.2234;-0.1755
0000997490;6.7157;3.1460;0.2370;-0.2769;0.2631;-0.1807
0000997503;7.0102;3.1723;0.2873;-0.2900;0.3171;-0.1905
0000997512;7.1658;3.1891;0.2586;-0.2967;0.3501;-0.1884
0000997524;6.9001;3.0789;0.2777;-0.3072;0.4012;-0.1825
0000997533;6.8307;3.3160;0.6440;-0.3166;0.4355;-0.1753
0000997542;6.4069;3.2968;0.8116;-0.3246;0.4636;-0.1625
0000997555;5.6671;3.7900;0.9816;-0.3597;0.4966;-0.1315
0000997564;5.5138;4.1156;0.8882;-0.3801;0.4955;-0.1051
0000997576;5.0015;3.9576;0.9960;-0.4092;0.4796;-0.0711
0000997585;5.0206;3.7182;1.0247;-0.4273;0.4610;-0.0410
0000997598;5.3989;3.2226;1.2354;-0.4073;0.4231;-0.0161
0000997607;5.7940;2.9161;1.2378;-0.3571;0.3964;-0.0016
0000997616;5.9185;2.5929;1.4653;-0.3082;0.3794;0.0160
0000997685;6.0358;2.6169;1.6807;-0.3075;0.1395;0.0560
0000997694;6.3734;2.3918;1.6281;-0.2839;0.1664;0.0504
0000997707;6.3015;2.4588;1.5850;-0.2506;0.2312;0.0369
0000997716;6.1579;2.7007;1.6185;-0.2406;0.2714;0.0337
0000997728;5.6336;3.1173;1.5802;-0.2462;0.3132;0.0340
0000997737;5.2648;3.1627;1.6999;-0.2471;0.3180;0.0354
0000997746;5.0949;3.3567;1.7693;-0.2579;0.3079;0.0448
0000997759;4.5586;2.8276;1.8100;-0.2585;0.2574;0.0437
0000997768;4.5753;2.4972;1.8411;-0.2338;0.2081;0.0360
0000997780;4.5897;2.2793;2.0734;-0.1956;0.1640;0.0410
0000997789;4.8076;2.0806;2.2027;-0.1631;0.1234;0.0281
0000997802;5.2505;2.2458;2.3320;-0.1415;0.0897;0.0256
0000997811;5.3271;2.2865;2.5474;-0.1470;0.0799;0.0293
0000997820;5.4947;2.2889;2.5881;-0.1536;0.0721;0.0199
0000997832;5.4157;2.0518;2.5881;-0.1545;0.0705;0.0180
0000997841;5.5929;2.0016;2.6145;-0.1508;0.0669;0.0187
0000997854;5.3343;1.9561;2.6456;-0.1303;0.0630;0.0272
0000997863;5.3008;2.1189;2.6624;-0.1176;0.0424;0.0293
0000997875;5.1978;2.2410;2.6624;-0.1159;0.0080;0.0341
0000997884;4.9584;2.1907;2.6647;-0.1183;-0.0250;0.0464
0000997893;5.2050;2.0997;2.7964;-0.1223;-0.0734;0.0486
0000997906;5.4037;2.3056;3.0478;-0.1078;-0.1267;0.0504
0000997915;5.5043;2.2529;3.2010;-0.0781;-0.1515;0.0438
0000997982;6.2106;2.1500;2.9281;0.0971;-0.1163;-0.1021
0000997991;6.0717;2.0375;2.7845;0.1007;-0.0949;-0.0903
0000998004;5.7652;2.1141;2.6336;0.1107;-0.0967;-0.0791
0000998013;5.5426;2.2314;2.6145;0.1179;-0.1039;-0.0715
0000998025;5.2696;2.4517;2.5379;0.0946;-0.1236;-0.0490
0000998034;5.0949;2.6863;2.5714;0.0762;-0.1482;-0.0320
0000998043;5.1427;2.8635;2.5187;0.0686;-0.1807;-0.0298
0000998056;5.2792;3.0622;2.3822;0.0703;-0.2242;-0.0558
0000998065;5.5354;3.0837;2.4349;0.0706;-0.2473;-0.0758
0000998077;5.7030;2.7964;2.3822;0.0943;-0.2866;-0.1103
0000998086;5.6551;2.5355;2.3655;0.1188;-0.3124;-0.1294
0000998099;5.8131;2.3511;2.1811;0.1572;-0.3303;-0.1431
0000998108;5.7150;2.3080;2.1811;0.1788;-0.3436;-0.1483
0000998117;5.8586;2.3080;2.0877;0.1708;-0.3351;-0.1242
0000998129;5.7964;2.3224;2.0207;0.1524;-0.3301;-0.0827
0000998138;5.7652;2.3703;1.9585;0.1467;-0.3352;-0.0541
0000998151;5.9328;2.5762;1.8244;0.1344;-0.3175;-0.0153
0000998160;6.0047;2.6240;1.8603;0.1231;-0.2964;0.0051
0000998172;6.2800;2.8084;1.8340;0.1087;-0.2828;0.0257
0000998181;6.5601;2.9377;1.9848;0.0982;-0.2686;0.0245
0000998194;6.6080;2.8754;2.1045;0.0854;-0.2320;0.0225
0000998203;6.7421;2.7581;2.2098;0.0914;-0.2069;0.0093
0000998212;6.7205;2.7509;2.1165;0.0931;-0.1685;0.0035
0000998280;6.0645;2.7701;1.7980;0.1396;-0.0566;0.0472
0000998289;6.1507;2.8778;1.8962;0.1085;-0.0552;0.0462
0000998302;6.0454;2.6959;1.7645;0.0813;-0.0598;0.0430
0000998311;6.0023;2.3463;1.7693;0.0706;-0.0675;0.0470
0000998323;5.8754;2.0949;1.4988;0.0648;-0.0757;0.0572
0000998332;5.9448;2.0087;1.5754;0.0793;-0.0942;0.0634
0000998341;5.9352;2.0758;1.4389;0.0801;-0.0994;0.0790
0000998354;5.5162;1.9249;1.3288;0.0693;-0.1464;0.0861
0000998363;5.4899;2.1428;1.2522;0.0454;-0.1616;0.0977
0000998375;5.4061;2.2290;1.3671;0.0036;-0.2026;0.0969
0000998384;5.3199;2.1763;1.4940;-0.0225;-0.2426;0.0811
0000998397;5.3247;2.0111;1.4533;-0.0524;-0.2713;0.0610
0000998406;5.1643;1.7071;1.3312;-0.0494;-0.2996;0.0320
0000998415;5.3271;1.5514;1.2426;-0.0300;-0.3208;0.0147
0000998427;5.7293;1.4078;0.9529;-0.0104;-0.3220;-0.0012
0000998436;5.6982;1.4222;0.8715;0.0173;-0.3151;0.0048
0000998449;5.9376;1.7813;0.8116;0.0364;-0.2958;0.0466
0000998458;5.7748;1.9369;0.8763;0.0381;-0.2872;0.0935
0000998470;5.8897;2.3822;0.8523;0.0309;-0.2815;0.1404
0000998479;5.7700;2.6600;0.8021;0.0217;-0.2751;0.1717
0000998488;5.7509;3.0813;0.8092;0.0297;-0.2870;0.1712
0000998501;5.5665;3.2274;1.0104;0.0342;-0.3039;0.1154
0000998510;5.3367;3.1795;0.9888;0.0204;-0.3232;0.0556
0000998578;4.3215;1.8220;0.6057;0.1174;-0.6851;-0.1571
0000998587;4.5059;2.5211;0.6919;0.0723;-0.7352;-0.1700
0000998600;4.4891;2.7222;1.2450;-0.0209;-0.8030;-0.2213
0000998609;4.6759;2.4205;1.2043;-0.0565;-0.8431;-0.2642
0000998621;4.9799;1.7095;1.2665;-0.0401;-0.8608;-0.3011
0000998630;5.1140;1.2713;1.1803;0.0187;-0.8597;-0.3066
0000998639;5.4995;1.4293;1.0271;0.0667;-0.8489;-0.3043
0000998652;5.6527;1.6616;0.7302;0.1206;-0.8571;-0.2360
0000998661;5.5019;1.5874;0.7685;0.1342;-0.8796;-0.1555
0000998673;5.6647;1.3431;0.6512;0.0987;-0.9122;-0.0314
0000998682;5.4731;0.9170;0.5555;0.0951;-0.9442;0.0317
0000998695;5.2313;0.4238;0.5794;0.1455;-0.9690;0.0753
0000998704;5.6527;0.5507;0.7015;0.1863;-0.9613;0.0866
0000998713;5.9376;0.5962;0.6512;0.2308;-0.9431;0.0841
0000998725;6.3566;0.5531;0.8475;0.2463;-0.9089;0.0958
0000998734;6.6870;0.6129;1.1301;0.2306;-0.8749;0.1156
0000998747;7.0126;0.8978;1.6328;0.1875;-0.8128;0.1492
0000998756;7.0892;1.3144;2.0997;0.1454;-0.7709;0.1536
0000998768;7.6471;2.3415;3.2537;0.0284;-0.7408;0.1322
0000998777;8.4898;3.3758;4.0462;-0.0861;-0.6937;0.0787
0000998786;9.4044;4.9704;4.7070;-0.2157;-0.5856;-0.0064
0000998799;10.6566;7.1563;5.4492;-0.4187;-0.3279;-0.1310
0000998808;11.3557;7.1754;4.6543;-0.5229;-0.1031;-0.1808
0000998877;9.5577;14.7674;4.0965;0.0097;0.3313;-0.0890
0000998886;11.6478;13.5703;3.1364;-0.1977;0.3850;-0.1564
0000998899;8.8705;6.9216;0.5962;-0.2924;0.4758;-0.1360
0000998908;5.5522;3.5626;0.5387;-0.0318;0.4683;-0.1507
0000998921;2.2577;2.5450;0.7254;0.4823;0.3774;-0.2218
0000998930;1.3886;3.7493;0.8284;0.6660;0.2807;-0.2361
0000998939;1.8771;5.8107;1.3336;0.6379;0.1732;-0.2164
0000998952;4.5969;7.8075;1.7933;0.4080;0.0757;-0.1454
0000998961;6.6583;8.0804;1.9201;0.2346;0.0710;-0.1104
0000998973;9.1842;7.0581;1.7406;0.0666;0.1327;-0.0958
0000998982;9.9288;5.2289;1.5610;0.0008;0.2162;-0.0818
0000998995;10.1466;2.7845;1.4916;-0.0304;0.3808;-0.0043
0000999004;9.5122;1.3695;1.4988;0.0088;0.4844;0.0646
0000999013;8.8226;0.9337;1.4676;0.0807;0.5644;0.1380
0000999026;7.4675;0.6536;1.5323;0.1636;0.6269;0.2048
0000999035;6.4524;0.8116;1.5179;0.1801;0.6380;0.2157
0000999047;5.5426;1.1971;1.4437;0.1518;0.6053;0.1856
0000999056;5.0422;1.3312;1.4102;0.1220;0.5482;0.1398
0000999069;5.1811;1.5179;1.5467;0.0540;0.4375;0.0839
0000999078;5.4923;1.4126;1.5969;0.0124;0.3347;0.0493
0000999087;6.1770;1.2378;1.6376;-0.0008;0.2507;0.0293
0000999100;7.0198;1.2737;1.8292;0.0080;0.1703;-0.0075
0000999109;7.2640;1.2091;1.7430;0.0125;0.1499;-0.0362
0000999178;6.2034;2.7629;1.1851;0.0357;0.3788;-0.0923
0000999187;5.8490;2.4756;1.1372;0.0933;0.3687;-0.0589
0000999199;5.9017;2.6312;1.1492;0.1613;0.3425;-0.0144
0000999208;5.8371;2.5809;1.1109;0.2254;0.3171;-0.0008
0000999217;6.0262;2.4612;1.0439;0.2866;0.2880;0.0067
0000999230;6.3279;2.4948;0.8715;0.3373;0.2545;0.0221
0000999239;6.6750;2.5738;0.7518;0.3575;0.2392;0.0353
0000999252;7.1156;2.5379;0.5459;0.3628;0.2328;0.0691
0000999261;7.1395;2.3631;0.5052;0.3500;0.2433;0.0982
0000999274;7.4508;2.4756;0.4310;0.3265;0.2539;0.1215
0000999283;7.2832;2.5594;0.6393;0.3022;0.2553;0.1151
0000999292;7.1443;2.7414;0.6225;0.2782;0.2502;0.1116
0000999304;6.6750;2.9951;0.5100;0.2405;0.2654;0.0802
0000999313;6.2824;2.9592;0.6536;0.2256;0.2667;0.0522
0000999326;6.2297;3.3519;0.6536;0.2144;0.2746;0.0188
0000999335;6.0669;3.3088;0.4549;0.2069;0.2694;0.0109
0000999344;6.1124;3.1580;0.5578;0.2122;0.2639;0.0208
0000999356;6.2752;3.4357;0.6416;0.2258;0.2368;0.0550
0000999365;5.9735;3.2896;0.5387;0.2453;0.2202;0.0786
0000999378;6.3303;3.6416;0.5746;0.2425;0.1897;0.0987
0000999387;6.0885;3.7302;0.5722;0.2261;0.1671;0.0942
0000999400;6.0956;3.6272;0.4788;0.2028;0.1400;0.0777
0000999409;6.1220;3.3998;0.3256;0.1994;0.1260;0.0634
0000999418;6.1387;3.2801;0.2945;0.2180;0.1194;0.0437
0000999487;6.9480;2.8874;0.6847;0.0624;0.2162;0.0056
0000999496;6.5601;2.6121;0.6752;0.0199;0.2193;-0.0087
0000999508;6.0478;2.3176;0.5794;0.0020;0.2001;-0.0513
0000999517;5.8035;2.2242;0.4405;0.0097;0.1799;-0.0783
0000999530;5.5019;2.0782;0.2634;0.0562;0.1368;-0.1238
0000999539;5.3558;1.9968;0.1891;0.1061;0.0989;-0.1500
0000999548;5.5785;2.1835;0.0862;0.1350;0.0666;-0.1620
0000999561;5.7796;2.6767;-0.1269;0.1611;0.0045;-0.1739
0000999570;6.2082;2.9688;0.0479;0.1390;-0.0265;-0.1727
0000999583;6.4069;3.3136;0.1245;0.0933;-0.0686;-0.1665
0000999592;6.4667;3.2729;-0.0335;0.0721;-0.0822;-0.1700
0000999604;6.6726;3.3208;-0.0311;0.0525;-0.0745;-0.1823
0000999613;6.6822;3.1963;-0.0718;0.0416;-0.0659;-0.2012
0000999622;6.6272;3.0430;-0.0527;0.0334;-0.0454;-0.2162
0000999635;6.5362;2.5690;0.0455;0.0354;-0.0083;-0.2280
0000999644;6.4835;2.4469;-0.0742;0.0474;0.0189;-0.2229
0000999656;6.4380;2.3463;-0.0575;0.0703;0.0486;-0.2085
0000999665;6.5841;2.5163;-0.0359;0.0815;0.0754;-0.1825
0000999678;6.6032;2.8180;-0.0886;0.0673;0.0918;-0.1717
0000999687;6.6008;3.2202;0.0934;0.0230;0.1019;-0.1707
0000999700;6.1459;3.3686;0.0790;-0.0477;0.0779;-0.1997
0000999709;6.2225;3.4261;0.0000;-0.0933;0.0526;-0.2177
0000999718;6.0262;3.3686;-0.1221;-0.1336;0.0310;-0.2388
0000999787;6.9097;2.2673;-0.4310;-0.2598;0.0236;-0.0995
0000999796;7.1371;2.7509;-0.3184;-0.3279;0.0699;-0.0500
0000999808;7.2113;3.3208;0.8045;-0.5181;0.1569;-0.0440
0000999817;7.5417;3.6966;2.0494;-0.7425;0.2431;-0.0777
0000999830;8.4946;2.9784;3.2681;-1.1016;0.4279;-0.1282
0000999839;9.2727;1.9800;4.0031;-1.2556;0.5868;-0.1079
0000999851;10.3046;0.2107;4.8411;-1.2802;0.8115;-0.0043
0000999860;10.4076;-1.2474;4.7142;-1.1668;0.9966;0.0902
0000999869;10.4579;-2.2625;3.4093;-0.9611;1.1848;0.1867
0000999882;8.9352;-2.8826;1.4150;-0.6010;1.4273;0.2478
0000999891;6.9192;-2.0351;0.4717;-0.4608;1.5203;0.2336
0000999903;4.6400;1.0942;1.1971;-0.5125;1.4529;0.1743
0000999912;2.9257;4.1013;2.3798;-0.6899;1.2898;0.1548
0000999925;0.8045;7.5633;2.3990;-1.0199;0.9972;0.1900
0000999934;1.0391;7.1060;1.1540;-1.2136;0.8154;0.1825
0000999943;1.4317;4.7860;1.0774;-1.3640;0.6471;0.0561
0000999955;2.1045;2.7294;1.3958;-1.2009;0.3793;-0.1009
0000999964;1.7765;2.8683;3.0502;-0.9328;0.1641;-0.1660
0000999977;0.0527;7.4915;6.2058;-0.6352;-0.1765;-0.1315
0000999986;-1.5538;11.1546;5.5474;-0.5204;-0.4189;-0.0167
0000999999;-0.6369;11.2911;3.2370;-0.8370;-0.6383;-0.1046
0001000008;2.6145;8.3151;2.4493;-1.0553;-0.6991;-0.2822
0001000077;5.5282;5.6360;2.0542;-0.2378;0.5113;0.0850
0001000086;3.1603;6.1890;2.2913;-0.2916;0.4838;0.1759
0001000095;1.1349;6.2704;2.3152;-0.2987;0.4030;0.1945
0001000108;-0.1580;4.6424;2.0806;-0.2774;0.2166;0.1039
0001000117;0.2921;3.3567;1.7430;-0.2470;0.0592;-0.0119
0001000130;1.9393;1.6999;1.7645;-0.1287;-0.1552;-0.1603
0001000139;3.2010;1.1061;1.7933;-0.0276;-0.2665;-0.2422
0001000152;4.7238;1.0534;1.8675;0.0620;-0.3868;-0.3211
0001000161;5.2361;1.1612;1.7717;0.0779;-0.4486;-0.3435
0001000170;5.6000;1.3527;1.7286;0.0674;-0.4762;-0.3433
0001000183;5.3032;1.1301;1.9872;0.0578;-0.5040;-0.3423
0001000192;5.2936;1.1564;2.1069;0.0773;-0.4891;-0.3251
0001000205;5.1451;0.9625;2.1931;0.1503;-0.4337;-0.2979
0001000214;5.1140;0.7135;2.3320;0.2225;-0.3910;-0.2755
0001000227;5.3247;1.0534;2.1500;0.3251;-0.3276;-0.2113
0001000236;5.6599;1.4198;2.1213;0.3730;-0.3080;-0.1535
0001000248;5.7197;1.8507;2.0614;0.4108;-0.3054;-0.0518
0001000257;5.3893;2.0375;1.8962;0.4135;-0.3172;0.0195
0001000266;5.2481;2.1596;2.0566;0.4044;-0.3337;0.0561
0001000279;5.0613;2.3990;1.9992;0.3647;-0.3524;0.0649
0001000288;5.2912;2.4660;2.1428;0.3473;-0.3531;0.0384
0001000301;5.6216;2.2290;2.3631;0.3259;-0.3230;-0.0032
0001000310;5.9544;2.2745;2.4972;0.3429;-0.2875;-0.0321
0001000379;5.2960;3.1125;1.9106;0.4325;-0.0422;0.0710
0001000388;5.2720;3.0742;1.8675;0.3822;-0.0397;0.0991
0001000397;4.9392;2.6073;1.7717;0.3304;-0.0396;0.1151
0001000409;5.0518;2.4445;1.6352;0.2894;-0.0637;0.1296
0001000418;4.9656;2.2529;1.7478;0.2838;-0.0915;0.1266
0001000431;4.8411;2.4205;1.6352;0.2618;-0.1223;0.1376
0001000440;4.5586;2.4229;1.9297;0.2353;-0.1665;0.1376
0001000453;4.4556;2.7390;2.0590;0.1420;-0.2240;0.1559
0001000462;4.5250;2.8850;2.3343;0.0500;-0.2714;0.1697
0001000471;4.7046;3.1819;2.5402;-0.0548;-0.3226;0.1969
0001000484;5.3510;2.7653;2.7222;-0.2052;-0.3890;0.2377
0001000493;5.4636;2.0758;2.9209;-0.2657;-0.4309;0.2543
0001000506;6.1220;1.2354;2.8946;-0.2733;-0.4562;0.2208
0001000515;6.3997;0.8787;2.6887;-0.2048;-0.4515;0.1739
0001000528;6.8594;0.8978;2.0494;-0.0934;-0.3949;0.0957
0001000537;7.3358;1.4820;1.7933;-0.0524;-0.3400;0.0569
0001000550;7.3358;2.2362;1.6735;-0.0725;-0.2354;0.0466
0001000559;7.1874;2.5355;1.4916;-0.1038;-0.1628;0.0558
0001000568;6.7086;2.6815;1.4676;-0.1243;-0.1049;0.0600
0001000581;5.8730;2.6959;1.4892;-0.1520;-0.0737;0.0758
0001000590;5.5258;2.4732;1.3001;-0.1424;-0.0734;0.0966
0001000603;4.9105;2.1668;1.0439;-0.0718;-0.1092;0.1186
0001000612;4.8602;1.9465;0.8308;0.0207;-0.1388;0.1311
0001000681;6.4308;3.3136;1.2210;0.0460;-0.1860;0.1575
0001000690;6.3375;3.0311;1.3384;0.0289;-0.1873;0.1581
0001000699;6.0214;2.8371;1.2977;0.0485;-0.2057;0.1358
0001000712;5.3056;2.6193;1.0367;0.1073;-0.2280;0.1324
0001000721;5.0254;2.9305;0.8547;0.1439;-0.2491;0.1456
0001000734;4.6998;3.3088;1.0391;0.1472;-0.2991;0.1851
0001000743;4.9201;3.6368;1.2474;0.1186;-0.3629;0.2045
0001000756;5.1284;3.4860;1.1971;0.0578;-0.4582;0.1893
0001000765;4.9799;3.0191;1.2426;0.0286;-0.5240;0.1580
0001000774;4.8626;2.5977;1.2474;0.0179;-0.5786;0.1061
0001000787;4.8339;1.9824;1.0654;0.0428;-0.6388;0.0320
0001000796;4.8866;1.9154;1.1013;0.0641;-0.6797;-0.0260
0001000809;4.9368;2.0063;1.0487;0.0574;-0.7021;-0.0745
0001000818;5.2601;2.2793;1.1349;0.0280;-0.6961;-0.0751
0001000831;5.9831;2.6552;1.1899;-0.0103;-0.6600;-0.0504
0001000840;6.3183;2.5546;1.0846;-0.0244;-0.6213;-0.0141
0001000849;6.7469;2.4493;0.9960;-0.0325;-0.5638;0.0232
0001000862;6.7445;1.6520;0.8619;-0.0003;-0.4916;0.0544
0001000871;6.4189;1.1732;0.8978;0.0500;-0.4639;0.0337
0001000884;5.7748;0.7566;0.7733;0.1308;-0.4535;-0.0089
0001000893;5.6647;0.8906;0.6991;0.1840;-0.4427;-0.0157
0001000906;5.3534;0.9385;0.5842;0.2539;-0.4566;0.0003
0001000915;5.4708;1.2306;0.5052;0.2834;-0.4792;0.0288
0001000984;7.4508;1.2665;2.2553;0.3857;-0.4205;-0.1244
0001000993;8.1882;2.2410;2.7653;0.3507;-0.3479;-0.1531
0001001002;8.7963;3.4022;3.0263;0.3155;-0.2386;-0.1968
0001001015;9.6055;5.2218;3.2082;0.2181;-0.0080;-0.2622
0001001024;9.9120;5.5426;2.8180;0.1179;0.1653;-0.2832
0001001037;9.2177;4.0414;1.8842;0.0068;0.4097;-0.2116
0001001046;7.6734;2.5402;1.6927;0.0313;0.5229;-0.1362
0001001059;5.5162;1.5682;1.9944;0.1098;0.5419;-0.0025
0001001068;4.2234;2.3774;4.2090;0.0886;0.4173;0.0687
0001001077;4.8985;5.1308;6.5649;-0.0040;0.2158;0.0721
0001001090;8.0182;11.5736;4.7285;0.0702;0.1929;-0.1553
0001001099;10.9918;14.4418;2.5187;0.0320;0.3031;-0.4110
0001001112;8.8538;9.0022;0.8428;-0.3758;0.5445;-0.4871
0001001121;5.9137;4.5681;0.6512;-0.3364;0.6708;-0.3866
0001001134;2.9113;1.4676;0.5555;0.2073;0.6779;-0.2129
0001001143;1.9489;1.3958;0.4956;0.6102;0.5733;-0.1310
0001001152;1.8340;2.2338;0.3543;0.8996;0.3806;-0.0799
0001001165;3.1627;5.2074;1.0247;0.9864;0.0898;-0.0288
0001001174;4.0438;7.2018;1.3934;0.8601;-0.0438;-0.0272
0001001187;6.3111;8.9854;1.5227;0.5284;-0.1104;-0.1523
0001001196;7.6519;8.2744;1.3647;0.2821;-0.0677;-0.2623
0001001209;8.6095;5.5809;1.2378;0.0702;0.0738;-0.2916
0001001218;8.7628;3.6464;1.2115;0.0548;0.1880;-0.2124
0001001227;8.2265;2.3822;1.2450;0.0854;0.3086;-0.0909
0001001296;5.1834;2.4014;1.0247;0.0815;0.3781;0.2178
0001001305;5.3702;2.2146;1.0463;0.0698;0.2863;0.1859
0001001318;5.6958;1.8938;0.8835;0.0825;0.1589;0.1244
0001001327;5.8347;1.9872;0.9242;0.0898;0.0805;0.0762
0001001340;5.8514;1.9609;0.8954;0.1039;-0.0023;0.0189
0001001349;5.7892;2.1476;0.7470;0.1018;-0.0432;-0.0216
0001001358;5.9065;2.4612;0.7398;0.0833;-0.0626;-0.0414
0001001371;5.9352;2.7102;0.5124;0.0460;-0.0729;-0.0542
0001001380;5.8442;2.6911;0.5650;0.0276;-0.0743;-0.0524
0001001393;5.8059;2.5881;0.4932;0.0031;-0.0869;-0.0222
0001001402;5.8275;2.6480;0.5243;-0.0015;-0.1038;-0.0132
0001001415;5.5569;2.4804;0.4094;0.0225;-0.1222;-0.0084
0001001424;5.5905;2.5953;0.4046;0.0513;-0.1447;-0.0109
0001001437;5.5785;2.8132;0.3735;0.0758;-0.1729;-0.0296
0001001446;5.4540;2.7653;0.2993;0.0926;-0.1945;-0.0469
0001001455;5.3893;2.7031;0.1532;0.1160;-0.2178;-0.0746
0001001468;5.5713;3.0143;-0.0311;0.1525;-0.2599;-0.1175
0001001477;5.2744;3.1963;-0.0646;0.1769;-0.3172;-0.1458
0001001490;4.9416;3.5003;-0.0479;0.1680;-0.4110;-0.1624
0001001499;4.7884;3.9049;0.0192;0.1386;-0.4891;-0.1556
0001001512;4.4173;4.0103;0.0335;0.0883;-0.6217;-0.1519
0001001521;4.6663;4.0151;-0.0192;0.0517;-0.6877;-0.1371
0001001590;6.6655;3.1460;-0.2346;0.1735;-0.7044;-0.1753
0001001599;6.8929;3.0191;-0.2394;0.1577;-0.6667;-0.1676
0001001608;7.1156;3.0119;-0.2610;0.1424;-0.6227;-0.1620
0001001621;7.5058;2.4612;-0.1317;0.1247;-0.5368;-0.1402
0001001630;7.5872;2.2482;-0.2107;0.1083;-0.4570;-0.1230
0001001643;7.8697;2.0638;-0.1724;0.0981;-0.3427;-0.1134
0001001652;7.9823;1.9513;-0.2107;0.0957;-0.2681;-0.1222
0001001665;7.6255;2.0207;-0.0790;0.0751;-0.1568;-0.1308
0001001674;7.4699;2.0710;0.0096;0.0521;-0.0829;-0.1319
0001001687;7.2616;2.4565;0.1772;0.0059;0.0035;-0.1395
0001001696;7.0198;2.3487;0.2227;-0.0365;0.0537;-0.1426
0001001705;6.5936;2.2697;0.3400;-0.0604;0.0893;-0.1446
0001001718;6.2991;2.0590;0.2897;-0.0576;0.1222;-0.1378
0001001727;6.1986;1.9465;0.1365;-0.0424;0.1382;-0.1131
0001001740;6.0094;1.9800;0.1030;-0.0095;0.1320;-0.0989
0001001749;5.8419;1.8866;0.1245;-0.0079;0.1287;-0.0951
0001001762;5.8419;1.9585;0.1915;0.0160;0.1107;-0.1231
0001001771;5.9017;2.0518;0.1604;0.0109;0.1098;-0.1352
0001001780;6.2393;2.1261;0.1125;0.0017;0.1055;-0.1524
0001001793;6.0478;1.9944;-0.1269;-0.0063;0.1104;-0.1563
0001001802;5.9304;1.7214;-0.2586;0.0091;0.1030;-0.1579
0001001815;6.0238;1.7909;-0.4956;0.0498;0.1079;-0.1712
0001001824;5.9185;1.8340;-0.6153;0.0662;0.1136;-0.1928
0001001893;6.1196;2.6193;0.2107;-0.1248;0.1163;-0.2775
0001001902;5.5450;2.4181;0.1197;-0.1299;0.1259;-0.2697
0001001911;5.3319;2.3655;0.0072;-0.1166;0.1075;-0.2609
0001001924;5.1930;2.1763;0.2298;-0.1575;0.0742;-0.2145
0001001933;5.4564;2.0207;0.3041;-0.2093;0.0476;-0.1589
0001001946;5.6431;1.7980;0.6393;-0.2887;0.0157;-0.0907
0001001955;5.5545;1.3503;0.5722;-0.3238;-0.0027;-0.0549
0001001968;5.7868;0.7925;0.0144;-0.3231;-0.0464;-0.0244
0001001977;5.6958;0.5578;0.0670;-0.3232;-0.0794;-0.0297
0001001990;6.0286;1.1037;0.5243;-0.3856;-0.1379;-0.0867
0001001999;6.4021;1.4868;1.0415;-0.4875;-0.1605;-0.1363
0001002008;7.1323;1.9345;1.6161;-0.5903;-0.1584;-0.1805
0001002021;8.2313;2.3320;2.3176;-0.7048;-0.0292;-0.1700
0001002030;8.5521;2.4732;2.4517;-0.7209;0.1287;-0.1119
0001002046;7.3287;3.3303;2.2817;-0.7160;0.4369;0.0602
0001002055;5.7102;4.0582;2.1668;-0.7204;0.5445;0.1800
0001002068;3.9025;4.9368;1.6951;-0.7249;0.5766;0.3144
0001002077;3.1196;4.7836;1.1540;-0.7506;0.5373;0.3433
0001002147;-0.1389;11.9997;2.5402;-0.7787;-0.4313;0.0553
0001002156;3.0047;8.4300;1.6783;-0.9390;-0.5423;-0.0886
0001002165;6.3422;5.0709;1.4437;-0.7557;-0.5409;-0.1775
0001002178;9.2296;2.7509;1.3240;-0.2781;-0.3272;-0.2405
0001002187;10.1682;2.7797;1.1253;0.0136;-0.0941;-0.2430
0001002199;10.0461;3.7493;1.0080;0.2450;0.2338;-0.1712
0001002208;9.1291;5.2146;1.3048;0.2513;0.4482;-0.0721
0001002221;6.5745;6.5817;1.5586;0.0128;0.6622;0.1011
0001002230;4.8459;6.7732;2.0279;-0.1868;0.7310;0.1989
0001002239;3.7278;6.5386;2.4062;-0.3419;0.7469;0.2710
0001002251;2.8395;4.8746;2.4469;-0.4190;0.6881;0.3027
0001002260;2.6264;3.3543;2.4205;-0.3898;0.6054;0.2582
0001002273;3.4357;1.8747;2.4325;-0.2685;0.4887;0.1532
0001002282;4.1444;1.2833;2.3535;-0.1772;0.4070;0.0675
0001002294;5.2912;1.1037;2.3391;-0.1175;0.3142;-0.0124
0001002303;5.8059;1.0080;2.1763;-0.1180;0.2562;-0.0410
0001002312;6.2704;1.1109;2.0470;-0.1533;0.2177;-0.0460
0001002325;6.2776;0.9816;2.1404;-0.2096;0.1928;-0.0252
0001002334;6.0741;0.8739;2.1476;-0.2392;0.1960;-0.0103
0001002346;5.4181;0.6057;2.3032;-0.2136;0.1986;-0.0096
0001002355;5.1308;0.6680;2.2936;-0.1502;0.2006;-0.0241
0001002368;4.7501;0.8811;2.2960;-0.0604;0.2133;-0.0393
0001002377;4.6807;0.8667;2.3320;-0.0169;0.2132;-0.0326
0001002447;5.6096;2.4684;1.8364;-0.0739;0.0871;0.0564
0001002456;5.6982;2.2362;1.9944;-0.0825;0.0935;0.0437
0001002465;5.6264;2.0207;1.9920;-0.0634;0.1082;0.0401
0001002478;5.4660;1.6592;2.0135;-0.0001;0.1168;0.0424
0001002487;5.4612;1.7430;1.9369;0.0648;0.1098;0.0369
0001002499;4.9009;1.9010;1.8387;0.1456;0.0774;0.0549
0001002508;4.8818;2.3272;1.6616;0.1861;0.0454;0.0671
0001002521;4.6424;2.7294;1.5562;0.1998;-0.0196;0.0854
0001002530;4.6112;2.7438;1.4964;0.1889;-0.0697;0.0913
0001002539;4.9201;2.7054;1.4341;0.1671;-0.1131;0.0849
0001002551;5.2241;2.3320;1.3001;0.1416;-0.1430;0.0691
0001002560;5.5522;2.0662;1.1636;0.1499;-0.1631;0.0562
0001002573;5.8155;1.6113;1.5634;0.1649;-0.1711;0.0534
0001002582;6.0310;1.6903;1.6592;0.1747;-0.1721;0.0526
0001002594;5.8347;1.6209;1.5802;0.1773;-0.1707;0.0542
0001002603;5.4348;1.7502;1.4533;0.1823;-0.1883;0.0516
0001002612;5.1858;2.0830;1.3408;0.1767;-0.1853;0.0644
0001002625;4.9704;2.5139;1.3647;0.1847;-0.2100;0.0873
0001002634;5.0925;2.8802;1.2043;0.1859;-0.2238;0.1104
0001002646;5.3965;3.1053;1.1372;0.1687;-0.2489;0.1503
0001002655;5.7509;3.1077;0.9146;0.1484;-0.2409;0.1783
0001002668;5.8395;2.8778;0.8571;0.1580;-0.2260;0.1989
0001002677;5.7628;2.9042;0.8164;0.1765;-0.2140;0.2037
0001002686;5.5785;2.9113;0.9026;0.1832;-0.2076;0.2205
0001002756;5.6527;2.5714;0.5531;0.1362;-0.1721;0.2721
0001002765;5.5929;2.5379;0.4884;0.1268;-0.1488;0.2559
0001002778;5.4324;2.6504;0.7566;0.0795;-0.1135;0.2276
0001002787;5.4971;2.7366;0.9960;0.0360;-0.1110;0.2025
0001002799;5.0087;2.4253;0.9361;0.0080;-0.1367;0.1884
0001002808;4.8914;2.0782;1.0319;-0.0137;-0.1619;0.1944
0001002817;4.7166;1.8387;1.0319;-0.0153;-0.2092;0.1817
0001002830;5.0949;1.7933;0.7805;0.0238;-0.2659;0.1567
0001002839;4.8530;1.7190;0.6608;0.0485;-0.2972;0.1354
0001002851;5.1475;2.0590;0.7638;0.0805;-0.3611;0.0933
0001002860;5.0087;2.2362;0.8164;0.0734;-0.3986;0.0745
0001002873;4.9488;2.5019;0.7398;0.0690;-0.4672;0.0492
0001002882;4.5825;2.2242;0.8140;0.0566;-0.5140;0.0484
0001002891;4.9321;2.4948;0.8452;0.0552;-0.5732;0.0528
0001002903;4.6615;2.1739;0.8523;0.0453;-0.6535;0.0594
0001002912;4.8674;2.1428;0.8667;0.0430;-0.7198;0.0634
0001002925;4.8961;1.7262;0.6201;0.0625;-0.7882;0.0694
0001002934;4.9560;1.6400;0.5746;0.0600;-0.7991;0.0689
0001002946;5.2361;1.6185;0.5363;0.0496;-0.8006;0.0590
0001002955;5.7317;1.5490;0.3950;0.0581;-0.7721;0.0662
0001002964;5.9735;1.3192;0.2490;0.0731;-0.7321;0.0758
0001002977;6.5936;1.5036;0.2921;0.1042;-0.6380;0.1211
0001002986;6.7636;1.6448;0.5171;0.1096;-0.5730;0.1613
0001003054;6.0908;2.5642;2.5067;-0.1676;-0.4494;0.1192
0001003063;6.8211;3.0454;2.5881;-0.1713;-0.4331;0.0612
0001003076;8.1187;4.0989;2.3846;-0.1928;-0.3473;-0.0456
0001003085;8.7436;4.5633;2.5163;-0.2389;-0.2706;-0.1090
0001003097;8.7724;4.0701;2.3631;-0.3071;-0.1757;-0.1327
0001003106;8.4851;3.1987;1.9848;-0.2994;-0.0974;-0.0955
0001003115;7.6614;2.3774;1.9178;-0.2089;-0.0365;-0.0341
0001003128;6.6008;2.0925;2.0614;-0.0514;0.0083;0.0516
0001003137;6.1124;2.8443;2.7414;0.0059;-0.0096;0.0738
0001003149;6.1890;5.9951;4.4867;-0.0445;-0.0985;0.0477
0001003158;7.6303;9.9599;4.7405;-0.1106;-0.1242;-0.0621
0001003171;11.0061;13.9295;2.7054;-0.2947;-0.0755;-0.2352
0001003180;11.0756;11.6550;0.9840;-0.5265;-0.0246;-0.2497
0001003192;6.3686;5.2840;0.6297;-0.5690;0.0260;-0.2471
0001003201;3.0765;2.0925;0.3160;-0.2605;0.0213;-0.2514
0001003210;1.0582;0.6512;0.2825;0.2254;-0.0332;-0.2434
0001003223;0.8595;1.5131;0.4884;0.8528;-0.2018;-0.1593
0001003232;2.2745;3.5075;0.6009;1.0259;-0.3601;-0.1069
0001003244;4.5849;6.5218;0.9625;0.8761;-0.5312;-0.0662
0001003253;6.3734;8.3366;1.0319;0.5844;-0.6215;-0.0847
0001003266;8.3917;8.5760;1.0702;0.0855;-0.6410;-0.1691
0001003275;9.4284;6.8618;1.2402;-0.1661;-0.5923;-0.2405
0001003284;9.9335;4.6831;1.4581;-0.2630;-0.4971;-0.2839
0001003354;6.2106;2.4205;1.4174;-0.0083;0.0560;-0.0738
0001003363;6.6056;2.2697;1.4676;-0.0675;0.0632;-0.0560
0001003376;7.3909;2.2482;1.6233;-0.0655;0.0785;-0.0119
0001003385;7.7285;2.1021;1.7669;-0.0189;0.1033;0.0115
0001003397;7.6543;2.2577;1.6161;0.0464;0.1298;0.0112
0001003406;7.2856;2.4038;1.4940;0.0677;0.1484;-0.0117
0001003415;6.8953;2.4876;1.4293;0.0525;0.1665;-0.0468
0001003428;6.3590;2.0614;1.2258;0.0164;0.1767;-0.1001
0001003437;5.9999;2.0542;1.1277;0.0112;0.1689;-0.1280
0001003449;5.5809;1.8747;0.9361;0.0163;0.1519;-0.1378
0001003458;5.6120;2.2266;0.9337;0.0180;0.1315;-0.1195
0001003471;5.4636;2.5881;0.9720;0.0329;0.0661;-0.0967
0001003480;5.6790;2.9568;1.1157;0.0358;0.0188;-0.0839
0001003492;5.8419;3.2777;1.1253;0.0284;-0.0416;-0.0939
0001003501;6.1675;3.2322;1.0415;0.0288;-0.0652;-0.1166
0001003510;6.4380;3.1388;1.0774;0.0401;-0.0685;-0.1403
0001003523;6.5864;2.8587;0.9792;0.0793;-0.0557;-0.1808
0001003532;6.5505;2.6887;0.9218;0.1160;-0.0318;-0.1867
0001003543;6.8067;2.5283;0.7949;0.1367;0.0047;-0.1781
0001003552;6.9456;2.7653;0.7039;0.1471;0.0416;-0.1553
0001003566;7.1802;3.1651;0.5698;0.1255;0.1191;-0.0787
0001003575;7.5298;3.3495;0.3807;0.1025;0.1620;-0.0358
0001003584;7.5130;3.1771;0.1987;0.0775;0.2094;0.0091
0001003653;6.3782;2.1428;0.4238;0.1621;0.2823;-0.1452
0001003662;6.3446;2.0470;0.4597;0.1368;0.2809;-0.1426
0001003674;6.1962;1.9201;0.6632;0.1172;0.2725;-0.1355
0001003683;5.9448;1.8387;0.7470;0.1115;0.2619;-0.1296
0001003696;5.8155;1.8747;0.8404;0.1128;0.2439;-0.1344
0001003705;5.7772;2.0063;0.7446;0.1319;0.2324;-0.1439
0001003714;5.8610;1.9417;0.7350;0.1402;0.2333;-0.1531
0001003726;5.9711;1.7382;0.8308;0.1664;0.2282;-0.1737
0001003735;6.0861;1.8100;0.9290;0.1929;0.2276;-0.1970
0001003748;6.0717;1.5155;0.7111;0.2545;0.2301;-0.1953
0001003757;5.9783;1.4557;0.4908;0.2976;0.2309;-0.1680
0001003769;5.7557;1.7310;0.4429;0.3625;0.2116;-0.1304
0001003778;5.5426;1.8866;0.3041;0.4034;0.1840;-0.1204
0001003787;5.4923;2.2482;0.3232;0.4064;0.1544;-0.1246
0001003800;5.6096;2.3224;0.4022;0.3825;0.0889;-0.1657
0001003809;5.8849;2.4708;0.5052;0.3659;0.0450;-0.1973
0001003821;6.2441;2.1835;0.4836;0.3421;0.0041;-0.2058
0001003830;6.5936;1.9465;0.1532;0.3445;-0.0063;-0.1817
0001003843;6.6272;1.7645;-0.0287;0.3616;-0.0091;-0.1282
0001003852;6.6343;1.6137;-0.1437;0.3596;-0.0085;-0.0890
0001003861;6.3063;1.5514;-0.1939;0.3471;-0.0132;-0.0633
0001003873;6.1938;2.0830;-0.1891;0.3027;-0.0153;-0.0590
0001003882;6.0669;2.4325;0.0982;0.2438;-0.0099;-0.0755
0001003951;7.4148;1.9489;0.0646;-0.2442;0.1491;-0.1375
0001003960;7.2999;1.9249;0.2155;-0.2642;0.1804;-0.1204
0001003972;6.7947;2.3631;0.5195;-0.3186;0.1952;-0.1255
0001003981;6.6798;3.1005;0.8284;-0.3848;0.2093;-0.1588
0001003994;6.2130;3.5243;1.2210;-0.4987;0.2713;-0.2082
0001004003;5.6695;3.4788;1.7023;-0.5690;0.3059;-0.2399
0001004012;5.1332;4.0438;1.8076;-0.6051;0.3075;-0.2260
0001004024;3.7373;4.8052;1.9656;-0.5946;0.2462;-0.1384
0001004033;3.1603;5.7174;1.5730;-0.5598;0.1551;-0.0509
0001004046;2.6097;5.5354;1.1947;-0.5885;0.0027;-0.0175
0001004055;3.1627;4.5945;0.8547;-0.6404;-0.0889;-0.0851
0001004067;3.8092;3.3327;1.0870;-0.6423;-0.1817;-0.2138
0001004076;4.2377;3.2298;1.3288;-0.5826;-0.2341;-0.3106
0001004089;4.5107;4.0749;2.3128;-0.4962;-0.2561;-0.3952
0001004098;4.0893;5.9113;3.4405;-0.4711;-0.2381;-0.3909
0001004107;2.3367;8.4491;3.6583;-0.4443;-0.2447;-0.3230
0001004119;-0.2251;11.1306;2.5833;-0.4120;-0.2966;-0.1715
0001004128;0.0766;10.0892;1.4174;-0.5701;-0.3504;-0.1955
0001004141;4.6639;5.6503;0.3783;-0.6734;-0.3683;-0.2806
0001004150;7.1012;3.1149;-0.1652;-0.5151;-0.3055;-0.2954
0001004162;8.5521;1.8316;-0.3136;-0.1819;-0.1543;-0.2763
0001004172;8.7293;2.3056;-0.1580;0.0305;-0.0246;-0.2394
0001004241;2.6959;3.5698;1.2833;-0.1571;0.0001;-0.0120
0001004250;3.3615;2.6145;1.3168;-0.1150;-0.0624;-0.0701
0001004259;4.2665;2.1452;1.2833;-0.0858;-0.1021;-0.1022
0001004271;5.1882;1.8148;1.4246;-0.0486;-0.1382;-0.1256
0001004280;5.8826;1.8316;1.4174;-0.0344;-0.1494;-0.1187
0001004293;6.0597;1.7286;1.4461;-0.0392;-0.1547;-0.0929
0001004302;6.1196;2.0111;1.5275;-0.0597;-0.1362;-0.0767
0001004314;6.0310;2.0710;1.8364;-0.0598;-0.0995;-0.0505
0001004323;5.9017;2.0327;1.8699;-0.0330;-0.0510;-0.0378
0001004336;5.5474;1.9489;1.9345;0.0282;0.0314;-0.0025
0001004345;5.3893;2.0231;2.0159;0.0652;0.0986;0.0349
0001004354;5.1284;2.1452;1.9537;0.0975;0.1423;0.0569
0001004366;5.0589;2.1955;1.6041;0.1200;0.1901;0.0887
0001004375;5.0254;2.2290;1.4988;0.1316;0.1994;0.0971
0001004388;5.0326;2.2673;1.3336;0.1144;0.1939;0.1202
0001004397;5.0278;2.4876;1.3719;0.0809;0.1723;0.1374
0001004409;4.9728;2.4948;1.3862;0.0470;0.1334;0.1585
0001004418;5.2194;2.8371;1.3886;0.0334;0.1001;0.1559
0001004427;5.1116;2.6671;1.3982;0.0181;0.0765;0.1531
0001004440;4.7836;2.4828;1.3815;0.0238;0.0564;0.1386
0001004449;4.9368;2.4828;1.4341;0.0461;0.0433;0.1202
0001004461;5.0326;2.5187;1.5131;0.0879;0.0437;0.0987
0001004470;5.0805;2.6432;1.5874;0.1212;0.0444;0.0799
0001004479;5.4061;2.9185;1.5993;0.1367;0.0568;0.0723
0001004549;5.0685;2.8180;1.0199;0.1431;0.1262;0.0979
0001004558;4.8507;3.1364;1.0822;0.1280;0.1092;0.1057
0001004570;4.7669;3.0239;1.1157;0.1050;0.0835;0.1186
0001004579;5.0111;3.1005;1.1995;0.1037;0.0578;0.1178
0001004592;5.0182;2.7342;1.2570;0.1009;0.0392;0.1262
0001004601;5.3463;2.6839;1.1588;0.1115;0.0385;0.1375
0001004610;5.3319;2.5019;0.9194;0.1311;0.0340;0.1430
0001004622;5.4540;2.5857;0.9936;0.1179;0.0500;0.1839
0001004631;5.4013;2.7892;1.1109;0.1025;0.0580;0.2208
0001004644;5.6072;3.0837;1.2163;0.0652;0.0725;0.2623
0001004653;5.6767;3.1340;1.2163;0.0386;0.0837;0.2735
0001004665;5.8035;3.1316;1.2330;0.0061;0.1094;0.2822
0001004674;6.1818;3.1005;1.0822;-0.0116;0.1352;0.2863
0001004683;6.3087;2.9018;0.9936;-0.0208;0.1496;0.2898
0001004696;6.2249;2.7031;0.9026;-0.0197;0.1751;0.3006
0001004705;6.2656;2.5522;0.8978;-0.0117;0.1917;0.3010
0001004717;6.1531;2.6097;0.8691;-0.0029;0.2121;0.3047
0001004726;5.9209;2.4421;0.9505;0.0053;0.2258;0.3043
0001004739;5.5282;2.1165;0.8930;0.0244;0.2245;0.3047
0001004748;5.5665;2.1165;0.8452;0.0341;0.2257;0.3075
0001004757;5.6168;2.2122;0.7398;0.0557;0.2061;0.2964
0001004769;5.5593;2.3152;0.6752;0.0604;0.1919;0.2854
0001004778;5.5809;2.5283;0.6776;0.0525;0.1833;0.2778
0001004848;5.7221;2.1213;0.3998;0.0396;0.1755;0.2241
0001004857;5.6814;2.4756;0.3711;0.0382;0.1484;0.2405
0001004866;5.2481;2.3511;0.3639;0.0398;0.1123;0.2427
0001004878;4.9057;2.4612;0.1556;0.0248;0.0785;0.2514
0001004887;4.6950;2.4445;0.2610;0.0101;0.0470;0.2481
0001004900;4.7166;2.3487;0.3831;-0.0083;0.0015;0.2425
0001004909;4.8339;2.2745;0.2777;-0.0169;-0.0402;0.2340
0001004921;4.9057;1.8004;0.2155;0.0015;-0.0975;0.2184
0001004930;5.3965;1.9058;0.2346;0.0221;-0.1364;0.2088
0001004939;5.5545;1.9106;0.0934;0.0509;-0.1751;0.1825
0001004952;5.5450;1.7669;0.0144;0.0734;-0.1978;0.1588
0001004961;5.7293;1.9585;0.0646;0.0749;-0.2052;0.1459
0001004973;5.8778;2.2242;-0.1053;0.0690;-0.2134;0.1312
0001004982;5.8586;2.3463;0.0263;0.0573;-0.2114;0.1198
0001004995;5.8562;2.6528;0.2394;0.0037;-0.1952;0.1275
0001005004;5.8059;2.9161;0.3280;-0.0309;-0.2058;0.1255
0001005013;5.4875;2.6552;0.5507;-0.0580;-0.2056;0.1443
0001005025;5.5162;2.3559;0.4357;-0.0501;-0.2224;0.1684
0001005034;5.4420;2.0901;0.3184;-0.0232;-0.2369;0.1841
0001005048;5.3343;2.0997;0.0766;0.0020;-0.2618;0.1933
0001005057;5.0901;2.1021;-0.0503;0.0224;-0.3126;0.1831
0001005127;6.0382;1.6041;-0.1963;0.1011;-0.4790;0.1087
0001005136;6.3973;1.6664;-0.1939;0.1378;-0.4568;0.1126
0001005148;6.6319;1.6712;0.0239;0.1593;-0.4462;0.1344
0001005157;7.0725;1.8531;0.1652;0.1647;-0.4430;0.1556
0001005166;6.9192;1.3791;-0.0766;0.1773;-0.4253;0.1704
0001005179;7.0318;1.4198;-0.1844;0.2132;-0.3762;0.1713
0001005188;7.0581;1.7861;0.2873;0.2403;-0.3588;0.1529
0001005200;7.2161;2.4349;1.0415;0.1969;-0.3449;0.1219
0001005209;7.5848;3.5171;1.2354;0.1419;-0.2970;0.0798
0001005222;7.6662;4.6783;1.1947;0.0669;-0.1733;-0.0433
0001005231;7.5968;5.1427;1.2474;0.0064;-0.0616;-0.1362
0001005240;7.2999;4.5514;1.4222;-0.0502;0.0318;-0.2078
0001005252;7.3358;3.3926;1.6592;-0.0709;0.1368;-0.2292
0001005261;7.5537;2.8850;1.7693;-0.0127;0.2073;-0.1911
0001005274;8.3007;3.2226;2.2577;0.1010;0.2966;-0.1276
0001005283;8.8131;3.8690;2.0518;0.1511;0.3792;-0.0891
0001005295;8.7436;4.1851;2.0877;0.1707;0.5027;-0.0421
0001005304;8.3797;4.7333;2.6384;0.1234;0.5666;0.0075
0001005313;8.3366;5.7844;3.0837;0.0352;0.5804;0.0281
0001005326;8.8155;8.2025;2.0758;-0.0454;0.6002;-0.0163
0001005335;8.5281;9.3805;1.0582;-0.0410;0.6258;-0.1167
0001005347;7.0988;9.2440;0.5363;-0.0893;0.6311;-0.3124
0001005356;5.2960;7.1635;0.2969;-0.1280;0.6105;-0.4226
0001005425;6.4979;7.0342;0.9601;0.1968;0.1010;-0.3424
0001005434;7.2329;6.5386;0.6847;0.0472;0.0986;-0.3909
0001005443;7.8482;5.6695;0.4788;-0.0695;0.1228;-0.4194
0001005455;7.5609;3.8164;0.3160;-0.1126;0.1693;-0.3890
0001005464;7.1611;2.9353;0.4645;-0.0777;0.2064;-0.3449
0001005477;6.4835;2.6049;0.6823;-0.0103;0.2675;-0.2726
0001005486;6.2249;2.8132;0.7302;0.0088;0.2906;-0.2348
0001005498;5.9209;2.9185;0.7614;-0.0019;0.3068;-0.1868
0001005507;5.5952;2.9042;0.7542;-0.0229;0.3136;-0.1679
0001005520;5.5929;2.9544;0.6704;-0.0538;0.3019;-0.1575
0001005529;5.6503;2.8323;0.6249;-0.0686;0.2863;-0.1576
0001005538;5.9113;2.8587;0.6632;-0.0706;0.2673;-0.1672
0001005550;6.2201;2.4972;0.7470;-0.0561;0.2550;-0.1687
0001005559;6.4284;2.3511;0.6297;-0.0357;0.2559;-0.1629
0001005572;6.8163;2.5019;0.5746;-0.0261;0.2599;-0.1435
0001005581;6.6343;2.4421;0.5076;-0.0426;0.2679;-0.1162
0001005593;6.5027;2.8108;0.5052;-0.0649;0.2606;-0.0791
0001005602;6.2130;3.0095;0.3926;-0.0787;0.2334;-0.0524
0001005611;5.6240;3.0694;0.3208;-0.1023;0.2076;-0.0284
0001005624;5.2002;3.1029;0.2322;-0.1284;0.1468;-0.0191
0001005633;5.2816;2.9760;0.2011;-0.1272;0.1013;-0.0144
0001005645;5.3822;2.5642;0.3065;-0.1023;0.0529;-0.0262
0001005654;5.5952;2.3822;0.2729;-0.0655;0.0362;-0.0350
0001005724;6.2249;3.5530;-0.2179;-0.0361;0.0648;-0.0184
0001005733;6.0669;3.4381;-0.3352;-0.0286;0.0621;-0.0585
0001005745;6.0334;3.3830;-0.1987;-0.0330;0.0674;-0.0937
0001005754;5.8658;3.0813;-0.2131;-0.0147;0.0754;-0.0985
0001005763;6.0885;3.1819;-0.1987;0.0019;0.0915;-0.0994
0001005776;6.0765;2.9137;-0.1197;0.0269;0.1108;-0.0729
0001005785;6.0669;2.7485;-0.2394;0.0425;0.1198;-0.0380
0001005797;6.2201;2.6552;-0.3496;0.0353;0.1495;0.0127
0001005806;6.3351;2.4732;-0.2442;0.0300;0.1595;0.0505
0001005819;6.3925;2.6839;-0.2227;0.0004;0.1717;0.1026
0001005828;6.3829;2.5139;-0.3328;-0.0200;0.1705;0.1264
0001005837;6.2465;2.6528;0.0168;-0.0390;0.1510;0.1331
0001005849;5.9592;2.8347;0.2849;-0.0933;0.1222;0.1326
0001005858;5.6743;2.7701;0.4142;-0.1220;0.0787;0.1106
0001005871;5.4085;2.3727;0.4932;-0.1484;0.0256;0.0873
0001005880;5.5545;2.1668;0.3759;-0.1508;-0.0035;0.0861
0001005892;5.5378;1.6735;0.3184;-0.1235;-0.0352;0.0961
0001005901;5.3702;1.2977;0.2562;-0.0833;-0.0557;0.0929
0001005914;5.7700;1.6113;-0.0958;-0.0453;-0.0625;0.0991
0001005923;5.8586;1.7693;-0.0120;-0.0290;-0.0746;0.0805
0001005932;6.0166;1.9800;-0.1197;-0.0453;-0.0765;0.0699
0001005944;6.1052;2.2122;-0.1125;-0.0697;-0.0975;0.0360
0001005953;6.1651;2.2266;-0.1413;-0.0950;-0.1206;0.0168
0001006023;5.9711;0.9840;0.0431;0.0620;-0.3247;-0.1030
0001006032;6.2010;1.1229;0.1173;0.0706;-0.3171;-0.1090
0001006044;6.5864;1.0367;0.2586;0.0232;-0.2891;-0.1156
0001006053;6.7086;1.1684;0.2897;-0.0290;-0.2581;-0.1106
0001006066;6.5912;0.8547;0.3280;-0.0758;-0.2305;-0.1132
0001006075;6.4596;0.7494;0.1772;-0.0947;-0.2073;-0.1025
0001006084;6.7062;0.8404;0.1269;-0.0989;-0.2012;-0.0973
0001006096;6.9959;1.1923;0.1460;-0.1204;-0.1896;-0.0927
0001006105;6.9719;1.4629;0.2059;-0.1486;-0.1721;-0.0966
0001006118;7.2784;1.8004;0.3711;-0.2350;-0.1367;-0.1292
0001006127;7.3287;1.9034;0.6871;-0.3051;-0.1073;-0.1613
0001006139;7.0390;1.6544;0.9768;-0.4117;-0.0605;-0.1897
0001006148;6.8666;1.4006;0.7207;-0.4654;-0.0249;-0.1875
0001006161;6.5290;0.8499;0.1939;-0.4947;0.0181;-0.1952
0001006170;6.2752;0.8882;0.2274;-0.4966;0.0296;-0.2017
0001006179;6.2321;0.9577;0.4262;-0.5212;0.0332;-0.2136
0001006191;6.2560;1.7980;1.1732;-0.6069;0.0409;-0.2290
0001006200;6.5721;2.4325;2.1787;-0.7184;0.0858;-0.2137
0001006213;6.7971;2.7031;2.4780;-0.7822;0.1577;-0.1801
0001006222;5.8921;3.1149;1.1803;-0.7885;0.1795;-0.1320
0001006234;3.8738;4.5610;0.7949;-0.8492;0.0862;-0.0369
0001006243;2.6240;5.2241;1.0894;-0.9006;-0.0613;-0.0164
0001006252;1.4269;5.1116;1.5682;-0.9073;-0.2622;-0.0850
0001006322;2.2482;10.2041;2.3320;-0.3576;-1.1956;-0.4591
0001006331;4.8147;9.1028;1.4653;-0.4553;-1.1489;-0.5521
0001006343;7.5154;5.6862;0.3136;-0.4074;-1.0293;-0.5858
0001006352;8.5018;4.0031;0.1077;-0.2445;-0.8856;-0.5351
0001006365;8.4180;3.1651;0.6057;0.1120;-0.6049;-0.4024
0001006374;7.5585;3.8786;1.1756;0.3533;-0.4286;-0.2910
0001006386;6.1746;6.1962;1.8196;0.5002;-0.2781;-0.1580
0001006395;5.1739;7.5800;2.3439;0.4195;-0.2094;-0.0902
0001006404;4.5873;8.0900;2.5307;0.2474;-0.1679;-0.0612
0001006417;4.4173;7.2449;2.4972;0.0490;-0.1431;-0.0562
0001006426;4.2497;5.8107;2.2003;0.0020;-0.1581;-0.0663
0001006438;4.7214;4.5203;2.0566;0.0151;-0.1683;-0.0934
0001006447;4.7070;3.6057;2.0327;0.0461;-0.1908;-0.1312
0001006460;5.1499;3.4093;2.1117;0.0754;-0.2093;-0.1817
0001006469;5.1092;3.3830;2.0782;0.0743;-0.2366;-0.2082
0001006481;5.1451;3.3926;2.2218;0.0533;-0.2641;-0.2224
0001006490;5.3439;3.4860;2.2625;0.0573;-0.2771;-0.2224
0001006499;5.5593;3.2920;2.2960;0.0786;-0.2766;-0.2144
0001006512;5.7628;2.8108;2.2889;0.1474;-0.2381;-0.2048
0001006521;6.0597;2.6839;2.3559;0.2072;-0.2050;-0.2064
0001006533;5.9592;2.3343;2.3607;0.2717;-0.1270;-0.1859
0001006542;5.8299;2.3894;2.2889;0.3139;-0.0703;-0.1672
0001006612;5.4348;2.2386;1.8028;0.1387;0.0879;0.0429
0001006621;5.5809;2.1620;1.8076;0.1288;0.1049;0.0569
0001006630;5.6144;1.9609;1.8052;0.1347;0.1318;0.0855
0001006643;5.4612;1.9489;1.7454;0.1533;0.1688;0.1119
0001006652;5.5306;2.1907;1.6137;0.1745;0.1885;0.1283
0001006664;5.4684;2.3894;1.5299;0.1816;0.2110;0.1356
0001006673;5.1068;2.3679;1.3886;0.1851;0.2074;0.1294
0001006686;5.0350;2.4014;1.4509;0.1615;0.1978;0.1103
0001006695;4.9991;2.4565;1.4700;0.1344;0.1901;0.1046
0001006704;4.7525;2.3703;1.4269;0.1054;0.1808;0.1015
0001006716;4.8004;2.2505;1.3767;0.0755;0.1648;0.1021
0001006725;4.7094;2.0662;1.4317;0.0589;0.1498;0.1073
0001006738;5.0111;1.9800;1.4581;0.0494;0.1275;0.1220
0001006747;5.0374;1.7957;1.4222;0.0617;0.1115;0.1307
0001006756;5.2936;1.7980;1.3240;0.0636;0.1074;0.1479
0001006768;5.1619;1.8052;1.2953;0.0758;0.0882;0.1535
0001006777;4.9775;1.8340;1.2474;0.0711;0.0717;0.1583
0001006790;5.0182;2.0159;1.2115;0.0633;0.0514;0.1556
0001006799;4.6783;1.8747;1.2689;0.0636;0.0366;0.1572
0001006811;4.9177;2.0877;1.2282;0.0593;0.0308;0.1631
0001006820;4.9297;2.0710;1.1037;0.0624;0.0332;0.1643
0001006829;4.9105;2.0351;0.9242;0.0795;0.0360;0.1651
0001006842;5.0039;2.1668;1.0487;0.0843;0.0494;0.1863
0001006851;5.0996;2.2697;1.0558;0.0693;0.0549;0.2272
0001006921;5.5330;2.8347;0.5818;0.0478;0.0594;0.1661
0001006930;5.6407;2.8563;0.5363;0.0370;0.0719;0.1748
0001006943;5.8275;2.9066;0.3256;0.0148;0.0923;0.1840
0001006952;5.5617;2.5211;0.1508;0.0196;0.0877;0.1777
0001006961;5.4253;2.5474;0.1820;0.0317;0.0781;0.1668
0001006973;4.8483;2.4325;0.0551;0.0516;0.0508;0.1219
0001006982;4.5203;2.5929;0.2059;0.0798;0.0087;0.0710
0001006995;4.1803;2.8515;0.3687;0.1005;-0.0644;0.0049
0001007004;4.0869;2.9784;0.5555;0.0942;-0.1226;-0.0119
0001007016;4.5538;3.0933;0.6009;0.0663;-0.2122;-0.0272
0001007025;4.8052;2.8659;0.4429;0.0645;-0.2705;-0.0257
0001007034;4.9704;2.4995;0.1460;0.0701;-0.3030;-0.0189
0001007047;5.7820;2.5714;-0.0168;0.1039;-0.3539;-0.0266
0001007056;5.8921;2.3080;-0.1676;0.1155;-0.3798;-0.0310
0001007068;5.9448;1.9680;-0.0934;0.1291;-0.3989;-0.0333
0001007077;5.7604;1.9896;-0.0383;0.1467;-0.4085;-0.0397
0001007090;5.6144;2.0686;0.3376;0.1860;-0.4029;-0.0516
0001007099;5.2816;1.9321;0.3041;0.2212;-0.4006;-0.0472
0001007108;5.4181;1.9632;0.2729;0.2525;-0.3830;-0.0004
0001007120;5.4181;1.6759;0.0575;0.3136;-0.3788;0.0746
0001007129;5.7317;1.6712;-0.1030;0.3616;-0.3649;0.1279
0001007142;5.8993;1.6975;-0.0862;0.4203;-0.3377;0.1580
0001007151;6.4452;1.8675;-0.2490;0.4583;-0.2934;0.1667
0001007221;5.5641;1.5395;-0.5076;0.4471;0.0233;0.2751
0001007230;5.6551;1.3982;-0.4501;0.4571;0.0418;0.2802
0001007243;5.9711;1.1732;-0.5986;0.5060;0.0738;0.2642
0001007252;6.1435;1.0582;-0.4190;0.5269;0.0870;0.2374
0001007261;6.0693;0.8954;-0.2514;0.5189;0.1182;0.2054
0001007273;6.4260;0.8859;-0.5004;0.5304;0.1715;0.1573
0001007282;6.2297;0.8978;-0.5339;0.5327;0.2258;0.1463
0001007295;5.9280;1.6783;0.0599;0.4732;0.2675;0.1368
0001007304;5.9975;2.3487;0.7590;0.3632;0.2715;0.1270
0001007316;5.7437;4.1827;2.0877;0.1014;0.2673;0.1095
0001007325;5.6479;5.6120;2.8898;-0.1198;0.2443;0.0437
0001007334;5.8035;6.5434;3.2034;-0.3082;0.2431;-0.0497
0001007347;6.4260;6.3973;3.1364;-0.4792;0.2611;-0.1663
0001007356;6.3327;5.0781;2.9712;-0.4786;0.2657;-0.1589
0001007368;5.8155;3.2106;2.2122;-0.2882;0.2786;-0.0701
0001007377;5.5043;2.5666;2.0039;-0.0674;0.2753;-0.0055
0001007390;4.8961;2.6073;1.1349;0.1506;0.2723;0.0504
0001007399;4.5753;3.5578;0.9816;0.2094;0.2354;0.0726
0001007408;4.3455;4.8866;1.1923;0.1905;0.1536;0.0822
0001007420;4.7238;7.4579;1.9441;0.0638;-0.0063;0.0257
0001007429;5.7844;9.6295;1.7502;-0.0476;-0.1187;-0.0862
0001007442;7.0557;11.1713;0.5339;-0.1560;-0.2189;-0.3456
0001007451;7.4579;9.9766;0.0120;-0.2237;-0.2368;-0.4966
0001007521;5.0566;6.0621;0.1772;-0.0300;-0.0566;-0.0733
0001007530;5.2840;6.1675;0.3543;-0.1559;-0.1013;-0.0513
0001007539;5.8083;5.9903;0.4836;-0.2337;-0.1496;-0.0574
0001007552;6.0071;4.6998;0.6393;-0.2489;-0.2054;-0.0833
0001007561;6.1339;4.0103;0.7781;-0.2217;-0.2393;-0.0989
0001007573;6.1076;3.4022;0.7302;-0.1709;-0.2741;-0.0845
0001007582;5.5809;2.9473;0.6919;-0.1463;-0.2936;-0.0729
0001007595;5.0230;2.7438;0.5148;-0.1691;-0.3200;-0.0552
0001007604;5.0853;2.8419;0.4142;-0.2253;-0.3533;-0.0494
0001007616;5.0326;2.6217;0.4860;-0.3409;-0.3874;-0.0454
0001007625;5.2433;2.1548;0.5028;-0.4089;-0.4010;-0.0244
0001007634;5.4708;1.7430;0.5315;-0.4586;-0.3978;-0.0033
0001007647;5.8921;1.2234;0.7254;-0.4513;-0.3750;0.0273
0001007656;6.3614;1.0942;0.9122;-0.4092;-0.3452;0.0470
0001007668;6.7421;1.4389;1.0750;-0.3477;-0.2879;0.0596
0001007677;6.8235;1.7813;1.1253;-0.3123;-0.2426;0.0601
0001007690;7.0126;2.6360;1.1301;-0.2964;-0.1863;0.0422
0001007699;6.9576;2.8778;0.8787;-0.3084;-0.1556;0.0341
0001007711;6.3901;2.6528;0.7159;-0.3158;-0.1236;0.0278
0001007720;5.9065;2.2625;0.6153;-0.3102;-0.1066;0.0432
0001007729;5.3989;2.0327;0.4262;-0.2743;-0.1042;0.0453
0001007742;4.9704;2.0853;0.2753;-0.2084;-0.1144;0.0402
0001007751;5.0566;2.3200;0.3926;-0.1668;-0.1335;0.0373
0001007821;6.5362;2.9401;0.1173;0.0394;-0.0534;-0.0593
0001007830;6.2369;2.9185;0.2466;0.0524;-0.0120;-0.0765
0001007843;6.2968;3.0837;0.3759;0.0261;0.0540;-0.0899
0001007852;6.3159;2.9137;0.4812;-0.0072;0.1098;-0.0821
0001007861;6.5074;2.8371;0.4549;-0.0274;0.1580;-0.0803
0001007873;6.4093;2.7725;0.3017;-0.0414;0.2093;-0.0606
0001007882;5.9711;2.6432;0.2753;-0.0438;0.2329;-0.0398
0001007895;5.5138;2.9113;0.3232;-0.0540;0.2342;-0.0056
0001007904;5.1260;3.2034;0.4453;-0.0703;0.2124;0.0232
0001007916;4.7333;3.4046;0.2921;-0.0773;0.1502;0.0373
0001007925;4.7190;3.5602;0.3567;-0.0731;0.0865;0.0281
0001007938;4.6855;3.1532;0.3208;-0.0789;-0.0141;0.0027
0001007947;4.7453;2.8898;0.3831;-0.0809;-0.0795;-0.0151
0001007956;4.8650;2.6983;0.3783;-0.0652;-0.1491;-0.0412
0001007968;5.3271;2.3750;0.4812;-0.0424;-0.2156;-0.0630
0001007977;5.5282;2.4469;0.5339;-0.0250;-0.2499;-0.0798
0001007990;5.8419;2.6408;0.4334;-0.0230;-0.2803;-0.0949
0001007999;5.9831;2.6719;0.5219;-0.0389;-0.2751;-0.1015
0001008011;6.2848;2.6647;0.4669;-0.0456;-0.2677;-0.1066
0001008020;6.5505;2.6264;0.2658;-0.0498;-0.2503;-0.1073
0001008034;6.5673;2.2697;0.2107;-0.0294;-0.2040;-0.0991
0001008043;6.7229;2.0111;0.1580;-0.0189;-0.1736;-0.0825
0001008052;6.8738;1.8028;0.0862;-0.0055;-0.1282;-0.0674
0001008120;6.3710;1.9201;-0.2442;0.0962;0.1820;-0.0809
0001008129;6.0669;2.2769;-0.1532;0.1006;0.1769;-0.0943
0001008141;5.7892;2.5235;0.0287;0.1118;0.1392;-0.1195
0001008150;5.3463;2.4469;0.1437;0.1298;0.1006;-0.1456
0001008163;4.9775;2.4972;0.3208;0.1439;0.0246;-0.1789
0001008172;5.0829;2.6384;0.4286;0.1564;-0.0344;-0.1867
0001008181;5.0254;2.5163;0.4094;0.1572;-0.0895;-0.1792
0001008193;4.8100;2.4253;0.3256;0.1780;-0.1532;-0.1597
0001008202;4.8267;2.4732;0.2155;0.1935;-0.2076;-0.1487
0001008215;4.7094;2.5211;0.1077;0.1932;-0.2674;-0.1248
0001008224;5.0829;2.7892;0.2274;0.1757;-0.2832;-0.1106
0001008236;5.0973;2.6935;0.1915;0.1840;-0.3042;-0.1231
0001008245;5.4827;2.6528;0.2610;0.1985;-0.3178;-0.1391
0001008258;6.0071;2.4421;0.2059;0.2124;-0.3151;-0.1528
0001008267;5.9831;2.1261;-0.1077;0.2174;-0.2994;-0.1388
0001008276;6.0789;1.7933;-0.1844;0.2385;-0.2988;-0.1288
0001008288;6.2369;1.9680;-0.3926;0.2419;-0.2854;-0.1103
0001008297;6.3375;2.2362;-0.4166;0.2281;-0.2725;-0.1051
0001008310;6.1962;2.4924;-0.2059;0.1749;-0.2693;-0.1304
0001008319;6.2465;2.6408;-0.2658;0.1320;-0.2689;-0.1635
0001008331;6.3398;2.4612;0.0335;0.0608;-0.2662;-0.1917
0001008340;6.4955;2.1835;0.2155;0.0051;-0.2450;-0.1980
0001008410;7.1323;-0.0718;0.1293;0.1234;0.0636;0.0240
0001008419;6.9480;0.2107;-0.0096;0.1124;0.1066;0.0422
0001008428;6.6295;0.4693;0.1006;0.1075;0.1340;0.0600
0001008440;6.2369;0.9385;1.0295;0.0791;0.2093;0.1127
0001008449;5.6144;1.5155;1.6209;0.0412;0.2563;0.1721
0001008462;4.1779;3.3902;2.3918;-0.0366;0.2250;0.3220
0001008471;3.2944;4.8171;2.7940;-0.0795;0.1440;0.4731
0001008483;2.2649;6.4332;2.9042;-0.2296;-0.0117;0.6479
0001008492;2.4828;6.3255;2.5019;-0.4018;-0.1704;0.6805
0001008501;3.8355;5.1284;1.6400;-0.5231;-0.3359;0.5918
0001008514;5.3893;3.0694;1.7741;-0.4862;-0.5272;0.3315
0001008523;5.9065;2.8084;1.7741;-0.3495;-0.5942;0.1420
0001008535;5.2337;3.5650;1.6592;-0.1724;-0.6306;-0.0893
0001008544;4.6926;4.3934;1.7406;-0.1031;-0.6315;-0.2194
0001008557;3.8499;6.1004;2.6121;-0.1037;-0.6043;-0.2679
0001008566;2.9832;7.8793;2.9784;-0.1186;-0.5898;-0.1904
0001008575;1.8699;9.7300;2.3367;-0.1512;-0.5971;-0.0460
0001008587;1.8723;9.6654;1.4724;-0.3007;-0.6142;0.0650
0001008596;3.9959;7.9535;0.9625;-0.3523;-0.6059;0.0344
0001008609;7.7476;5.0637;0.2035;-0.1294;-0.4812;-0.0393
0001008618;9.6127;4.1659;-0.1030;0.0777;-0.3228;-0.0819
0001008630;10.3669;3.9361;-0.2705;0.2746;-0.0897;-0.1147
0001008639;10.0293;4.3551;-0.3903;0.3269;0.0797;-0.1268
0001008708;3.4237;4.1539;0.9673;-0.1112;0.2507;0.0460
0001008717;4.1013;3.2322;0.7949;-0.0033;0.1807;0.0041
0001008726;5.0542;2.8898;0.7446;0.1092;0.1399;-0.0358
0001008738;5.7820;2.9832;0.6009;0.2104;0.1046;-0.1031
0001008747;6.1794;3.2370;0.5818;0.2153;0.0989;-0.1358
0001008760;6.6679;3.6703;0.7374;0.1684;0.1075;-0.1672
0001008769;6.5410;3.5147;0.6656;0.1224;0.1316;-0.1731
0001008781;6.3566;3.3423;0.9122;0.0783;0.1819;-0.1541
0001008790;5.9256;3.0382;0.9936;0.0694;0.2306;-0.1418
0001008799;5.8682;2.8132;0.8619;0.0620;0.2809;-0.1107
0001008812;5.4348;2.6169;0.8140;0.0694;0.3351;-0.0596
0001008821;5.0039;2.4708;0.7685;0.0598;0.3423;-0.0272
0001008833;5.0063;2.4804;0.6680;0.0220;0.3235;0.0236
0001008842;5.0135;2.6863;0.4142;-0.0097;0.2783;0.0474
0001008855;4.8866;2.6456;0.3017;-0.0616;0.1968;0.0594
0001008864;4.8507;2.6193;0.3807;-0.1007;0.1451;0.0621
0001008873;5.0350;2.7318;0.5722;-0.1380;0.0997;0.0640
0001008885;5.1978;2.5929;0.6728;-0.1751;0.0558;0.0649
0001008894;5.6288;2.6743;0.6991;-0.1803;0.0470;0.0637
0001008907;6.1220;2.3966;0.7494;-0.1576;0.0480;0.0681
0001008916;6.2848;2.3391;0.5339;-0.1268;0.0553;0.0805
0001008928;6.3590;1.9704;0.4884;-0.0787;0.0830;0.1014
0001008937;6.1459;2.2745;0.2921;-0.0565;0.0923;0.1139
0001008946;5.8035;2.2362;0.4070;-0.0652;0.1034;0.1342
0001009016;6.3997;2.4157;0.2586;-0.0949;0.2112;0.1787
0001009025;6.0382;2.3224;0.0838;-0.0674;0.2161;0.1808
0001009037;5.5665;2.4205;0.1748;-0.0584;0.1992;0.1753
0001009046;5.1284;2.3727;0.1221;-0.0648;0.1813;0.1659
0001009059;4.8866;2.2122;0.0982;-0.0564;0.1238;0.1374
0001009068;5.0613;2.2362;-0.0144;-0.0340;0.0830;0.1287
0001009077;5.0757;2.3008;-0.1245;-0.0112;0.0352;0.1271
0001009089;4.8626;2.1165;-0.3184;0.0318;-0.0270;0.1422
0001009098;4.9321;2.5091;-0.4190;0.0557;-0.0727;0.1545
0001009111;4.7214;2.5953;-0.2155;0.0826;-0.1522;0.1507
0001009120;4.6711;2.6911;-0.2059;0.0739;-0.2042;0.1415
0001009132;4.9392;2.8443;0.0048;0.0568;-0.2605;0.1160
0001009141;5.4636;2.8156;0.0622;0.0505;-0.2790;0.0929
0001009154;5.8634;2.7677;0.0407;0.0400;-0.2785;0.0699
0001009163;5.7940;2.6911;0.1006;0.0453;-0.2835;0.0538
0001009172;5.9711;2.7318;0.1101;0.0476;-0.2671;0.0584
0001009184;5.8706;2.6647;-0.0503;0.0655;-0.2574;0.0650
0001009193;5.9209;2.8036;-0.1053;0.0715;-0.2525;0.0726
0001009206;5.8227;2.7701;-0.1221;0.0366;-0.2445;0.0950
0001009215;5.6958;2.9018;-0.0958;-0.0092;-0.2415;0.1026
0001009227;5.7078;2.8850;-0.0455;-0.0640;-0.2502;0.0826
0001009236;5.7365;2.5881;0.0718;-0.1002;-0.2541;0.0691
0001009245;5.6144;2.2960;0.1437;-0.1390;-0.2607;0.0640
0001009314;4.4412;1.7190;0.1101;-0.1219;-0.2453;0.0762
0001009323;4.5226;1.6640;-0.0718;-0.1013;-0.2551;0.0528
0001009335;4.5035;1.3360;0.0359;-0.0659;-0.2718;0.0237
0001009344;4.7309;1.5490;-0.0670;-0.0484;-0.2827;0.0188
0001009357;4.7190;1.7502;-0.1532;-0.0059;-0.2882;0.0430
0001009366;5.0446;2.0710;-0.0311;0.0177;-0.2843;0.0731
0001009380;5.1475;2.4804;0.1389;-0.0153;-0.2915;0.0831
0001009389;5.0901;2.3727;0.4429;-0.0686;-0.2970;0.0661
0001009398;4.8937;2.0231;0.4717;-0.1123;-0.3118;0.0225
0001009411;4.9967;1.3168;0.2418;-0.0994;-0.3192;-0.0558
0001009420;5.0566;0.7781;0.1389;-0.0362;-0.3168;-0.1038
0001009432;5.2481;0.3424;-0.4238;0.0500;-0.2862;-0.1346
0001009441;5.7940;0.5076;-0.6584;0.1262;-0.2575;-0.1304
0001009454;6.1004;0.7278;-0.7877;0.1811;-0.1817;-0.0675
0001009463;6.3303;1.0439;-0.5986;0.1899;-0.1203;-0.0183
0001009475;7.0198;1.4940;-0.1125;0.1430;-0.0290;0.0336
0001009484;6.6224;1.3910;0.2203;0.0995;0.0246;0.0486
0001009493;6.1842;1.2019;0.2610;0.0798;0.0370;0.0505
0001009563;9.2392;6.1914;4.0965;-0.3700;-0.1663;-0.1452
0001009572;11.0540;6.8019;3.1771;-0.3689;-0.0033;-0.2152
0001009584;11.4084;5.8131;1.7262;-0.4469;0.2574;-0.1687
0001009593;10.1107;3.8834;0.6464;-0.4347;0.4493;-0.0490
0001009607;7.2951;1.6855;0.0287;-0.3062;0.7072;0.1899
0001009616;5.8155;1.5897;-0.3089;-0.1176;0.7955;0.3455
0001009625;4.8770;2.6217;0.1963;0.0378;0.8038;0.4994
0001009638;4.3646;6.9145;3.3255;-0.0133;0.6042;0.6213
0001009647;5.8395;12.2631;4.0318;-0.2170;0.4407;0.5644
0001009659;8.8202;17.4609;2.4517;-0.5650;0.2876;0.2775
0001009668;9.6750;15.2175;1.2282;-1.0172;0.2354;0.1548
0001009681;6.1746;6.0142;0.5435;-1.0993;0.2761;0.1320
0001009690;3.9073;1.5514;0.3112;-0.7274;0.2862;0.1295
0001009699;2.6935;0.0958;0.6369;-0.2309;0.2409;0.1432
0001009711;2.5474;1.0439;1.1085;0.3439;0.0991;0.2264
0001009720;3.0574;3.1699;1.2905;0.5008;-0.0536;0.2844
0001009733;4.5155;6.6152;1.8627;0.3292;-0.2707;0.2966
0001009742;5.8419;8.3917;2.0159;0.0640;-0.3713;0.2406
0001009754;7.6471;8.2528;2.0039;-0.2920;-0.4315;0.1211
0001009763;8.9376;6.6607;1.9034;-0.4155;-0.4230;0.0368
0001009772;9.5792;4.4412;1.8794;-0.3786;-0.3579;-0.0004
0001009785;9.5313;2.2960;1.8411;-0.1294;-0.2032;0.0103
0001009794;8.8131;1.6448;1.9249;0.0593;-0.0935;0.0580
0001009864;6.6535;2.0375;1.8842;-0.3888;0.0561;0.1351
0001009873;6.7900;1.7741;2.0901;-0.3080;0.0548;0.1116
0001009886;7.3526;1.7286;1.9848;-0.1831;0.0598;0.1009
0001009895;7.3191;1.8842;1.7909;-0.1212;0.0546;0.1001
0001009907;7.2472;2.1596;1.6735;-0.0913;0.0341;0.1154
0001009916;7.3478;2.4804;1.7095;-0.1212;0.0218;0.1255
0001009925;7.4029;2.5067;1.4796;-0.1581;0.0149;0.1180
0001009938;6.9815;2.2913;1.3240;-0.2029;0.0341;0.0926
0001009947;6.9408;2.4277;1.3719;-0.2165;0.0677;0.0758
0001009959;6.5338;2.3918;1.2234;-0.1939;0.0991;0.0394
0001009968;6.5984;2.5043;1.2330;-0.1619;0.1098;0.0204
0001009981;6.3949;2.4876;1.3048;-0.1035;0.0969;-0.0003
0001009990;6.5218;2.5307;1.2881;-0.0755;0.0743;-0.0136
0001009999;6.4907;2.5043;1.2234;-0.0612;0.0465;-0.0195
0001010011;6.7086;2.7605;1.3982;-0.0612;0.0052;-0.0290
0001010020;6.6798;2.7366;1.3743;-0.0618;-0.0277;-0.0450
0001010033;7.0509;2.8515;1.2857;-0.0628;-0.0356;-0.0621
0001010042;7.2903;3.0239;1.2474;-0.0570;-0.0440;-0.0770
0001010054;7.2832;3.0191;1.2067;-0.0568;-0.0352;-0.0967
0001010063;7.2209;2.9808;1.0846;-0.0649;-0.0261;-0.1074
0001010076;6.8809;3.0335;1.1396;-0.0659;-0.0308;-0.1262
0001010085;6.8570;2.8395;1.1205;-0.0799;-0.0370;-0.1310
0001010094;6.7852;2.7892;1.1756;-0.0935;-0.0380;-0.1240
0001010164;7.7764;2.8108;1.3048;-0.0982;0.1339;-0.1311
0001010173;7.7333;2.8228;1.2402;-0.1127;0.1763;-0.1270
0001010186;7.4340;2.7869;1.3503;-0.1239;0.2244;-0.1416
0001010195;7.1419;2.6815;1.2474;-0.1039;0.2527;-0.1483
0001010207;7.1180;2.6767;1.2139;-0.0899;0.2987;-0.1346
0001010216;7.0844;2.8204;1.2210;-0.0725;0.3215;-0.1274
0001010225;7.0078;3.0239;1.0511;-0.0709;0.3485;-0.1220
0001010238;7.1204;3.1843;1.0894;-0.0806;0.3789;-0.1135
0001010247;6.9288;3.0574;1.0319;-0.0943;0.3937;-0.1061
0001010259;6.8283;2.9832;0.9098;-0.1047;0.4110;-0.1132
0001010268;6.9887;2.9113;1.0774;-0.1047;0.4246;-0.1322
0001010281;6.8761;2.7174;1.0965;-0.1017;0.4425;-0.1488
0001010290;6.8857;2.4565;0.9936;-0.0833;0.4576;-0.1556
0001010302;6.9025;2.4038;0.8787;-0.0445;0.4795;-0.1506
0001010311;6.9839;2.5714;0.9002;-0.0172;0.4882;-0.1438
0001010320;6.9839;2.6456;0.7901;-0.0028;0.5063;-0.1339
0001010333;6.9360;2.8754;0.8284;0.0048;0.5195;-0.1331
0001010342;6.8546;2.9856;0.6464;0.0029;0.5181;-0.1382
0001010354;6.6343;3.1484;0.7781;-0.0224;0.4939;-0.1548
0001010363;6.2058;2.9329;0.8116;-0.0421;0.4570;-0.1697
0001010376;5.6455;2.7725;0.6704;-0.0574;0.3832;-0.1757
0001010385;5.4779;2.8108;0.5722;-0.0646;0.3271;-0.1731
0001010394;5.3893;2.7988;0.5555;-0.0576;0.2499;-0.1827
0001010464;6.1794;2.9856;0.4022;0.0329;-0.0725;-0.2546
0001010473;6.1770;3.0071;0.3017;0.0294;-0.0857;-0.2755
0001010486;6.0765;2.7653;0.1915;0.0233;-0.0755;-0.3026
0001010495;5.9687;2.5474;0.2083;0.0225;-0.0782;-0.3419
0001010507;6.2010;2.7653;0.2083;0.0187;-0.0747;-0.3631
0001010516;6.1818;2.8036;0.1772;0.0065;-0.0592;-0.3681
0001010529;6.3734;2.9377;0.3496;-0.0113;-0.0234;-0.3741
0001010538;6.5003;3.1771;0.4669;-0.0265;0.0209;-0.3693
0001010547;6.6415;3.2417;0.6129;-0.0460;0.0745;-0.3726
0001010559;6.6367;3.2705;0.8499;-0.0616;0.1652;-0.3706
0001010568;6.3614;3.5506;1.3072;-0.0834;0.2366;-0.3459
0001010581;5.4708;4.2689;1.5802;-0.1108;0.3100;-0.2801
0001010590;4.9297;4.5394;1.6712;-0.1207;0.3397;-0.1980
0001010602;4.5346;4.5729;1.8890;-0.1451;0.3271;-0.0875
0001010611;4.1922;4.3048;1.8340;-0.1723;0.2825;-0.0168
0001010620;4.0941;3.6081;1.9034;-0.2044;0.2205;0.0374
0001010633;4.2186;3.1005;2.0662;-0.1896;0.1043;0.0726
0001010642;4.0749;2.9257;2.0231;-0.1319;0.0180;0.0986
0001010654;4.1372;3.1747;1.8723;-0.0522;-0.1146;0.1136
0001010663;4.3479;3.4955;1.9058;-0.0300;-0.2061;0.1324
0001010676;5.1380;3.8379;2.0853;-0.0354;-0.3216;0.1539
0001010685;5.9400;3.8379;1.8340;-0.0465;-0.3693;0.1368
0001010755;6.3422;3.6392;1.8196;-0.0817;0.1529;0.0153
0001010764;5.7461;3.2729;1.9106;-0.0967;0.1876;0.0345
0001010773;5.3008;2.9880;1.7717;-0.0878;0.1800;0.0460
0001010786;4.7357;2.2793;2.0183;-0.0662;0.1483;0.0662
0001010795;4.7142;1.9920;2.0877;-0.0401;0.1070;0.0637
0001010807;4.6735;1.7334;2.0925;-0.0124;0.0601;0.0609
0001010816;4.9368;1.5562;2.2817;0.0220;0.0240;0.0440
0001010829;5.2337;1.6640;2.3655;0.0310;-0.0041;0.0476
0001010838;5.5426;1.7717;2.3248;0.0405;-0.0193;0.0476
0001010847;5.8419;2.0446;2.4349;0.0348;-0.0093;0.0707
0001010859;5.7533;2.1931;2.4780;0.0153;0.0172;0.0886
0001010868;5.5881;2.2290;2.6073;-0.0055;0.0380;0.1053
0001010881;5.2433;2.1404;2.7677;-0.0416;0.0694;0.1266
0001010890;5.1523;2.0470;2.7749;-0.0534;0.0994;0.1512
0001010902;5.0949;2.0806;2.8898;-0.0380;0.1120;0.1655
0001010911;5.2553;2.2194;2.8898;-0.0312;0.1231;0.1823
0001010920;5.3343;2.1739;2.8563;-0.0203;0.1346;0.2024
0001010933;5.3534;2.3966;2.7318;-0.0021;0.1327;0.2154
0001010940;5.4923;2.5139;2.6025;0.0075;0.1294;0.2142
0001010951;5.5091;2.8706;2.4253;0.0165;0.1224;0.2008
0001010959;5.3367;3.0287;2.5235;0.0179;0.1069;0.1732
