time;acc_x;acc_y;acc_z;gyro_x;gyro_y;gyro_z
0000282880;7.2209;4.0725;-0.6704;0.0350;-0.2813;-0.0561
0000282888;7.6830;4.1587;-0.7638;0.0115;-0.3148;-0.0176
0000282895;8.2049;3.9025;-0.8954;-0.0024;-0.3214;0.0096
0000282903;8.5449;3.7350;-0.8212;-0.0076;-0.3111;0.0153
0000282912;8.5569;3.4453;-0.6608;-0.0152;-0.2840;0.0124
0000282920;8.3127;3.1077;-0.4932;-0.0131;-0.2755;-0.0104
0000282932;8.3749;3.1412;-0.4046;-0.0085;-0.2398;-0.0618
0000282940;7.8386;3.0981;-0.2873;-0.0136;-0.2236;-0.0819
0000282948;7.8817;3.2417;-0.3256;-0.0132;-0.2220;-0.1019
0000282959;7.4148;3.3279;-0.3543;-0.0149;-0.2178;-0.1284
0000282967;7.1132;3.3088;-0.4166;-0.0187;-0.2166;-0.1404
0000282993;7.7189;3.1196;-0.4884;-0.0268;-0.2324;-0.1358
0000283001;7.8243;3.1244;-0.5531;-0.0293;-0.2326;-0.1375
0000283068;7.1251;3.4141;-1.2282;0.0541;0.0733;-0.0891
0000283076;7.0988;3.7469;-1.3623;0.0369;0.0926;-0.0839
0000283088;7.1156;4.2090;-1.3767;0.0209;0.0843;-0.0542
0000283096;7.1611;4.2162;-1.4724;-0.0120;0.0650;-0.0293
0000283104;7.0390;4.1204;-1.5227;-0.0578;0.0542;-0.0278
0000283115;6.7947;3.9025;-1.2905;-0.1062;0.0458;-0.0238
0000283123;6.7181;3.6512;-0.9744;-0.1087;0.0422;-0.0390
0000283135;7.3239;3.5410;-0.8835;-0.1045;0.0273;-0.0377
0000283143;7.4603;3.2346;-0.8547;-0.1115;0.0341;-0.0374
0000283154;7.4891;2.9616;-0.6943;-0.1087;0.0362;-0.0309
0000283162;7.8626;2.9760;-0.6656;-0.1065;0.0498;-0.0285
0000283174;7.7213;2.7533;-0.6153;-0.0771;0.0770;-0.0293
0000283182;7.8171;2.7725;-0.6680;-0.0670;0.0967;-0.0434
0000283190;7.6375;2.8706;-0.6991;-0.0606;0.1280;-0.0517
0000283201;7.7548;3.2058;-0.7805;-0.0445;0.1637;-0.0609
0000283209;7.7117;3.2441;-0.6177;-0.0337;0.1974;-0.0729
0000283221;7.7835;3.4237;-0.7973;-0.0348;0.2389;-0.0722
0000283229;7.6303;3.4931;-0.7207;-0.0254;0.2609;-0.0678
0000283240;7.4986;3.6583;-0.7446;-0.0029;0.2844;-0.0545
0000283248;7.2472;3.7685;-0.8643;-0.0021;0.3066;-0.0320
0000283260;7.1994;4.0103;-0.8452;-0.0039;0.3280;0.0031
0000283268;7.1371;3.8331;-0.8452;-0.0201;0.3395;0.0368
0000283276;7.2784;3.7828;-0.8978;-0.0317;0.3411;0.0502
0000283343;7.4172;3.2394;-0.7661;-0.0278;0.3020;0.0574
0000283351;7.4268;3.2154;-0.7925;-0.0220;0.3011;0.0561
0000283363;7.4412;3.2801;-0.8954;-0.0052;0.2994;0.0433
0000283371;7.5369;3.2777;-0.8116;-0.0099;0.2975;0.0444
0000283382;7.6902;3.3208;-0.8571;-0.0152;0.3108;0.0393
0000283390;7.5178;3.3375;-0.9649;-0.0197;0.3255;0.0442
0000283402;7.7165;3.1987;-0.8571;-0.0320;0.3516;0.0469
0000283410;7.7117;3.1101;-0.9074;-0.0278;0.3647;0.0405
0000283418;7.7835;3.2250;-0.8643;-0.0285;0.3901;0.0360
0000283429;7.7812;3.0861;-0.9553;-0.0167;0.4214;0.0242
0000283437;8.0349;3.1747;-1.0774;-0.0152;0.4467;0.0212
0000283449;8.0397;3.2753;-0.9170;-0.0257;0.5013;0.0290
0000283457;8.1954;3.3184;-0.9242;-0.0258;0.5351;0.0301
0000283468;7.8219;3.1316;-0.8356;-0.0361;0.5817;0.0373
0000283476;8.0014;3.0646;-0.7973;-0.0332;0.6143;0.0406
0000283484;8.1642;2.9042;-0.7326;-0.0286;0.6479;0.0626
0000283496;8.2983;2.7461;-0.6728;-0.0035;0.6936;0.0738
0000283504;8.2049;2.4972;-0.7446;0.0208;0.7173;0.0707
0000283515;8.4467;2.6528;-0.7374;0.0522;0.7465;0.0529
0000283523;8.4036;2.7031;-0.6464;0.0805;0.7678;0.0332
0000283535;8.1523;2.7318;-0.7398;0.1144;0.7854;0.0111
0000283543;7.8458;2.6360;-0.6967;0.1311;0.7874;0.0177
0000283551;7.6447;2.6647;-0.5722;0.1300;0.7767;0.0215
0000283618;6.3997;4.2090;-0.4405;0.1567;0.3496;0.0116
0000283626;6.4236;4.3622;-0.7278;0.1536;0.3147;0.0296
0000283638;6.9312;4.3287;-0.9098;0.1492;0.2805;0.0621
0000283646;7.3430;4.2018;-1.0750;0.1399;0.2727;0.0802
0000283657;8.0756;3.9935;-1.1277;0.1283;0.2762;0.0937
0000283665;8.6119;3.9672;-1.2546;0.1311;0.2894;0.0978
0000283673;8.9160;3.8283;-1.1660;0.1243;0.3167;0.1037
0000283685;9.3063;3.6248;-1.3096;0.1130;0.3648;0.1183
0000283693;9.5002;3.5961;-1.3048;0.1140;0.3950;0.1298
0000283704;9.3948;3.3208;-1.3072;0.1086;0.4390;0.1339
0000283712;9.0453;3.1603;-1.3384;0.0993;0.4760;0.1314
0000283724;8.8562;3.1244;-1.2330;0.1031;0.5309;0.1178
0000283732;8.8131;3.0694;-1.3647;0.1071;0.5660;0.1118
0000283743;8.7724;3.2705;-1.3767;0.0878;0.6082;0.0999
0000283751;8.6742;3.4285;-1.4269;0.0648;0.6340;0.0973
0000283759;8.4755;3.4046;-1.2905;0.0364;0.6587;0.0887
0000283771;8.2121;3.3112;-1.2977;0.0033;0.6773;0.0721
0000283779;8.1259;3.3255;-1.0942;-0.0103;0.6775;0.0617
0000283790;7.8123;3.1077;-1.0319;-0.0176;0.6772;0.0566
0000283798;7.8506;3.1388;-1.0774;-0.0121;0.6584;0.0578
0000283810;8.0182;3.1508;-1.1708;-0.0071;0.6439;0.0544
0000283818;7.9655;3.0382;-1.2306;-0.0116;0.6436;0.0561
0000283826;8.1810;2.9951;-1.2474;-0.0007;0.6297;0.0470
0000283890;7.6998;2.8850;-1.0199;0.0393;0.4441;0.0520
0000283898;7.7596;3.1771;-1.1277;0.0453;0.4086;0.0508
0000283910;7.8530;3.1292;-1.2833;0.0444;0.3608;0.0586
0000283918;8.0373;3.6583;-1.3120;0.0434;0.3200;0.0564
0000283929;7.8027;3.4165;-1.4605;0.0153;0.2803;0.0657
0000283937;7.9320;3.8164;-1.4653;-0.0071;0.2575;0.0594
0000283945;7.5968;3.6033;-1.5371;-0.0394;0.2329;0.0462
0000283957;7.6447;3.4979;-1.4676;-0.0763;0.1948;0.0196
0000283965;7.8195;3.4884;-1.4820;-0.0959;0.1660;0.0016
0000283976;7.8937;3.1963;-1.3838;-0.1083;0.1306;-0.0450
0000283984;8.0876;3.2968;-1.3719;-0.1134;0.1195;-0.0630
0000283996;8.1163;3.0742;-1.3336;-0.1139;0.0977;-0.0931
0000284004;8.0397;2.9999;-1.3862;-0.1124;0.0926;-0.1099
0000284015;7.9559;2.9233;-1.5060;-0.1111;0.0777;-0.1291
0000284023;7.9344;2.9161;-1.3767;-0.1156;0.0713;-0.1335
0000284031;8.0876;2.9449;-1.4437;-0.1266;0.0690;-0.1454
0000284043;8.4156;2.9233;-1.3168;-0.1346;0.0641;-0.1583
0000284051;8.4803;2.7318;-1.5155;-0.1263;0.0666;-0.1737
0000284062;8.7652;2.7892;-1.4006;-0.1155;0.0782;-0.1844
0000284070;8.8562;2.6456;-1.3455;-0.1108;0.1011;-0.1859
0000284082;9.0285;2.5762;-1.4437;-0.0905;0.1215;-0.1897
0000284090;8.9663;2.4900;-1.3767;-0.0774;0.1388;-0.1957
0000284157;7.3670;3.7661;-1.6759;-0.0697;0.1502;-0.2260
0000284165;7.2832;4.0869;-1.4916;-0.1110;0.1107;-0.2467
0000284173;7.1228;4.3144;-1.3527;-0.1522;0.0632;-0.2745
0000284185;7.1922;5.0111;-0.8978;-0.2305;0.0100;-0.3385
0000284193;6.9025;5.6982;-0.1963;-0.3224;-0.0185;-0.3710
0000284204;6.5434;6.7588;-0.4405;-0.5049;-0.0654;-0.3785
0000284212;5.7724;7.0701;-0.5650;-0.6281;-0.1063;-0.3489
0000284224;5.3103;6.9719;0.0335;-0.6566;-0.2322;-0.2402
0000284232;5.9927;6.1316;0.2370;-0.5724;-0.3675;-0.1888
0000284243;7.1251;4.6208;0.2897;-0.4277;-0.5245;-0.2581
0000284251;7.3885;3.5745;0.4142;-0.3404;-0.6078;-0.3449
0000284259;8.1570;2.7940;0.3950;-0.2646;-0.6797;-0.4307
0000284271;9.5768;2.1715;0.5076;-0.1338;-0.7144;-0.5335
0000284279;10.2304;1.9034;0.4645;-0.0550;-0.6690;-0.5890
0000284291;10.3022;2.3750;0.7111;0.0554;-0.5518;-0.6443
0000284299;9.9527;2.7438;0.7829;0.1015;-0.4634;-0.6507
0000284310;9.1698;3.3208;0.4597;0.1049;-0.3232;-0.6101
0000284318;8.0685;3.2968;0.3089;0.0942;-0.2485;-0.5709
0000284330;6.6966;2.9544;0.4166;0.0986;-0.1681;-0.5069
0000284338;5.9280;3.0382;0.6321;0.1363;-0.1604;-0.4566
0000284346;4.8914;2.9137;0.7901;0.1772;-0.2005;-0.4030
0000284358;4.2497;3.0837;0.6871;0.1703;-0.3239;-0.2847
0000284366;4.1659;2.9209;0.4286;0.1094;-0.4171;-0.2169
0000284433;7.1299;3.7709;0.3208;-0.0085;-0.9734;-0.2006
0000284441;6.8283;4.1611;0.0910;0.0072;-0.9758;-0.2228
0000284452;6.1842;4.4173;-0.2346;-0.0124;-0.9782;-0.2443
0000284460;6.0549;4.4604;-0.2059;-0.0533;-0.9828;-0.2515
0000284472;5.8562;3.8235;-0.0814;-0.0897;-1.0184;-0.2407
0000284480;5.8371;3.2801;0.0263;-0.0959;-1.0380;-0.2049
0000284488;5.8826;2.7438;0.1652;-0.0738;-1.0658;-0.1612
0000284499;6.0956;2.3128;0.4262;-0.0028;-1.1002;-0.1030
0000284507;6.2201;2.2649;0.2442;0.0480;-1.1162;-0.0560
0000284519;6.3590;2.5211;-0.1508;0.0979;-1.1485;-0.0032
0000284527;6.5721;2.6624;-0.1844;0.1174;-1.1715;0.0129
0000284538;6.5817;3.0670;-0.4046;0.1139;-1.2089;0.0003
0000284546;6.5098;3.4979;-0.3519;0.0707;-1.2183;-0.0161
0000284558;6.7133;3.7613;-0.4429;-0.0131;-1.2493;-0.0629
0000284566;6.7445;3.8762;-0.2203;-0.0675;-1.2641;-0.0921
0000284574;6.6702;3.6105;-0.2873;-0.1025;-1.2750;-0.1132
0000284585;6.5003;3.2082;-0.1197;-0.1290;-1.2913;-0.1271
0000284593;6.3973;3.1029;-0.1221;-0.1227;-1.2973;-0.1242
0000284605;6.1890;2.9616;-0.1652;-0.0861;-1.3225;-0.0957
0000284613;6.1770;2.9736;-0.1939;-0.0561;-1.3158;-0.0592
0000284625;6.1148;3.1963;-0.2993;-0.0436;-1.3119;-0.0125
0000284633;6.3662;3.6224;-0.4262;-0.0636;-1.2979;0.0121
0000284701;6.2752;2.7461;-0.4453;-0.0857;-1.4220;0.0047
0000284709;6.0094;2.6695;-0.8021;-0.0577;-1.4578;0.0025
0000284717;6.0765;3.0263;-0.9529;-0.0453;-1.4979;0.0017
0000284728;6.1866;3.6033;-1.1779;-0.0532;-1.5344;-0.0004
0000284736;6.1124;3.6679;-1.3431;-0.0681;-1.5684;0.0008
0000284748;6.2968;3.6440;-1.3192;-0.1082;-1.6024;0.0141
0000284756;6.6894;3.6344;-1.4246;-0.1326;-1.6217;0.0245
0000284767;6.5290;2.9401;-1.2570;-0.1446;-1.6361;0.0390
0000284775;6.5817;2.8467;-1.0534;-0.1275;-1.6367;0.0560
0000284787;6.6774;2.6049;-1.0415;-0.1031;-1.6349;0.0741
0000284795;6.6942;2.6025;-1.1061;-0.0883;-1.6357;0.0869
0000284806;6.8402;2.3846;-1.1444;-0.0663;-1.6244;0.1079
0000284814;7.0390;2.5187;-1.2594;-0.0430;-1.6265;0.1168
0000284822;7.2688;2.6528;-1.2785;-0.0270;-1.6241;0.1344
0000284834;7.2185;2.7653;-1.2019;0.0197;-1.5928;0.1330
0000284842;7.3239;3.0454;-1.0702;0.0488;-1.5617;0.1262
0000284853;7.4053;3.3279;-1.2186;0.0810;-1.5011;0.1156
0000284861;7.7668;3.3591;-1.3623;0.0790;-1.4572;0.1051
0000284873;7.8721;3.0694;-1.3120;0.0576;-1.3610;0.0713
0000284881;7.7716;2.8778;-1.2689;0.0545;-1.2938;0.0564
0000284889;7.3622;2.4565;-1.2953;0.0671;-1.2168;0.0649
0000284901;6.9671;2.3080;-1.4748;0.1172;-1.1600;0.0779
0000284909;6.3997;2.2769;-1.7406;0.1447;-1.1317;0.1066
0000284977;11.0421;6.1339;2.0375;-0.3351;-1.4987;0.2794
0000284985;12.1003;6.7133;1.9441;-0.3104;-1.4314;0.1163
0000284996;12.3397;7.2784;1.6472;-0.2228;-1.2858;-0.1340
0000285004;10.6398;6.9049;0.4022;-0.2733;-1.1739;-0.2225
0000285016;7.1850;5.9903;0.3208;-0.4089;-1.0612;-0.1522
0000285024;5.1499;5.3798;0.7350;-0.3961;-1.0420;-0.0705
0000285032;3.5506;4.8483;0.6943;-0.3365;-1.0846;0.0108
0000285043;3.1149;4.2425;0.3998;-0.2947;-1.2107;0.1499
0000285051;4.0486;3.8571;0.2562;-0.2930;-1.3367;0.2194
0000285063;6.0573;3.1556;0.1700;-0.3439;-1.4901;0.2382
0000285071;7.4651;2.7557;0.0048;-0.3721;-1.5655;0.2237
0000285082;9.0716;2.0782;0.3903;-0.3820;-1.6325;0.1781
0000285090;10.3406;1.8172;0.4022;-0.3544;-1.6457;0.1290
0000285102;11.9279;1.7621;0.6823;-0.2971;-1.6172;0.0043
0000285110;12.2248;1.8340;0.4788;-0.2579;-1.5416;-0.0678
0000285118;12.4714;2.1524;0.1077;-0.2145;-1.4674;-0.1304
0000285129;11.7196;2.2697;-0.3041;-0.1644;-1.3274;-0.1436
0000285137;11.0301;2.6049;-0.4788;-0.1319;-1.2089;-0.1043
0000285149;9.9623;3.0646;-0.7063;-0.1231;-1.0453;-0.0019
0000285157;9.3829;3.2513;-0.6081;-0.1183;-0.9308;0.0782
0000285169;8.7843;3.2609;-0.6823;-0.1128;-0.8115;0.1795
0000285177;8.6287;3.3375;-0.8499;-0.1238;-0.7481;0.2240
0000285245;8.6526;2.1069;0.3352;-0.1022;-0.9032;0.1180
0000285253;8.9639;2.5833;0.1532;-0.0489;-0.9325;0.0683
0000285261;8.7101;2.7940;-0.0168;-0.0256;-0.9562;0.0067
0000285272;8.8609;3.4429;-0.5052;-0.0589;-0.9701;-0.0874
0000285280;8.6526;3.5291;-0.7590;-0.1132;-0.9804;-0.1507
0000285292;8.5210;3.3208;-0.6081;-0.2040;-0.9626;-0.2150
0000285300;8.4898;3.0885;-0.5555;-0.2385;-0.9531;-0.2360
0000285311;8.4324;2.5809;-0.2203;-0.2462;-0.9208;-0.2346
0000285319;9.0190;2.7892;-0.0287;-0.2188;-0.8994;-0.2126
0000285331;9.3422;2.7246;0.1437;-0.1623;-0.8599;-0.1620
0000285339;9.4930;2.9185;-0.0144;-0.1378;-0.8278;-0.1259
0000285350;9.8234;3.3758;-0.2418;-0.1175;-0.7823;-0.0873
0000285358;9.4308;3.0933;-0.2753;-0.1202;-0.7485;-0.0618
0000285366;9.5600;3.3591;-0.1796;-0.1260;-0.7318;-0.0514
0000285378;9.1985;3.0502;-0.1891;-0.1283;-0.7079;-0.0456
0000285386;9.1147;3.0358;-0.2466;-0.1372;-0.6963;-0.0329
0000285397;9.1459;2.9497;-0.3280;-0.1291;-0.7015;-0.0268
0000285405;9.1554;2.8922;-0.3831;-0.1204;-0.7193;-0.0262
0000285417;9.1339;2.7533;-0.4741;-0.1210;-0.7268;-0.0216
0000285425;9.2273;2.5738;-0.4645;-0.1151;-0.7353;-0.0218
0000285437;9.3134;2.2625;-0.5219;-0.1103;-0.7309;-0.0338
0000285445;9.4020;2.2242;-0.6416;-0.1027;-0.7201;-0.0388
0000285513;8.7676;2.5067;-0.9361;0.0745;-0.7272;-0.2888
0000285521;8.7819;2.5666;-0.7853;0.0834;-0.7184;-0.3568
0000285529;8.7077;2.4900;-0.8595;0.1050;-0.7128;-0.4395
0000285540;8.9711;2.4541;-1.1947;0.1224;-0.6811;-0.5585
0000285548;9.0644;2.4014;-1.1899;0.1319;-0.6394;-0.6526
0000285560;9.4403;2.2960;-0.4573;0.1522;-0.5419;-0.7726
0000285568;9.7540;2.6240;0.8619;0.1688;-0.4507;-0.8166
0000285579;9.9383;3.3926;2.5283;0.1514;-0.3273;-0.7721
0000285587;9.5936;4.1324;3.5051;0.1140;-0.2344;-0.6566
0000285599;7.4531;4.9704;2.5067;0.0520;-0.0895;-0.3778
0000285607;5.1571;5.9735;2.3248;0.0465;-0.0473;-0.1058
0000285615;3.6248;7.0222;1.9561;0.1573;-0.1110;0.2270
0000285626;6.0334;6.7588;0.0599;0.2864;-0.2682;0.5427
0000285634;8.5234;5.8802;-0.0527;0.2220;-0.3397;0.4410
0000285646;9.9479;4.4987;0.8332;0.1824;-0.4088;0.1584
0000285654;10.3765;3.7038;0.6249;0.1997;-0.4153;0.0151
0000285666;10.7428;3.4285;0.8475;0.1891;-0.4046;-0.1896
0000285674;10.2951;3.4069;0.8404;0.1575;-0.3773;-0.2994
0000285682;9.2320;3.6631;0.6632;0.0910;-0.3425;-0.3884
0000285693;7.8243;4.1492;0.4980;0.0117;-0.3256;-0.4390
0000285701;6.5529;4.4221;0.3567;-0.0238;-0.3300;-0.4246
0000285713;5.0709;4.3934;0.3017;-0.0496;-0.3393;-0.3242
0000285721;4.6088;4.2162;0.3400;-0.0444;-0.3637;-0.2364
0000285788;6.9983;3.0574;0.0287;-0.0225;-0.6428;-0.2638
0000285796;7.1467;3.4237;-0.3208;-0.0314;-0.6187;-0.2876
0000285808;7.1467;3.4979;-0.5962;-0.0977;-0.5698;-0.3123
0000285816;7.3215;3.0789;-0.4381;-0.1167;-0.5506;-0.3288
0000285824;7.5058;2.7605;-0.2705;-0.0991;-0.5195;-0.3409
0000285835;7.3694;2.1548;-0.2251;-0.0269;-0.4876;-0.3499
0000285843;7.4579;2.2003;-0.2274;0.0414;-0.4554;-0.3384
0000285855;7.2042;2.2889;-0.2753;0.1601;-0.4226;-0.3251
0000285863;7.0797;2.5067;-0.4597;0.2094;-0.3925;-0.3015
0000285874;6.7157;2.9185;-0.6057;0.2186;-0.3569;-0.2545
0000285882;6.6655;3.0119;-0.6919;0.2042;-0.3357;-0.2145
0000285894;6.7564;3.0358;-0.6488;0.1663;-0.2923;-0.1439
0000285902;6.8857;3.0861;-0.5028;0.1466;-0.2621;-0.0983
0000285910;6.7684;2.8156;-0.4573;0.1224;-0.2273;-0.0425
0000285921;6.9504;2.6863;-0.3089;0.0951;-0.1969;0.0051
0000285929;6.9073;2.6264;-0.1556;0.0823;-0.1668;0.0402
0000285941;6.9216;2.7007;-0.1245;0.0758;-0.1459;0.0589
0000285949;6.7493;2.7629;-0.0694;0.0769;-0.1472;0.0582
0000285960;6.4356;3.0765;-0.1556;0.0606;-0.1648;0.0569
0000285968;6.1627;3.1436;-0.2466;0.0565;-0.1857;0.0464
0000285980;5.8299;3.2920;-0.2203;0.0525;-0.2317;0.0378
0000285988;5.7485;3.3255;-0.1293;0.0605;-0.2665;0.0201
0000285996;5.6743;3.2106;-0.2921;0.0817;-0.3167;-0.0032
0000286063;7.1635;2.7916;-0.9002;0.2349;-0.4553;0.0707
0000286071;7.2520;3.1556;-0.8835;0.2366;-0.4390;0.0862
0000286083;7.2233;3.3375;-1.1947;0.2028;-0.3865;0.1166
0000286091;7.0126;3.3591;-1.2665;0.1628;-0.3419;0.1324
0000286102;7.0030;3.4596;-1.1013;0.0922;-0.3028;0.1366
0000286110;6.8139;3.5099;-0.6728;0.0304;-0.2863;0.1252
0000286118;6.5960;3.4309;-0.2466;-0.0320;-0.2828;0.1065
0000286130;6.4524;3.5027;-0.0215;-0.1083;-0.2907;0.0606
0000286138;6.1435;3.2968;-0.0742;-0.1496;-0.3062;0.0354
0000286149;5.5737;2.7007;-0.1556;-0.1502;-0.3609;0.0101
0000286157;5.5043;2.5450;-0.1700;-0.1154;-0.4092;0.0107
0000286169;5.4133;2.2625;-0.1915;-0.0476;-0.4676;0.0370
0000286177;5.2241;2.0470;-0.3615;-0.0175;-0.4975;0.0666
0000286188;5.0996;2.0614;-0.6129;0.0144;-0.5369;0.1136
0000286196;5.0996;2.1213;-0.6440;0.0330;-0.5776;0.1375
0000286204;5.3702;2.4349;-0.6728;0.0216;-0.6197;0.1656
0000286216;5.9879;2.6911;-0.6632;-0.0601;-0.6584;0.1847
0000286224;6.3758;2.8371;-0.6895;-0.1334;-0.6859;0.1739
0000286235;6.3494;2.7485;-0.6800;-0.2342;-0.6985;0.1515
0000286243;6.2920;2.7366;-0.8452;-0.2811;-0.7220;0.1168
0000286255;6.1435;2.1069;-0.8284;-0.2911;-0.7440;0.0586
0000286263;6.2249;1.8507;-1.0151;-0.2506;-0.7805;-0.0041
0000286330;6.9360;3.8906;-1.0894;-0.3653;-0.6760;0.1226
0000286338;6.2824;3.5099;-1.0247;-0.5457;-0.6351;0.1007
0000286346;5.8131;2.7078;-1.2163;-0.6686;-0.6110;0.0598
0000286358;5.7604;1.3168;-1.0630;-0.7178;-0.6670;-0.0401
0000286366;5.7628;0.2155;-0.8930;-0.6727;-0.7208;-0.1144
0000286377;6.1723;-0.6033;-0.6704;-0.5299;-0.8029;-0.1831
0000286385;6.5529;-0.9673;-0.4956;-0.4229;-0.8292;-0.1901
0000286397;7.0701;-1.1181;-0.5124;-0.2466;-0.8139;-0.1211
0000286405;7.5896;-0.7135;-0.6943;-0.1748;-0.7769;-0.0460
0000286416;8.0421;-0.3879;-0.6105;-0.1390;-0.6892;0.0862
0000286424;8.4611;0.0599;-0.6393;-0.1577;-0.6057;0.1628
0000286436;8.7628;0.2298;-0.9385;-0.2212;-0.4558;0.2360
0000286444;8.6024;0.1317;-1.2953;-0.2541;-0.3620;0.2585
0000286452;8.3845;0.0287;-1.8411;-0.2613;-0.2634;0.2875
0000286463;7.3670;0.0431;-2.6408;-0.2581;-0.1507;0.3545
0000286471;7.0126;0.5363;-1.8340;-0.2352;-0.0757;0.4147
0000286483;6.5649;1.3144;-1.3551;-0.1767;-0.0477;0.4291
0000286491;6.1004;2.0877;-0.9218;-0.1668;-0.0717;0.4334
0000286502;6.5146;4.8363;2.8706;-0.2109;-0.1179;0.4507
0000286510;7.9799;8.9615;12.3517;-0.2190;-0.0818;0.3581
0000286522;17.8368;14.6932;4.5035;0.1075;0.0719;-0.3568
0000286530;22.6779;15.5025;-7.1563;0.1663;0.1246;-0.7918
0000286538;17.9350;11.6143;-6.3470;-0.1649;0.5059;-0.7298
0000286605;13.2782;20.1735;-5.4875;0.2206;-0.1549;0.0967
0000286613;12.8856;16.1680;-3.2489;-0.5163;-0.1529;0.0565
0000286625;8.7628;7.9464;-0.1149;-0.7408;-0.0881;0.0096
0000286633;7.3191;4.6735;0.9649;-0.5188;-0.0552;0.0413
0000286644;6.4931;2.2960;1.9010;-0.0354;-0.0778;0.0991
0000286652;6.0621;2.1715;2.2505;0.3178;-0.1191;0.1382
0000286664;5.8730;3.4955;1.1444;0.5480;-0.1625;0.2222
0000286672;6.3231;4.5777;-0.0024;0.4457;-0.1836;0.2690
0000286680;7.1611;5.0278;-0.8404;0.2134;-0.1851;0.2815
0000286691;8.6119;4.9273;-0.7278;-0.1015;-0.1298;0.2253
0000286699;9.2751;4.5610;-0.2514;-0.2061;-0.0671;0.1524
0000286711;9.9096;3.7876;-0.1484;-0.2152;0.0116;0.0538
0000286719;9.9144;3.2130;-0.0144;-0.1799;0.0798;0.0252
0000286730;9.5409;2.5570;-0.0120;-0.1126;0.1729;0.0244
0000286738;8.9615;1.8364;0.2227;-0.0629;0.2376;0.0722
0000286750;8.2480;1.0367;0.4597;0.0473;0.3096;0.1392
0000286758;8.1475;0.8667;0.6201;0.1424;0.3473;0.1661
0000286766;7.6207;0.7733;0.5219;0.2450;0.3765;0.1743
0000286777;7.0533;1.1444;0.0766;0.3138;0.4193;0.1571
0000286785;6.9264;1.7526;-0.3735;0.2976;0.4477;0.1180
0000286797;6.9599;2.1715;-0.8068;0.1700;0.4607;0.0481
0000286805;7.1994;2.2410;-0.8356;0.0558;0.4555;-0.0047
0000286872;6.8546;1.4246;-0.2682;0.3007;0.2013;-0.1151
0000286880;6.9121;1.5778;-0.5842;0.3505;0.1901;-0.1278
0000286888;7.4675;2.1476;-0.8140;0.3709;0.1804;-0.1387
0000286900;8.3366;2.3343;-0.9984;0.3345;0.2120;-0.1264
0000286908;8.8298;2.0590;-1.0798;0.3152;0.2417;-0.1162
0000286919;9.0692;1.7142;-1.0918;0.3212;0.3071;-0.0943
0000286927;9.3087;1.6640;-1.0870;0.3421;0.3567;-0.0874
0000286939;8.9663;1.2186;-1.1468;0.4062;0.4273;-0.0811
0000286947;8.8346;1.1420;-0.9840;0.4513;0.4688;-0.0861
0000286955;8.3653;1.0199;-1.1516;0.4884;0.5019;-0.0969
0000286966;7.8937;1.1899;-1.1325;0.5379;0.5293;-0.1202
0000286974;7.7979;1.4198;-1.2019;0.5620;0.5300;-0.1431
0000286986;7.7381;1.9656;-1.2354;0.5630;0.5133;-0.1552
0000286994;7.5106;2.0638;-0.9122;0.5335;0.4931;-0.1486
0000287006;7.5465;2.3798;-0.9888;0.4660;0.4247;-0.1319
0000287014;7.5417;2.5163;-1.0630;0.4163;0.3685;-0.1192
0000287026;7.1156;2.2075;-0.7829;0.3664;0.2345;-0.1186
0000287034;7.0557;2.0925;-0.5555;0.3617;0.1522;-0.1422
0000287042;7.0940;2.1117;-0.2969;0.3893;0.0582;-0.1884
0000287054;6.5242;1.7071;-0.4573;0.4354;-0.0605;-0.2434
0000287062;6.3446;1.5490;-0.6967;0.4684;-0.1314;-0.2915
0000287129;6.8163;3.5027;-2.2529;0.3235;-0.4887;-0.2186
0000287137;7.3095;3.8140;-2.3439;0.2372;-0.5280;-0.1795
0000287149;7.6878;3.7900;-2.1284;0.1174;-0.5625;-0.1438
0000287157;8.2217;3.8834;-2.2410;0.0480;-0.5722;-0.1435
0000287168;8.8538;4.0247;-2.2242;-0.0665;-0.5480;-0.1454
0000287176;9.1339;3.8499;-2.0446;-0.1763;-0.5131;-0.1556
0000287184;9.1698;3.5674;-1.8531;-0.3198;-0.4599;-0.1655
0000287196;9.1818;2.7605;-1.4844;-0.5324;-0.3933;-0.1719
0000287204;8.6479;1.7861;-1.3048;-0.6109;-0.3793;-0.1743
0000287215;8.6479;1.1372;-1.6759;-0.6652;-0.3822;-0.1495
0000287223;8.4731;0.9792;-1.4198;-0.6771;-0.4098;-0.1203
0000287235;7.7069;1.4892;-0.5722;-0.6438;-0.4599;-0.0841
0000287243;7.2401;2.5522;-0.0766;-0.6105;-0.4711;-0.0782
0000287254;6.4284;4.4460;0.0287;-0.5814;-0.4471;-0.1319
0000287262;5.7461;5.5115;-0.1724;-0.6141;-0.3976;-0.1435
0000287270;5.3558;6.2010;-0.6225;-0.6622;-0.3545;-0.1295
0000287282;6.2225;5.6503;-1.4461;-0.7639;-0.2771;-0.0749
0000287290;6.6224;4.9823;-0.0742;-0.7384;-0.2268;-0.0282
0000287301;6.6248;5.0853;1.2570;-0.5744;-0.1943;0.0737
0000287309;5.4372;6.4356;0.5531;-0.4335;-0.2036;0.1989
0000287321;4.0414;9.1482;-1.1468;-0.1635;-0.2606;0.5025
0000287329;5.7365;9.3805;-2.3535;-0.0478;-0.3475;0.5420
0000287396;6.0142;8.3965;-1.4222;-0.0504;-0.0079;-0.3324
0000287404;5.3846;8.8226;-1.1923;-0.1395;0.0269;-0.2928
0000287416;5.2984;8.0182;-1.0199;-0.2293;0.0073;-0.2474
0000287424;5.9951;7.3837;-1.0606;-0.2653;-0.0001;-0.2365
0000287432;6.4332;6.4572;-1.0104;-0.2882;0.0019;-0.2455
0000287444;6.7924;5.3463;-1.1851;-0.3032;0.0421;-0.2690
0000287452;6.9983;4.7070;-1.0989;-0.3331;0.0690;-0.2906
0000287464;7.5369;4.0103;-1.0391;-0.3868;0.1164;-0.3006
0000287472;7.5489;3.7517;-0.8547;-0.4269;0.1591;-0.3003
0000287484;7.2880;3.2298;-0.5339;-0.4441;0.2133;-0.2702
0000287492;6.9384;3.1412;-0.4788;-0.4301;0.2454;-0.2405
0000287504;6.5793;2.8922;-0.3998;-0.3877;0.2839;-0.1976
0000287512;6.3279;2.6767;-0.3615;-0.3600;0.3071;-0.1704
0000287520;6.0214;2.4756;-0.3759;-0.3327;0.3194;-0.1564
0000287532;5.6934;2.3367;-0.4286;-0.2987;0.3159;-0.1412
0000287540;5.3822;1.9441;-0.4262;-0.2855;0.3147;-0.1290
0000287552;5.3343;1.6855;-0.3328;-0.2823;0.3060;-0.1013
0000287560;5.4612;1.6712;-0.0910;-0.2707;0.2911;-0.0905
0000287571;5.6120;1.2617;-0.0144;-0.2534;0.2721;-0.0626
0000287579;5.7700;1.3647;-0.0622;-0.2318;0.2458;-0.0373
0000287591;6.2489;1.2474;0.0742;-0.2010;0.2240;0.0095
0000287599;6.5386;1.1684;0.1939;-0.1879;0.2189;0.0392
0000287607;6.6559;1.2354;0.1891;-0.1748;0.2198;0.0486
0000287674;5.6503;1.8268;-0.4812;0.1640;0.2766;-0.0408
0000287682;5.3415;1.9082;-0.5004;0.2042;0.2770;-0.0013
0000287694;5.5258;2.2027;-0.5315;0.2296;0.2777;0.0829
0000287702;5.4540;2.1284;-0.7518;0.2425;0.2695;0.1211
0000287714;5.8107;2.0901;-0.5986;0.2883;0.2521;0.1553
0000287722;5.7844;1.8411;-0.4501;0.3066;0.2398;0.1725
0000287730;5.6695;1.6568;-0.3926;0.3504;0.2182;0.1631
0000287742;6.0406;1.7789;-0.2897;0.3840;0.1943;0.1447
0000287750;5.7964;1.5586;-0.2107;0.3928;0.1808;0.1278
0000287762;6.0885;1.7789;-0.2801;0.3866;0.1404;0.1196
0000287770;5.7940;1.6089;-0.4262;0.3866;0.1143;0.1192
0000287782;5.7964;1.9824;-0.7733;0.3801;0.0709;0.1292
0000287790;5.6360;1.9920;-0.6153;0.3762;0.0466;0.1500
0000287798;5.9041;2.4253;-0.7901;0.3665;0.0161;0.1707
0000287810;5.8586;2.8611;-0.8787;0.3361;-0.0268;0.2098
0000287818;5.8730;3.2825;-0.8691;0.2947;-0.0401;0.2553
0000287830;5.8131;3.7397;-1.0343;0.2181;-0.0658;0.2938
0000287838;5.6360;3.6583;-1.0606;0.1535;-0.0907;0.2998
0000287850;5.6647;3.4093;-1.0750;0.0663;-0.1224;0.2742
0000287858;5.7988;3.1963;-1.1013;0.0473;-0.1669;0.2337
0000287866;5.7748;2.7797;-0.8380;0.0536;-0.2026;0.2072
0000287878;5.8251;2.6217;-0.8739;0.1140;-0.2687;0.1657
0000287886;5.9041;2.6336;-0.7901;0.1648;-0.2991;0.1577
0000287954;3.9097;3.5195;-1.8603;0.1135;-0.6904;0.0586
0000287963;3.8307;3.5626;-1.9632;0.0542;-0.7893;0.0613
0000287976;4.0366;3.6152;-1.9752;-0.0642;-0.9314;0.1027
0000287985;4.3814;3.4381;-1.6472;-0.1315;-1.0166;0.1567
0000287997;4.7094;3.4261;-1.6783;-0.1993;-1.1349;0.2229
0000288006;4.8530;3.1939;-1.7095;-0.2465;-1.2291;0.2683
0000288015;5.2241;2.8946;-1.5754;-0.2750;-1.3185;0.3075
0000288028;5.4540;2.3894;-1.6448;-0.2771;-1.4141;0.3258
0000288037;5.6647;2.1883;-1.6688;-0.2691;-1.4693;0.3186
0000288050;5.6790;1.6640;-1.6999;-0.2462;-1.5174;0.3111
0000288059;5.8921;1.6305;-1.7310;-0.2314;-1.5422;0.2998
0000288072;6.4955;1.6161;-1.6496;-0.2603;-1.5167;0.2970
0000288081;6.8809;1.6424;-1.6352;-0.2968;-1.4913;0.3128
0000288093;6.9599;1.5323;-1.2402;-0.3794;-1.4053;0.3619
0000288102;7.1395;1.6041;-0.6321;-0.4776;-1.3203;0.3974
0000288111;7.0078;1.5850;-0.0599;-0.5833;-1.2221;0.4290
0000288124;6.6774;1.1732;0.7757;-0.7373;-1.0761;0.4210
0000288133;6.7062;0.8021;1.2977;-0.7837;-0.9956;0.3792
0000288146;7.1778;0.6321;2.3607;-0.7273;-0.9300;0.2819
0000288155;8.0373;0.7901;2.0949;-0.6378;-0.9344;0.1877
0000288168;9.1650;1.3216;1.4317;-0.4557;-0.9757;0.0620
0000288177;9.7540;2.4780;2.1380;-0.2242;-0.9896;0.0183
0000288245;3.7972;5.6934;-1.6448;0.1471;0.0967;0.0466
0000288254;4.7621;4.3335;-0.8332;0.2843;0.0510;0.1359
0000288263;6.8809;4.6256;-0.7877;0.3996;0.0320;0.1871
0000288276;11.1929;7.5298;-1.6544;0.4313;0.0477;0.2073
0000288285;12.8976;9.0740;-2.2362;0.2346;0.1407;0.2049
0000288298;12.3708;8.7724;-2.4732;-0.0706;0.2967;0.1196
0000288307;11.2719;7.4005;-2.2266;-0.1775;0.3973;0.0466
0000288320;10.1490;5.7652;-1.7262;-0.1699;0.5249;-0.0216
0000288329;9.2320;4.8842;-1.4700;-0.1090;0.5793;-0.0580
0000288338;8.6167;4.5490;-1.3192;-0.0574;0.6063;-0.0697
0000288351;7.2664;3.8978;-1.2474;-0.0340;0.6211;-0.0606
0000288360;6.5577;3.4548;-1.0654;-0.0481;0.6134;-0.0509
0000288373;6.0190;2.0877;-0.8547;-0.0586;0.5872;-0.0488
0000288382;6.1387;1.5443;-0.5219;-0.0220;0.5518;-0.0558
0000288394;6.6511;0.9553;-0.1628;0.0738;0.4936;-0.0663
0000288403;6.7349;0.6440;-0.0599;0.1739;0.4518;-0.0693
0000288416;7.1299;0.7254;-0.0982;0.3174;0.3960;-0.0456
0000288425;7.5441;1.3360;-0.1580;0.3838;0.3687;-0.0252
0000288434;7.4101;1.5706;-0.3184;0.3893;0.3569;-0.0085
0000288450;7.3191;2.2553;-0.7805;0.3351;0.3431;-0.0079
0000288459;7.1611;2.5762;-0.8835;0.2984;0.3484;-0.0390
0000288526;7.3358;1.6664;0.3328;-0.0604;0.4531;-0.1709
0000288535;7.2185;1.1923;0.4381;0.0390;0.4363;-0.1444
0000288547;7.0318;1.0894;0.2586;0.1883;0.4046;-0.1083
0000288556;6.9049;1.4389;0.0910;0.2775;0.3770;-0.0883
0000288565;6.6607;1.8483;-0.1867;0.3702;0.3206;-0.0814
0000288578;6.5577;3.0885;-0.4980;0.4379;0.2517;-0.0638
0000288587;6.8690;3.9097;-1.0654;0.4474;0.2121;-0.0633
0000288599;7.2592;4.5801;-1.6855;0.3861;0.1748;-0.0654
0000288608;7.7788;4.9608;-1.9201;0.2842;0.1889;-0.0686
0000288621;8.0062;4.7956;-2.0949;0.1298;0.2273;-0.0995
0000288630;8.0182;4.4269;-2.0183;0.0485;0.2601;-0.1184
0000288642;7.5058;3.2370;-1.7166;0.0011;0.3095;-0.1079
0000288651;7.2305;2.5977;-1.3001;0.0333;0.3287;-0.0911
0000288660;6.9025;1.9106;-1.2043;0.0850;0.3392;-0.0500
0000288673;6.8929;1.5083;-1.3168;0.1917;0.3128;-0.0027
0000288682;6.8929;1.5060;-1.5634;0.2707;0.2888;0.0289
0000288694;7.1060;1.8842;-1.6424;0.3353;0.2630;0.0418
0000288703;7.3741;2.3846;-1.8100;0.3693;0.2262;0.0195
0000288716;7.1347;2.8874;-2.1907;0.3155;0.1749;-0.0337
0000288725;7.0749;3.0646;-2.2003;0.2519;0.1343;-0.0826
0000288734;7.2185;2.9042;-2.2482;0.2088;0.0714;-0.1368
0000288746;7.3670;2.4301;-2.1548;0.1949;0.0059;-0.2084
0000288755;7.6064;2.1021;-2.0016;0.2120;-0.0269;-0.2521
0000288823;8.3175;2.3224;-2.4756;0.3277;0.1728;-0.3155
0000288832;7.8697;2.5331;-2.6193;0.3004;0.2122;-0.2735
0000288844;7.3167;2.7988;-2.6743;0.2154;0.2376;-0.2293
0000288853;6.9528;2.8419;-2.7054;0.1075;0.2401;-0.2044
0000288866;6.8785;2.6264;-2.6887;-0.0663;0.2509;-0.1609
0000288875;7.1060;2.3200;-2.5211;-0.1511;0.2550;-0.1438
0000288884;7.3239;1.7957;-2.4253;-0.1833;0.2485;-0.1427
0000288896;7.5346;1.3551;-2.1715;-0.1867;0.2353;-0.1432
0000288905;7.5633;0.9960;-2.0303;-0.1687;0.2232;-0.1414
0000288918;7.6662;1.0582;-1.8747;-0.1338;0.1867;-0.1615
0000288927;7.7620;1.3503;-1.9106;-0.1002;0.1619;-0.2014
0000288939;7.6854;1.6999;-2.0901;-0.0854;0.1529;-0.2617
0000288948;7.5992;1.8387;-2.2290;-0.1023;0.1603;-0.3051
0000288961;7.5058;1.7334;-2.2841;-0.1295;0.1853;-0.3273
0000288970;7.3167;1.6376;-2.3320;-0.1378;0.2061;-0.3247
0000288979;6.9839;1.3001;-2.1883;-0.1085;0.2192;-0.3152
0000288991;6.7564;1.2833;-1.7286;-0.0344;0.2024;-0.2747
0000289000;6.8642;1.4964;-1.7669;0.0304;0.1633;-0.2374
0000289013;7.2544;2.1165;-2.1021;0.0640;0.1458;-0.1844
0000289022;7.2712;2.7916;-2.1500;0.0565;0.1640;-0.1475
0000289034;6.8690;3.7062;-1.7717;-0.0017;0.1494;-0.0734
0000289043;6.4763;4.2617;-1.3168;-0.0823;0.1379;0.0068
0000289111;3.0789;10.4459;-0.3472;-0.3312;-0.4545;0.2270
0000289120;6.2560;8.9256;-1.5419;-0.2294;-0.5428;0.1399
0000289129;9.4667;6.8259;-1.2665;-0.1639;-0.5558;-0.0356
0000289141;12.0357;4.6855;-1.2234;-0.0794;-0.3829;-0.1611
0000289150;12.8593;4.2114;-1.6424;0.0085;-0.1845;-0.2312
0000289163;11.6454;4.6831;-2.7988;0.0825;0.1715;-0.2759
0000289172;9.4212;5.6120;-3.0191;0.0402;0.3900;-0.2657
0000289184;6.5936;7.5633;-2.6815;-0.0441;0.5594;-0.2336
0000289193;4.8195;8.9280;-2.7007;-0.1104;0.5899;-0.1719
0000289206;3.6392;9.8713;-2.6073;-0.2044;0.4948;-0.0803
0000289215;3.4740;9.0764;-2.5570;-0.3110;0.3681;-0.0782
0000289224;3.5027;7.5154;-2.0446;-0.4401;0.2439;-0.1250
0000289236;3.9840;4.9632;-1.3862;-0.5123;0.0951;-0.2356
0000289245;4.6328;3.4716;-1.0511;-0.4855;-0.0207;-0.3248
0000289258;5.8706;2.1931;-0.7518;-0.3695;-0.1575;-0.4046
0000289267;6.5864;1.6448;-0.7661;-0.2681;-0.2281;-0.4199
0000289279;7.3622;1.6352;-0.6273;-0.1130;-0.2629;-0.3583
0000289288;7.4316;2.2314;-0.7254;-0.0318;-0.2369;-0.3102
0000289301;7.1012;3.3950;-1.1779;-0.0854;-0.1330;-0.2769
0000289310;6.9432;3.7350;-1.2953;-0.2252;-0.0450;-0.2872
0000289322;6.9432;3.2154;-1.3527;-0.4311;0.0778;-0.2888
0000289331;6.9719;2.2194;-0.9122;-0.5111;0.1585;-0.2854
0000289340;7.1419;1.7286;-0.6512;-0.5091;0.2256;-0.2689
0000289408;6.9384;1.8148;-0.7470;-0.4606;0.6839;0.2042
0000289417;6.4189;1.7406;-0.6823;-0.5135;0.7262;0.2308
0000289429;5.9783;1.4892;-0.5507;-0.5396;0.7484;0.2582
0000289438;5.5737;1.2426;-0.2682;-0.4975;0.7416;0.2562
0000289451;5.2816;0.8954;0.0527;-0.3794;0.6880;0.2437
0000289460;5.3343;1.0008;0.1580;-0.2880;0.6351;0.2529
0000289469;5.3223;0.8452;0.0862;-0.1619;0.5552;0.2637
0000289481;5.4588;0.8523;-0.2682;0.0208;0.4445;0.2994
0000289490;5.7030;0.7542;-0.5602;0.1621;0.3736;0.3264
0000289503;5.8945;0.9864;-0.6512;0.3515;0.3150;0.3388
0000289512;5.9472;1.1756;-0.8978;0.4640;0.2960;0.3311
0000289524;6.0094;1.8364;-1.2833;0.5255;0.3068;0.3223
0000289533;5.8514;2.1739;-1.5467;0.4991;0.3308;0.3091
0000289542;5.6623;2.7102;-1.4365;0.4354;0.3496;0.2805
0000289555;5.1595;2.9401;-1.4174;0.2689;0.3758;0.2341
0000289564;4.8626;3.0358;-1.2186;0.1604;0.3665;0.2165
0000289576;4.4388;2.6552;-0.8715;0.0933;0.3238;0.1936
0000289585;4.7022;2.7701;-0.8236;0.0713;0.2771;0.1879
0000289598;4.4125;2.3750;-0.9098;0.0823;0.1741;0.1689
0000289607;4.7070;2.6983;-0.9385;0.0771;0.0939;0.1541
0000289616;4.9584;2.8730;-1.0942;0.0546;-0.0041;0.1359
0000289628;4.9871;3.0981;-0.9649;0.0031;-0.1242;0.1338
0000289637;4.7190;2.8706;-1.1708;-0.0646;-0.1980;0.1525
0000289706;6.7133;3.4093;-1.1253;-0.2614;-0.5684;0.3048
0000289715;6.6846;3.2513;-0.9122;-0.3315;-0.5685;0.2730
0000289727;6.5290;3.0406;-0.7422;-0.4213;-0.6106;0.2040
0000289736;6.3422;2.9090;-0.5938;-0.4611;-0.6430;0.1438
0000289749;5.5019;2.2075;-0.5315;-0.4891;-0.7108;0.0847
0000289758;5.3870;1.8076;-0.3783;-0.4732;-0.7666;0.0472
0000289767;5.0230;1.6520;-0.5291;-0.4639;-0.7909;0.0432
0000289779;5.4779;1.6544;-0.5602;-0.4418;-0.8471;0.0384
0000289788;5.9520;1.6065;-0.3831;-0.4414;-0.8458;0.0516
0000289801;6.9528;2.4373;0.0718;-0.4764;-0.8178;0.0497
0000289810;7.5657;2.9066;0.0144;-0.5319;-0.8011;0.0222
0000289822;8.0972;3.2465;0.0982;-0.5930;-0.7364;0.0072
0000289831;8.5760;3.4261;0.2155;-0.5990;-0.6961;0.0229
0000289844;8.4396;3.9959;1.4892;-0.5526;-0.7036;0.1077
0000289853;8.0373;5.2337;4.0342;-0.5377;-0.6940;0.1843
0000289862;8.3725;6.6774;5.3630;-0.4347;-0.6683;0.1460
0000289874;10.9654;8.7747;1.2905;-0.0715;-0.6622;-0.0273
0000289883;11.8034;9.4954;-1.4988;0.1256;-0.6358;-0.1002
0000289896;8.6455;8.9256;-1.2330;0.1736;-0.4910;0.0734
0000289905;6.7062;6.8881;-0.3687;0.2755;-0.4297;0.1624
0000289918;4.8794;5.4516;-0.3998;0.5781;-0.4195;0.0925
0000289927;4.5179;5.9568;-1.1803;0.6356;-0.4603;0.0474
0000289996;10.5441;4.8387;-0.3160;0.2722;-0.2078;-0.0723
0000290005;9.6055;4.4580;-0.2514;0.3631;-0.1396;-0.0634
0000290014;8.3438;4.2258;-0.5171;0.3982;-0.0833;-0.0520
0000290027;7.2449;3.9217;-0.8691;0.3063;-0.0401;-0.0123
0000290036;6.9695;3.6296;-0.7853;0.2138;-0.0377;0.0133
0000290048;7.0461;2.9856;-0.6057;0.1248;-0.0376;0.0406
0000290057;7.1060;2.6025;-0.5219;0.0937;-0.0392;0.0362
0000290070;7.2401;2.1859;-0.6201;0.0961;-0.0272;0.0261
0000290079;7.5896;2.2601;-0.5243;0.1172;-0.0144;0.0195
0000290091;7.7812;2.0255;-0.3879;0.1294;0.0330;0.0257
0000290100;8.0780;1.7142;-0.3519;0.1298;0.0915;0.0418
0000290109;8.6407;1.6903;-0.4022;0.1359;0.1412;0.0458
0000290122;8.8514;1.3216;-0.4334;0.1290;0.2078;0.0570
0000290131;8.8178;1.1396;-0.3807;0.1248;0.2458;0.0653
0000290143;8.4467;0.9529;-0.5483;0.1476;0.2727;0.0717
0000290152;7.8434;0.8284;-0.6177;0.1583;0.2713;0.0654
0000290165;6.8474;0.7087;-0.7661;0.1624;0.2486;0.0498
0000290174;6.4189;0.6464;-0.7829;0.1695;0.2114;0.0422
0000290183;6.3853;0.6536;-0.7135;0.2040;0.1616;0.0212
0000290195;6.8019;0.8930;-0.9433;0.2407;0.1147;-0.0211
0000290204;7.0222;0.6752;-1.2330;0.2733;0.0961;-0.0476
0000290273;8.6526;2.0039;-1.2761;0.1852;0.0710;-0.1843
0000290282;8.7125;2.2889;-1.3431;0.0545;0.0926;-0.1764
0000290294;8.9663;2.5881;-1.2689;-0.1316;0.1379;-0.1843
0000290303;8.7771;2.6193;-1.2115;-0.2454;0.1715;-0.2058
0000290312;8.2001;2.2673;-1.1372;-0.3299;0.1923;-0.2297
0000290325;7.3717;1.8723;-0.9960;-0.3752;0.1970;-0.2811
0000290334;6.8929;1.5897;-0.9337;-0.3868;0.2018;-0.3087
0000290346;6.9647;1.5012;-0.6584;-0.3583;0.2196;-0.3509
0000290355;7.2832;1.4102;-0.6608;-0.3391;0.2395;-0.3782
0000290368;7.7189;1.0439;-0.8691;-0.3210;0.3036;-0.3724
0000290377;8.4707;1.0080;-1.0295;-0.2922;0.3665;-0.3407
0000290389;8.9423;1.0726;-0.8954;-0.2399;0.4586;-0.3012
0000290398;8.9328;1.2522;-0.4214;-0.2293;0.4986;-0.2934
0000290407;8.4443;1.3216;-0.2274;-0.2264;0.4856;-0.2693
0000290420;8.3031;1.1827;-0.0215;-0.1603;0.4154;-0.2333
0000290429;8.6359;1.4174;0.5387;-0.0762;0.3465;-0.2245
0000290441;9.1315;2.2577;0.2179;-0.0596;0.2585;-0.2049
0000290450;8.6646;3.1603;-0.6081;-0.1311;0.2614;-0.2072
0000290463;6.9887;4.4484;-0.7446;-0.2466;0.2817;-0.1968
0000290472;5.7652;5.6264;-0.5674;-0.3296;0.2807;-0.1908
0000290484;4.1324;7.3263;-0.3687;-0.4896;0.2778;-0.1549
0000290493;2.9018;9.4284;2.5235;-0.6476;0.2364;-0.0755
0000290502;1.2067;13.1442;4.8315;-0.7683;0.1338;0.1549
0000290571;11.7124;2.8132;1.3743;0.6158;-0.3273;-0.2830
0000290580;9.8210;5.5498;0.7374;0.8022;-0.1671;-0.2523
0000290592;6.5242;9.9192;-1.4341;0.5644;0.0147;-0.1916
0000290601;4.1372;11.4730;-1.9273;0.1496;0.0910;-0.0746
0000290614;3.1460;9.9671;-1.2115;-0.2467;0.0497;0.1274
0000290623;3.9409;7.3933;-0.3041;-0.3411;-0.0324;0.1851
0000290635;5.4420;4.8530;0.5722;-0.2610;-0.1304;0.1446
0000290644;6.1627;3.3327;1.0008;-0.1592;-0.1336;0.0847
0000290653;6.9097;2.5642;0.9290;-0.0767;-0.1304;-0.0048
0000290666;7.6950;1.8411;0.5531;-0.0372;-0.1511;-0.1159
0000290675;8.1858;1.6065;0.4741;-0.0205;-0.1819;-0.1647
0000290687;8.7149;1.2833;0.1820;0.0004;-0.1901;-0.2065
0000290696;8.8825;1.0439;0.0311;0.0177;-0.1416;-0.2531
0000290709;7.9918;0.6105;-0.3807;0.0224;-0.0244;-0.3190
0000290718;7.5848;0.7590;-0.1245;0.0093;0.0677;-0.3384
0000290727;6.9599;0.9984;0.2179;0.0149;0.1514;-0.3475
0000290739;6.8067;1.6281;0.3208;0.0113;0.2614;-0.3074
0000290748;6.7253;2.2194;0.3065;0.0373;0.3204;-0.2759
0000290761;6.2560;2.6360;0.3065;0.1134;0.3969;-0.1583
0000290770;6.4715;3.2417;0.0479;0.1655;0.4313;-0.0473
0000290782;6.5457;3.5219;-0.3448;0.2130;0.4835;0.0931
0000290791;6.7995;3.5985;-0.6369;0.2120;0.5224;0.1767
0000290800;7.1132;3.5243;-0.7230;0.1669;0.5493;0.2326
0000290869;5.9328;1.7310;-0.0718;0.3011;0.3050;-0.0612
0000290878;5.7988;2.1691;-0.1939;0.3524;0.2598;-0.0549
0000290890;5.5210;2.5355;-0.3639;0.3695;0.2252;-0.0027
0000290899;5.5881;2.7414;-0.6752;0.3503;0.1947;0.0449
0000290912;5.9520;2.8970;-1.1157;0.2710;0.1773;0.1151
0000290921;6.1459;2.6360;-1.0463;0.1912;0.1671;0.1573
0000290933;6.5194;2.2003;-0.9122;0.0655;0.1609;0.2069
0000290942;6.4572;1.7142;-0.6369;-0.0226;0.1524;0.2298
0000290951;6.4476;1.5730;-0.4142;-0.1033;0.1279;0.2421
0000290964;6.1411;1.2689;-0.6105;-0.1743;0.0654;0.2438
0000290973;5.8203;1.1636;-0.6153;-0.1933;-0.0060;0.2423
0000290985;5.2050;1.0822;-0.8164;-0.1707;-0.1154;0.2515
0000290994;5.2888;1.7382;-0.6393;-0.1295;-0.2132;0.2490
0000291007;5.5138;2.2386;-0.6823;-0.1099;-0.3195;0.2578
0000291016;5.9616;2.6025;-0.7254;-0.1454;-0.3692;0.2490
0000291025;6.5027;3.0526;-0.7422;-0.2117;-0.4058;0.2395
0000291037;6.7660;3.3543;-1.0032;-0.3557;-0.4373;0.2249
0000291046;6.3853;3.2250;-1.0511;-0.4703;-0.4636;0.1885
0000291059;5.7772;2.6408;-0.5219;-0.5963;-0.4958;0.1359
0000291068;5.3367;2.1261;-0.2059;-0.6193;-0.5280;0.0946
0000291080;5.2816;1.6831;0.0024;-0.5449;-0.5782;0.0875
0000291089;5.3463;1.5155;-0.0239;-0.4553;-0.6098;0.1334
0000291158;5.5522;2.0758;-0.7063;-0.4017;-0.7619;0.2357
0000291167;5.3582;1.4341;-0.5650;-0.3789;-0.7983;0.1941
0000291176;5.2936;1.1301;-0.6273;-0.3035;-0.8467;0.1564
0000291188;5.4157;0.9002;-0.9337;-0.1596;-0.9056;0.1516
0000291197;5.8945;0.9242;-1.0846;-0.0481;-0.9601;0.1792
0000291210;6.9887;1.3910;-1.2570;0.0576;-0.9607;0.2483
0000291219;7.6447;1.6855;-1.4916;0.0733;-0.9138;0.2803
0000291231;7.8650;2.1596;-0.9577;0.0131;-0.7955;0.3154
0000291240;7.9655;2.5618;-0.6009;-0.0628;-0.7181;0.3236
0000291253;7.8554;2.8754;-0.5219;-0.2057;-0.5853;0.3208
0000291262;7.6974;2.7342;-0.1987;-0.2659;-0.5025;0.3107
0000291271;7.8362;2.8659;0.4262;-0.2678;-0.4358;0.2733
0000291283;8.5066;3.7589;0.8667;-0.2392;-0.3796;0.1986
0000291292;9.1674;5.7652;2.9449;-0.2559;-0.3388;0.0990
0000291305;12.8066;12.0309;9.1698;-0.3345;-0.2204;-0.2177
0000291314;17.5710;14.4682;2.1907;-0.2743;-0.1921;-0.5678
0000291326;19.8767;12.2009;-5.5138;-0.6722;0.1468;-0.6734
0000291335;13.2926;8.2073;-1.3575;-0.8212;0.5063;-0.3761
0000291348;5.8083;3.7948;1.3408;-0.3100;0.6193;0.0569
0000291357;2.4421;2.5905;1.5969;0.2070;0.5097;0.1545
0000291366;0.9242;2.8754;0.6632;0.6045;0.3195;0.1432
0000291378;1.1564;4.3958;0.2346;0.7719;-0.0153;0.1364
0000291387;4.7190;6.4691;0.0814;0.7729;-0.2138;0.1404
0000291456;8.7604;4.7621;0.9912;0.2334;0.5708;0.0497
0000291465;7.3454;4.2689;0.6393;0.2132;0.6133;0.1267
0000291478;6.1914;3.7517;0.1460;0.1649;0.5987;0.1595
0000291487;6.0166;3.1532;0.1676;0.1522;0.5367;0.1745
0000291496;6.1411;2.8276;-0.0048;0.1596;0.4426;0.1705
0000291508;6.3590;2.4086;-0.3112;0.1356;0.3000;0.1468
0000291517;6.6200;2.2529;-0.1317;0.1075;0.2018;0.1379
0000291530;7.2999;2.0183;0.2203;0.1295;0.0855;0.1140
0000291539;7.5369;1.9345;0.4334;0.1619;0.0286;0.1058
0000291551;7.6878;1.5802;0.4884;0.1772;-0.0248;0.0922
0000291560;8.0445;1.5682;0.6823;0.1804;-0.0428;0.0662
0000291569;8.1235;1.4844;0.7087;0.1912;-0.0397;0.0213
0000291582;8.0421;1.3479;0.6297;0.2213;-0.0079;-0.0430
0000291591;7.8793;1.3886;0.4262;0.2567;0.0061;-0.0737
0000291603;7.9057;1.4988;0.2227;0.2771;0.0408;-0.0905
0000291612;8.1786;1.8172;-0.0958;0.2717;0.0510;-0.0927
0000291625;8.2169;1.9944;-0.0958;0.2112;0.0707;-0.0612
0000291634;8.1379;2.2529;-0.0527;0.1680;0.0593;-0.0457
0000291643;7.9200;2.0853;0.0431;0.1228;0.0602;-0.0254
0000291655;8.1977;2.1715;0.1532;0.0951;0.0364;-0.0340
0000291664;8.1834;2.0758;0.3232;0.1130;0.0205;-0.0538
0000291677;8.2073;2.0446;0.3591;0.1683;0.0105;-0.1067
0000291686;8.4300;2.0853;0.2705;0.2153;0.0087;-0.1529
0000291755;8.8370;2.3750;-0.3328;0.2181;0.4497;-0.1943
0000291764;9.0118;2.4205;-0.6273;0.2097;0.5233;-0.1921
0000291777;8.9232;2.4157;-0.8739;0.1928;0.5977;-0.1597
0000291786;8.8394;2.4995;-1.0151;0.1869;0.6190;-0.1296
0000291795;9.1195;2.6264;-1.1109;0.1915;0.6239;-0.1135
0000291807;8.6598;2.5833;-1.2258;0.2053;0.6109;-0.1242
0000291816;8.1906;2.6073;-1.3001;0.2082;0.5910;-0.1496
0000291829;7.4915;2.3918;-1.0558;0.1821;0.5629;-0.2089
0000291838;7.3741;2.4636;-0.7111;0.1620;0.5448;-0.2605
0000291850;7.2472;2.5235;-0.5531;0.1222;0.5002;-0.3324
0000291859;7.6399;2.4325;-0.6584;0.0935;0.4627;-0.3721
0000291868;7.9823;2.0830;-0.6967;0.0810;0.4193;-0.3936
0000291881;8.0828;1.6400;-0.6369;0.1414;0.3556;-0.3870
0000291890;7.8362;1.6807;-0.6800;0.2124;0.3164;-0.3588
0000291902;7.3430;2.1021;-1.1253;0.2831;0.2721;-0.3042
0000291911;6.7516;2.4038;-1.1923;0.2932;0.2328;-0.2549
0000291924;6.3829;2.8228;-1.2713;0.2762;0.1585;-0.2025
0000291933;6.1363;2.9544;-1.2905;0.2478;0.1120;-0.1691
0000291945;6.7612;2.9975;-1.4341;0.1868;0.0354;-0.1383
0000291954;7.2377;2.9090;-1.6376;0.1378;-0.0257;-0.1190
0000291963;8.0110;2.5809;-1.8914;0.1095;-0.0926;-0.1011
0000291976;9.0453;2.5953;-1.9010;0.1424;-0.1387;-0.0903
0000291985;9.3853;2.7294;-1.8292;0.2010;-0.1340;-0.1286
0000292054;9.4547;1.6640;-1.8579;-0.2086;1.0257;-0.5644
0000292063;8.1283;0.7302;-1.6185;-0.1997;1.1359;-0.4878
0000292076;6.8019;0.0670;-1.2067;-0.1323;1.2016;-0.3258
0000292085;6.1699;-0.1508;-0.9002;-0.0654;1.1758;-0.2001
0000292097;5.5306;-0.2442;-0.8308;0.0234;1.0854;-0.0689
0000292106;5.1523;-0.0120;-0.6823;0.0817;0.9770;-0.0145
0000292115;5.2481;0.8092;-0.4645;0.0961;0.8727;0.0000
0000292128;5.2289;1.4006;-0.3304;0.0902;0.7029;-0.0442
0000292137;5.3247;1.8052;-0.3256;0.0582;0.5808;-0.0778
0000292149;5.1739;2.5211;1.1325;-0.0117;0.4283;-0.0766
0000292158;4.6783;4.9752;5.3774;-0.1235;0.2757;-0.0293
0000292171;2.2218;10.4818;5.0326;-0.7442;0.0164;0.0970
0000292180;-2.3750;13.6685;0.4046;-0.7871;0.0581;0.1568
0000292189;-5.9999;15.5599;-1.8052;-0.3228;-0.1387;0.2943
0000292201;2.4732;8.9447;-3.7086;-0.3886;-0.8499;0.3648
0000292210;9.1123;5.0853;-0.1173;-0.4331;-1.0491;0.0646
0000292223;11.2480;2.5235;0.8260;0.1584;-1.0056;-0.3204
0000292232;10.7739;3.7852;-0.2849;0.6407;-0.8577;-0.3607
0000292244;9.4858;8.4970;-1.4533;1.1041;-0.6996;-0.2200
0000292253;8.0996;13.1873;-3.1484;0.9285;-0.5765;-0.0687
0000292266;6.5553;16.4745;-6.2417;-0.1464;-0.3632;0.1163
0000292275;4.8914;14.5591;-4.7285;-0.6679;-0.2638;0.1973
0000292344;8.0469;2.2865;-0.6297;-0.0715;-0.6281;-0.1637
0000292353;8.0206;1.8603;-0.8499;-0.0396;-0.6154;-0.1751
0000292362;7.5393;1.7310;-0.8404;-0.0521;-0.5620;-0.1828
0000292375;6.8283;1.4317;-0.9313;-0.1115;-0.4735;-0.1996
0000292384;6.2872;1.1708;-0.7207;-0.1283;-0.3912;-0.2302
0000292396;5.9520;0.8308;-0.5267;-0.1073;-0.2765;-0.2689
0000292405;6.1196;0.7733;-0.3879;-0.0810;-0.2181;-0.3044
0000292418;6.4979;0.9266;-0.2394;-0.0837;-0.1430;-0.2943
0000292427;6.5769;1.1564;-0.2059;-0.0703;-0.1156;-0.2397
0000292439;6.5745;1.4844;-0.3352;-0.0789;-0.1124;-0.1147
0000292448;6.3303;1.5754;-0.5076;-0.0648;-0.1230;-0.0160
0000292461;6.4165;1.9489;-0.9002;-0.0448;-0.1504;0.0671
0000292470;6.6846;2.2338;-0.9768;-0.0670;-0.1624;0.0793
0000292479;6.4021;1.9345;-0.7853;-0.1094;-0.1776;0.0437
0000292491;6.5194;1.7286;-0.7542;-0.1927;-0.1875;-0.0213
0000292500;6.3710;1.2665;-0.3807;-0.2281;-0.1998;-0.0685
0000292513;6.8426;0.7781;0.0742;-0.2070;-0.2142;-0.0741
0000292522;7.0174;0.6369;0.2298;-0.1058;-0.2185;-0.0626
0000292534;6.9288;0.8547;0.0670;0.0662;-0.1988;-0.0156
0000292543;6.9432;1.2785;-0.1149;0.1873;-0.1721;0.0421
0000292556;6.5170;1.9752;-0.7183;0.2976;-0.0871;0.1139
0000292565;6.5793;2.7174;-1.1492;0.2996;-0.0139;0.1459
0000292574;6.6870;3.0167;-1.4796;0.2369;0.0502;0.1668
0000292643;5.8945;1.9130;-0.7039;-0.0145;0.0659;0.1507
0000292652;5.9137;1.8723;-0.7422;0.0576;0.0116;0.1791
0000292665;6.2824;1.8483;-0.8212;0.1447;-0.0373;0.1916
0000292674;6.0454;1.8866;-1.0175;0.1889;-0.0765;0.1880
0000292686;5.8514;2.3296;-1.1277;0.1981;-0.1075;0.1883
0000292695;5.4205;2.4565;-1.2929;0.1637;-0.1434;0.1845
0000292704;5.3391;2.6600;-1.4198;0.1162;-0.1944;0.1815
0000292717;5.2098;2.9880;-1.2019;0.0572;-0.2723;0.2118
0000292726;4.8459;3.1101;-1.1492;0.0470;-0.3272;0.2558
0000292738;5.2792;3.2130;-1.2785;0.0513;-0.4219;0.3059
0000292747;5.3654;2.9999;-1.1492;0.0325;-0.4816;0.3255
0000292760;5.3989;2.5450;-1.1468;-0.0056;-0.5700;0.2879
0000292769;5.5402;2.0255;-1.1444;-0.0095;-0.6338;0.2465
0000292781;5.5952;1.4126;-0.8954;0.0207;-0.7163;0.1859
0000292790;5.6862;1.3982;-0.9529;0.0484;-0.7659;0.1487
0000292799;5.9089;1.7957;-0.9673;0.0592;-0.7879;0.1520
0000292812;6.1363;2.6025;-1.0989;0.0113;-0.7907;0.1723
0000292821;6.7157;3.5434;-1.2809;-0.0781;-0.7957;0.1879
0000292833;6.7612;3.9744;-1.6352;-0.2854;-0.7639;0.2234
0000292842;6.3542;3.6105;-1.5395;-0.4281;-0.7480;0.2395
0000292855;6.0047;2.4349;-1.2953;-0.5387;-0.7328;0.2389
0000292864;5.6312;1.4341;-1.3695;-0.5051;-0.7388;0.2220
0000292873;5.6527;0.8308;-0.9888;-0.4250;-0.7321;0.2297
0000292942;8.8250;5.0613;-0.0407;-0.6289;-0.6265;0.3593
0000292951;8.4755;7.5393;4.1061;-0.7823;-0.5721;0.4438
0000292965;10.9008;13.0652;6.6822;-0.9649;-0.4847;0.1821
0000292974;14.6477;13.4865;-1.4365;-0.6388;-0.6259;-0.2080
0000292987;14.5065;10.1418;-4.1515;-0.6560;-0.3848;-0.3461
0000292996;10.8649;6.8067;-1.6305;-0.6376;-0.1351;-0.1833
0000293008;5.0494;3.2896;1.4964;-0.0946;-0.0088;0.0726
0000293017;3.9552;2.2003;1.3312;0.3756;-0.0482;0.1135
0000293030;4.7214;3.4548;0.4501;0.6772;-0.1212;0.0953
0000293039;6.7062;5.8969;0.2035;0.6708;-0.1294;0.1875
0000293048;8.7891;7.9057;-0.9529;0.5209;-0.1291;0.2846
0000293060;11.2120;8.7197;-0.7997;0.2790;-0.0991;0.2579
0000293069;12.1147;8.4252;-0.9050;0.2602;-0.0613;0.0810
0000293082;11.8681;6.8211;-1.4581;0.2483;0.0573;-0.1524
0000293091;10.7212;5.5976;-1.0630;0.2138;0.1435;-0.2160
0000293103;8.6359;4.8818;-0.4238;0.2230;0.1885;-0.2174
0000293112;6.6176;4.6471;-0.4764;0.2214;0.1773;-0.1648
0000293121;5.6192;4.0366;-0.7733;0.1800;0.1214;-0.1130
0000293134;5.3103;3.5362;-0.6273;0.0793;-0.0200;-0.0197
0000293143;5.1140;2.6193;-0.5507;-0.0071;-0.1066;0.0385
0000293155;6.0693;1.8364;-0.4094;-0.1288;-0.2069;0.0934
0000293164;6.6990;1.2785;-0.1867;-0.1960;-0.2411;0.1143
0000293233;9.4858;1.1947;-0.1484;0.1368;0.1186;-0.0183
0000293242;9.1459;1.4413;-0.1891;0.1299;0.1596;-0.1057
0000293254;8.7724;1.6376;-0.2969;0.0849;0.2097;-0.1720
0000293263;8.6479;1.6975;-0.2298;0.0530;0.2281;-0.2194
0000293272;8.4300;1.7861;-0.2011;0.0253;0.2498;-0.2493
0000293285;7.8027;1.3384;-0.2969;0.0023;0.2617;-0.2801
0000293294;7.4962;1.1301;-0.2514;0.0180;0.2543;-0.2738
0000293306;7.3909;0.9170;-0.2083;0.0890;0.2261;-0.2649
0000293315;7.3263;1.0606;-0.3352;0.1769;0.2072;-0.2687
0000293328;7.2903;1.4796;-0.4932;0.3054;0.1769;-0.2621
0000293337;7.3287;1.6520;-0.7374;0.3259;0.1684;-0.2443
0000293349;7.5920;1.9513;-0.9577;0.3098;0.1519;-0.2064
0000293358;7.5681;2.1261;-1.0582;0.2838;0.1403;-0.1633
0000293367;7.4460;2.3415;-1.1540;0.2783;0.1085;-0.1282
0000293380;7.5322;2.3798;-0.8882;0.2743;0.0702;-0.0862
0000293389;7.6950;2.7725;-0.7638;0.2597;0.0350;-0.0902
0000293401;7.7859;2.7438;-0.6153;0.1996;-0.0148;-0.1443
0000293410;7.8171;2.5833;-0.5363;0.1219;-0.0524;-0.1781
0000293423;8.0110;1.9369;-0.3831;0.0613;-0.0955;-0.2228
0000293432;7.7788;1.3120;-0.6728;0.0805;-0.1388;-0.2667
0000293441;7.5178;0.8332;-0.7590;0.1386;-0.1707;-0.2992
0000293453;6.6559;0.5411;-0.8930;0.2575;-0.2228;-0.3545
0000293462;6.0214;0.6991;-0.9625;0.3268;-0.2647;-0.3713
0000293529;9.2296;1.2378;-1.2785;-0.0610;-0.3317;-0.2858
0000293538;9.5337;0.8068;-1.5682;-0.0296;-0.2856;-0.2862
0000293550;9.2296;0.2777;-1.9010;0.0545;-0.2393;-0.2755
0000293559;8.8585;0.2562;-1.7382;0.1255;-0.1929;-0.2313
0000293572;8.1930;0.7805;-1.0199;0.2122;-0.1400;-0.1657
0000293581;7.9248;1.5850;-0.5291;0.2014;-0.1128;-0.1162
0000293593;7.8482;2.5307;-0.0383;0.0793;-0.0871;-0.0480
0000293602;7.7189;2.3272;-0.4956;-0.0457;-0.0711;0.0167
0000293611;7.8075;1.8435;-0.5028;-0.1058;-0.0536;0.0573
0000293624;7.0892;2.2027;0.4094;0.0009;-0.0697;0.0606
0000293633;6.0406;3.2178;0.6512;0.1194;-0.0945;0.0630
0000293645;4.6950;5.4372;1.1349;0.1929;-0.1627;0.0823
0000293654;4.3910;7.6351;1.8938;0.1226;-0.2230;0.1664
0000293667;4.2353;11.5161;1.1109;-0.1215;-0.3388;0.4270
0000293676;3.9624;13.4171;-0.1125;-0.2200;-0.4010;0.6050
0000293685;4.1108;13.4219;-0.8164;-0.1907;-0.4842;0.6095
0000293697;7.8673;10.2304;-1.8818;-0.1741;-0.5360;0.3888
0000293706;10.2831;7.8889;-0.9002;-0.1274;-0.4624;0.1863
0000293719;12.3613;6.5817;-0.7422;0.0985;-0.2499;0.0453
0000293728;11.9830;6.9911;-1.0894;0.2037;-0.0602;0.0465
0000293740;9.6534;8.7963;-1.7526;0.1362;0.1139;0.0845
0000293749;7.6926;9.9647;-1.9106;-0.0085;0.1797;0.1053
0000293818;4.1013;4.5514;-0.0503;-0.2194;-0.6630;-0.4006
0000293827;5.3079;4.2641;-0.1460;-0.1793;-0.7418;-0.4330
0000293836;6.8043;3.6679;-0.1053;-0.1303;-0.7650;-0.3784
0000293848;8.1762;3.3208;-0.5411;-0.0993;-0.7077;-0.3174
0000293857;8.6095;2.8706;-0.8452;-0.1239;-0.6049;-0.2892
0000293870;9.0190;2.4229;-0.7566;-0.1663;-0.4201;-0.2609
0000293879;8.8370;1.9082;-0.8619;-0.1944;-0.2990;-0.2625
0000293891;8.4515;1.4748;-0.6488;-0.2298;-0.1444;-0.2702
0000293900;7.7189;1.0104;-0.3591;-0.2537;-0.0585;-0.2811
0000293913;7.1754;0.8404;-0.1293;-0.2918;0.0346;-0.2765
0000293922;6.7133;0.5507;0.0311;-0.3028;0.0795;-0.2475
0000293934;6.3949;0.3831;-0.0718;-0.2826;0.1025;-0.1891
0000293943;6.3039;0.3903;-0.0383;-0.2534;0.1083;-0.1407
0000293952;6.0286;0.4214;0.1413;-0.2169;0.1087;-0.0794
0000293965;5.7365;0.6919;-0.0024;-0.1855;0.1066;0.0055
0000293974;5.7413;0.7207;-0.1293;-0.1745;0.1023;0.0620
0000293986;5.9855;0.6129;-0.3232;-0.1520;0.1001;0.1227
0000293995;5.9472;0.9218;-0.3041;-0.1371;0.1073;0.1576
0000294008;6.3255;1.1133;-0.1963;-0.0958;0.0951;0.1639
0000294017;6.8929;1.3120;-0.2993;-0.0714;0.0774;0.1579
0000294026;7.3813;1.4102;-0.3112;-0.0534;0.0714;0.1427
0000294038;7.3717;1.7262;-0.4741;-0.0528;0.0719;0.1006
0000294047;7.1036;1.9609;-0.5890;-0.0934;0.0766;0.0729
0000294116;6.4548;-0.7254;0.2634;0.2769;-0.1132;-0.0092
0000294125;6.9935;-0.3807;-0.4334;0.2888;-0.0983;0.0224
0000294137;7.7572;0.2945;-1.6376;0.1705;-0.0089;0.0119
0000294146;7.5753;1.2067;-1.8172;0.0145;0.1146;0.0049
0000294159;6.7732;2.6121;-1.1756;-0.0797;0.2326;0.1001
0000294168;5.2002;3.4500;-1.2139;-0.0779;0.2650;0.1915
0000294177;3.8092;4.1348;-1.3336;-0.0590;0.2256;0.2621
0000294189;3.0311;4.4053;-1.5658;-0.0667;0.1009;0.3833
0000294198;2.9975;4.2377;-1.9034;-0.1234;-0.0171;0.4473
0000294211;3.4500;3.8355;-1.7765;-0.2542;-0.2028;0.5029
0000294220;3.6105;3.5793;-1.3336;-0.2852;-0.3640;0.5136
0000294232;3.8475;3.3136;-0.8212;-0.2487;-0.5836;0.5025
0000294241;4.0223;3.3639;-0.7661;-0.2077;-0.7362;0.4588
0000294254;4.5226;3.3208;-1.0080;-0.1831;-0.8839;0.3644
0000294263;4.6878;3.2753;-1.2833;-0.1757;-0.9385;0.3007
0000294272;4.9177;2.9856;-1.3958;-0.1579;-0.9693;0.2670
0000294284;5.2744;2.7150;-1.5036;-0.1061;-0.9800;0.2701
0000294293;5.4899;2.4828;-2.0806;-0.0690;-1.0036;0.2911
0000294306;5.8682;2.2386;-2.3343;-0.0099;-1.0066;0.3192
0000294315;6.0214;2.0590;-1.9178;0.0493;-1.0074;0.3766
0000294327;6.3327;1.8531;-1.5658;0.0973;-1.0269;0.4583
0000294336;6.6200;2.2266;-0.6800;0.0582;-0.9856;0.4799
0000294405;26.5325;18.5646;-7.9775;-0.5638;-0.6435;-0.6428
0000294414;21.4544;12.6558;-11.2144;-1.1567;0.1688;-0.3841
0000294423;12.7922;6.5146;-0.6033;-1.1217;0.5148;0.1748
0000294436;2.9233;1.2953;1.8268;-0.2735;0.3202;0.7667
0000294445;0.4836;0.4405;1.4724;0.5696;0.0353;0.7225
0000294457;-2.2266;1.6424;0.5315;1.3883;-0.2048;0.5028
0000294466;-0.9266;5.3702;0.7207;1.5697;-0.3937;0.3786
0000294479;7.7740;11.3365;-3.5147;0.8334;-0.7117;0.3714
0000294488;12.1985;12.1458;-4.2760;0.0797;-0.8549;0.1924
0000294500;13.5464;9.7875;-2.6671;-0.3930;-0.9737;-0.1227
0000294509;13.3237;7.8913;-1.7645;-0.4678;-0.8664;-0.2265
0000294518;13.0867;6.1387;-1.2594;-0.4549;-0.7261;-0.2337
0000294531;12.1865;4.1779;-0.0814;-0.4383;-0.5494;-0.2346
0000294540;10.6901;3.5314;0.2274;-0.3788;-0.4032;-0.2069
0000294552;8.2959;2.9904;-0.0072;-0.2657;-0.1880;-0.1565
0000294561;7.2640;2.3463;-0.0527;-0.1828;-0.0621;-0.1372
0000294574;8.1379;1.9896;0.3232;0.0064;0.0092;-0.1239
0000294583;8.9663;1.8340;0.1437;0.1085;0.0598;-0.1115
0000294595;9.3254;1.5658;0.0670;0.1479;0.0885;-0.1090
0000294604;9.5002;1.5634;0.1796;0.1604;0.0883;-0.0850
0000294613;9.4092;1.5467;0.2466;0.1720;0.0778;-0.0388
0000294681;8.7771;2.5977;-0.6847;-0.0629;0.1211;-0.1816
0000294690;8.9112;2.4349;-0.6464;-0.1773;0.1567;-0.2394
0000294702;8.5377;1.8842;-0.3136;-0.3180;0.2130;-0.2503
0000294711;8.3701;1.4629;0.1030;-0.3511;0.2437;-0.2117
0000294724;8.2887;1.1396;0.4286;-0.2699;0.2574;-0.1308
0000294733;7.9368;0.9194;0.5291;-0.1395;0.2625;-0.0755
0000294745;7.6040;1.0726;0.2969;0.0715;0.2406;-0.0406
0000294754;7.6255;1.3671;0.1413;0.2112;0.2109;-0.0464
0000294763;7.9344;1.9585;-0.1460;0.2959;0.1852;-0.0568
0000294776;8.3175;2.3583;-0.7398;0.3083;0.1557;-0.1046
0000294785;8.7412;2.4421;-0.7877;0.2730;0.1567;-0.1514
0000294797;8.8490;2.3966;-0.8164;0.2427;0.1531;-0.1903
0000294806;8.7269;1.9273;-0.9888;0.2459;0.1560;-0.2157
0000294819;8.3270;1.7645;-0.7877;0.2626;0.1335;-0.2388
0000294828;7.8793;1.4269;-0.8045;0.2738;0.1063;-0.2663
0000294837;8.1044;1.5443;-0.6297;0.2827;0.0857;-0.2908
0000294849;8.3103;1.5131;-0.6249;0.3006;0.0798;-0.3351
0000294858;8.0852;1.1684;-0.5938;0.3035;0.0917;-0.3597
0000294871;8.6598;1.4533;-0.9026;0.2783;0.1483;-0.3762
0000294880;8.8849;1.4437;-0.9984;0.2639;0.2121;-0.3669
0000294892;8.8609;1.6783;-0.7853;0.2702;0.3276;-0.3706
0000294901;8.6957;1.7980;-0.7638;0.2777;0.4202;-0.3560
0000294970;6.2776;1.3551;-1.0439;0.0845;0.5225;0.0169
0000294979;6.5697;1.2378;-1.1085;0.0245;0.4882;0.0112
0000294988;7.0964;1.2234;-0.9481;-0.0280;0.4465;-0.0113
0000295000;7.9248;1.7645;-0.7207;-0.0614;0.4000;-0.0203
0000295009;8.2025;2.2362;-0.7877;-0.0854;0.3700;-0.0242
0000295022;7.7548;2.4900;-1.0032;-0.1535;0.3504;-0.0193
0000295031;7.0844;2.3128;-1.1516;-0.1797;0.3234;-0.0179
0000295043;6.7660;2.0279;-1.5562;-0.1551;0.2465;-0.0262
0000295052;6.2441;1.7406;-1.7047;-0.1134;0.1765;-0.0392
0000295061;6.2058;1.3503;-1.9082;-0.0590;0.1111;-0.0596
0000295074;6.4069;1.1947;-1.9441;0.0040;0.0472;-0.1047
0000295083;6.5529;1.1684;-1.9034;0.0047;0.0377;-0.1370
0000295095;7.4005;1.5754;-1.9752;-0.0452;0.0406;-0.2037
0000295104;7.9080;1.7789;-2.0375;-0.1180;0.0424;-0.2531
0000295117;8.3438;1.5083;-2.5642;-0.2483;0.0408;-0.2930
0000295126;8.5904;1.1325;-3.4357;-0.3200;0.0400;-0.2835
0000295138;8.5258;0.6081;-3.2777;-0.3316;0.0444;-0.2309
0000295147;7.8602;0.2538;-2.6240;-0.2546;0.0248;-0.1776
0000295156;7.4699;0.4381;-2.0638;-0.1828;0.0057;-0.1041
0000295169;7.0102;1.4389;1.3479;-0.0665;0.0701;-0.0386
0000295178;6.4955;7.1299;11.8369;-0.0986;0.1318;0.0646
0000295190;-1.7358;21.8686;7.2592;-1.2108;-0.2185;1.1182
0000295199;-10.9128;26.0585;0.1891;-1.0150;-0.4334;1.6758
0000295268;12.3900;6.4907;1.4341;0.9383;0.1264;-0.4847
0000295277;7.1204;10.2975;-2.0853;0.9713;0.4185;-0.0903
0000295289;3.0454;13.0819;-3.2441;0.4606;0.5195;0.2783
0000295298;2.8706;10.8553;-3.0550;0.0859;0.3444;0.4355
0000295307;4.1875;7.6136;-2.2601;-0.0477;0.2138;0.4302
0000295320;5.9759;5.1404;-0.5100;0.0817;0.0693;0.2826
0000295329;6.3207;4.7285;0.1867;0.1668;-0.0312;0.1279
0000295341;6.6176;5.3103;0.2682;0.0589;-0.1589;-0.0954
0000295350;6.6248;5.0637;-0.4501;-0.1483;-0.2633;-0.2557
0000295363;7.0964;2.7126;-0.3328;-0.3273;-0.4153;-0.4211
0000295372;7.1635;1.2929;0.6512;-0.2300;-0.4642;-0.4498
0000295384;6.7373;0.4070;0.6393;0.0723;-0.4991;-0.3832
0000295393;6.6726;0.5148;0.2251;0.2435;-0.4856;-0.3087
0000295402;7.1036;1.0630;-0.2203;0.3528;-0.4470;-0.2631
0000295415;7.4771;1.7214;-0.6512;0.3613;-0.3255;-0.2781
0000295424;7.6184;2.2697;-0.9457;0.3044;-0.2288;-0.3251
0000295436;6.9001;2.5450;-0.8475;0.1436;-0.1019;-0.3655
0000295445;6.4715;2.4325;-0.5986;0.0350;-0.0460;-0.3280
0000295458;5.8251;1.8699;-0.2394;-0.0637;-0.0184;-0.1957
0000295467;5.9304;1.5083;-0.0622;-0.0610;-0.0381;-0.0978
0000295479;5.9520;1.1444;0.0670;-0.0127;-0.0702;0.0318
0000295488;5.7892;0.9673;0.0407;0.0253;-0.0885;0.1120
0000295497;5.8012;1.0846;-0.0814;0.0641;-0.1216;0.1402
0000295566;5.8538;2.3966;-1.0415;0.0061;-0.3341;-0.1536
0000295575;5.3343;2.3774;-0.9553;-0.0175;-0.3216;-0.1314
0000295587;4.7501;2.1308;-1.0894;-0.0104;-0.3437;-0.0734
0000295596;4.6950;1.8435;-1.0870;0.0095;-0.3844;-0.0393
0000295609;4.7812;1.4126;-1.2713;0.0771;-0.4282;0.0081
0000295618;5.1236;1.0774;-1.4150;0.1466;-0.4575;0.0354
0000295630;5.5737;1.0151;-1.9369;0.2437;-0.4995;0.0691
0000295639;5.8083;1.1253;-1.9632;0.2931;-0.5243;0.0906
0000295648;5.9113;1.3647;-1.9585;0.3304;-0.5602;0.1017
0000295661;6.0693;1.9297;-2.4062;0.2855;-0.5785;0.1195
0000295670;5.9783;2.0375;-2.4445;0.2118;-0.5821;0.1228
0000295684;5.8323;2.0423;-2.3080;0.1320;-0.6094;0.1120
0000295693;5.5952;1.9561;-2.3320;0.0873;-0.6099;0.1031
0000295706;5.7437;1.9106;-2.1548;0.0537;-0.5969;0.1130
0000295715;5.8754;1.4868;-1.8866;0.0241;-0.5728;0.1492
0000295724;6.5434;1.5562;-1.6424;0.0065;-0.5356;0.2016
0000295736;6.9001;0.9050;-1.4940;0.0128;-0.4572;0.2721
0000295745;6.8067;0.4717;-1.4485;0.0354;-0.3776;0.3108
0000295758;6.4691;-0.2394;-1.0654;0.0770;-0.2530;0.3332
0000295767;6.5912;-0.6895;-1.2641;0.1323;-0.1700;0.3151
0000295836;6.2800;-0.0551;-3.0191;0.1904;0.4151;0.4092
0000295845;5.7916;5.3415;5.4205;-0.0863;0.5842;0.4357
0000295858;16.8600;18.3803;21.6939;-1.7295;1.2021;0.0851
0000295867;36.8970;18.1193;-2.5714;-0.5858;0.4223;-0.6492
0000295876;31.3090;13.1514;-9.5050;-0.3816;1.4145;-1.0455
0000295888;9.6941;6.5841;0.8571;0.0149;1.5608;-0.1565
0000295897;3.0550;3.9480;3.3279;0.6065;1.0511;0.5348
0000295911;-1.3384;7.4005;1.4126;1.5986;0.9571;0.4855
0000295920;-2.8347;14.0133;-1.7047;1.4241;0.6416;0.2942
0000295933;1.1875;19.7258;-6.8402;0.4506;0.3884;-0.0613
0000295942;8.6742;17.5758;-5.5905;-0.4554;0.0545;-0.0609
0000295954;14.2886;11.2144;1.1851;-0.8135;0.0120;-0.3373
0000295963;14.4155;6.5960;1.9609;-0.5949;0.1348;-0.5216
0000295972;14.3868;3.5243;1.0774;-0.2903;0.2224;-0.4968
0000295985;12.9526;2.5618;1.1037;0.1243;0.2471;-0.2870
0000295994;11.6502;3.3902;1.6783;0.3222;0.3188;-0.1384
0000296006;9.5720;5.4253;0.3903;0.3403;0.4331;-0.0159
0000296015;8.0804;6.5673;-1.3288;0.1339;0.5297;-0.0012
0000296028;6.4045;6.6846;-1.8316;-0.2641;0.6612;-0.0883
0000296037;5.8227;5.7892;-1.1444;-0.4495;0.6981;-0.1215
0000296049;5.8323;3.8499;-0.5435;-0.5223;0.6153;-0.1840
0000296058;6.2513;2.9449;-0.0790;-0.4578;0.5015;-0.2294
0000296067;6.4811;2.3822;0.3304;-0.3055;0.4100;-0.2332
0000296136;9.7348;-0.1628;-0.0934;-0.2517;0.5750;-0.1800
0000296145;9.2656;-0.1125;0.0024;-0.1869;0.6514;-0.2201
0000296157;8.5018;0.2921;-0.1772;-0.0929;0.7460;-0.2189
0000296166;7.8195;1.1061;-0.1221;-0.0103;0.7981;-0.1548
0000296179;6.7900;1.8052;-0.6153;0.0666;0.8223;-0.0448
0000296188;6.4117;2.1883;-0.6321;0.0640;0.8152;0.0176
0000296200;6.1507;2.4876;-0.6704;0.0269;0.7657;0.0807
0000296209;6.4189;2.5953;-0.6321;-0.0076;0.6965;0.1180
0000296218;7.1108;2.7150;-0.5818;-0.0767;0.6254;0.1335
0000296231;8.2073;2.4229;-0.6608;-0.1815;0.5336;0.1227
0000296240;8.4611;1.8890;-0.3112;-0.2386;0.5132;0.0959
0000296252;8.6742;1.4605;-0.1101;-0.2407;0.5257;0.0871
0000296261;8.5904;1.3599;-0.2251;-0.1644;0.5317;0.0774
0000296274;8.4467;1.5658;-0.3352;0.0101;0.5315;0.0694
0000296283;8.4611;2.3559;-0.5626;0.1207;0.5353;0.0593
0000296292;8.0900;2.8659;-1.0463;0.1816;0.5329;0.0446
0000296304;7.7045;3.5793;-1.6568;0.1600;0.5505;0.0472
0000296313;7.4172;3.7350;-1.9585;0.1094;0.5700;0.0477
0000296326;7.5800;3.7230;-2.0016;0.0242;0.5738;0.0449
0000296335;7.7788;3.5195;-1.9704;-0.0109;0.5713;0.0253
0000296347;7.9057;3.0789;-1.9321;-0.0325;0.5602;0.0020
0000296356;7.9272;3.0287;-1.7621;-0.0413;0.5522;-0.0053
0000296365;7.8075;2.8060;-1.8651;-0.0348;0.5431;-0.0175
0000296434;7.1994;3.1580;-1.9872;0.0533;0.4022;0.0392
0000296443;7.4939;2.8132;-1.9225;0.0441;0.3581;0.0358
0000296455;8.2983;2.2075;-1.8459;0.0754;0.3046;-0.0148
0000296464;8.8107;2.0925;-1.6089;0.1227;0.3060;-0.0779
0000296477;9.1530;2.1811;-1.3168;0.2288;0.3271;-0.1943
0000296486;9.4643;2.6552;-1.1444;0.2773;0.3677;-0.2505
0000296498;9.5050;4.2114;0.8882;0.3473;0.3901;-0.2834
0000296507;9.3589;5.8610;1.5730;0.2920;0.4198;-0.2106
0000296516;8.4491;7.3095;1.6137;0.1271;0.4124;-0.0726
0000296529;6.2800;9.3613;1.8268;-0.1264;0.3435;0.1960
0000296538;4.9991;9.3948;2.6145;-0.0245;0.2236;0.3108
0000296550;7.3430;6.9863;2.4948;0.2381;0.0750;0.1303
0000296559;7.9679;4.8459;2.4828;0.3653;0.0626;-0.0618
0000296572;9.9024;2.9018;2.1787;0.5578;0.1815;-0.2446
0000296581;10.9870;2.4493;1.0942;0.6743;0.2894;-0.3104
0000296590;11.1354;2.6169;-0.1125;0.6451;0.4451;-0.3579
0000296602;10.0987;3.3279;-1.1061;0.4034;0.6760;-0.3309
0000296611;8.4396;3.4979;-1.0654;0.2034;0.8360;-0.2427
0000296624;5.5665;3.8427;-0.7015;0.0428;0.9826;-0.0628
0000296633;4.1827;3.9576;-0.2011;-0.0148;0.9847;0.0667
0000296645;3.2370;4.3144;0.0048;-0.0152;0.8900;0.2280
0000296654;3.1795;4.4676;0.0670;0.0019;0.7871;0.3098
0000296663;3.3519;4.5681;-0.1556;0.0297;0.6542;0.3075
0000296732;5.8059;2.2146;0.1724;-0.1002;-0.2244;-0.3884
0000296741;5.7772;2.5594;-0.1149;-0.0564;-0.2346;-0.3611
0000296753;6.0861;2.8778;-0.3591;-0.0392;-0.2065;-0.3207
0000296762;6.2177;2.6456;-0.1724;-0.0493;-0.1697;-0.2783
0000296775;6.7636;2.5259;-0.1317;-0.0111;-0.1224;-0.2224
0000296784;6.8546;2.4205;-0.0096;0.0270;-0.0843;-0.1737
0000296796;7.0725;2.6169;-0.2251;0.0757;-0.0348;-0.1171
0000296805;6.9001;2.8228;-0.5148;0.0843;-0.0016;-0.0695
0000296814;6.8570;3.2370;-0.6321;0.0879;0.0201;-0.0293
0000296827;6.6104;3.7206;-0.9816;0.0374;0.0412;0.0258
0000296836;6.3183;3.5961;-0.9768;-0.0396;0.0602;0.0640
0000296848;6.2800;3.6152;-0.7901;-0.1352;0.0725;0.0886
0000296857;6.3997;3.1603;-0.7183;-0.1939;0.0694;0.0979
0000296870;6.7780;2.7892;-0.4764;-0.2374;0.0481;0.0833
0000296879;6.9073;2.4612;-0.3184;-0.2338;0.0362;0.0669
0000296891;6.7493;2.2769;-0.1844;-0.1812;-0.0088;0.0277
0000296900;6.6607;2.6456;-0.0359;-0.1378;-0.0386;0.0004
0000296909;6.6319;2.9329;-0.1939;-0.0990;-0.0795;-0.0322
0000296922;6.1938;3.2633;-0.3543;-0.0775;-0.1327;-0.0481
0000296931;6.2752;3.4836;-0.4501;-0.0818;-0.1604;-0.0433
0000296943;6.1651;3.3615;-0.7135;-0.0811;-0.1891;-0.0173
0000296952;6.4356;3.3902;-0.9720;-0.0745;-0.2081;0.0023
0000297021;6.4548;3.3974;-1.7741;-0.2602;-0.2244;0.0003
0000297030;6.5074;3.4931;-1.6017;-0.2795;-0.2262;0.0163
0000297042;6.2848;3.2896;-1.4246;-0.2763;-0.2633;0.0286
0000297051;6.1675;3.2226;-1.4198;-0.2777;-0.2835;0.0526
0000297060;5.8969;2.8611;-1.4198;-0.2594;-0.3289;0.0674
0000297073;6.0262;2.8635;-1.3503;-0.2427;-0.3774;0.0879
0000297082;6.3303;2.9281;-1.4629;-0.2193;-0.4109;0.0971
0000297094;6.4979;3.0526;-1.4629;-0.1927;-0.4327;0.0913
0000297103;6.6056;3.0598;-1.4844;-0.1784;-0.4387;0.0782
0000297116;6.7995;3.1843;-1.6041;-0.1811;-0.4206;0.0630
0000297125;6.8618;3.0909;-1.5897;-0.1998;-0.3952;0.0613
0000297137;7.0653;3.0071;-1.5514;-0.2202;-0.3766;0.0504
0000297146;6.7014;2.5977;-1.4700;-0.2144;-0.3760;0.0440
0000297155;6.7062;2.5402;-1.3264;-0.2049;-0.3713;0.0520
0000297168;6.4404;2.4828;-1.3695;-0.1412;-0.4060;0.0532
0000297177;6.4787;2.5283;-1.3336;-0.1071;-0.4108;0.0542
0000297189;6.4069;2.6767;-1.3623;-0.0536;-0.4238;0.0469
0000297198;6.6918;2.8036;-1.5060;-0.0320;-0.4410;0.0310
0000297211;6.8809;2.6025;-1.6664;-0.0236;-0.4373;0.0340
0000297220;6.8115;2.8539;-1.5993;-0.0216;-0.4462;0.0288
0000297232;6.0071;2.5235;-1.1923;0.0031;-0.4896;0.0444
0000297241;5.6934;2.7749;-1.1851;0.0418;-0.5429;0.0573
0000297250;5.0781;2.7605;-0.9984;0.0750;-0.5929;0.0963
0000297319;7.9703;4.0989;-1.2091;-0.0113;-0.7129;0.2085
0000297328;8.9639;5.5426;0.8308;-0.1831;-0.6738;0.1290
0000297340;11.3940;7.1587;3.9002;-0.2936;-0.6037;-0.0809
0000297349;13.0867;7.5393;3.5123;-0.2470;-0.5299;-0.3090
0000297362;11.9112;6.4955;0.9673;-0.2100;-0.3692;-0.5120
0000297371;8.7867;5.5162;0.6033;-0.2080;-0.2914;-0.4651
0000297382;5.6479;4.1204;1.4317;-0.1568;-0.1982;-0.2377
0000297391;3.6990;3.7062;1.9321;0.0031;-0.2076;-0.0538
0000297400;3.1436;3.9600;1.8603;0.1478;-0.2998;0.1300
0000297414;4.6112;4.7262;1.0534;0.2148;-0.5096;0.2789
0000297423;5.9304;4.9656;0.4669;0.1551;-0.6362;0.2671
0000297436;7.7740;4.6855;0.5195;0.0244;-0.7795;0.2117
0000297445;9.2368;4.4317;0.9720;-0.0075;-0.8478;0.1335
0000297457;10.4363;3.8858;1.1516;0.0422;-0.8615;-0.0032
0000297466;11.0397;3.6392;0.8356;0.0910;-0.8136;-0.0898
0000297479;11.2982;3.4046;0.3519;0.1127;-0.6964;-0.1757
0000297488;11.4060;3.5386;0.0622;0.0822;-0.5632;-0.1533
0000297497;11.0636;3.6464;-0.1125;0.0438;-0.4225;-0.0895
0000297509;10.5560;3.7230;-0.4717;-0.0581;-0.2168;0.0612
0000297518;9.9790;3.4860;-0.4310;-0.1279;-0.0718;0.1765
0000297587;8.3534;2.8491;-0.0599;-0.1372;-0.0605;0.2530
0000297596;8.1403;2.2673;-0.0311;-0.1428;-0.0991;0.2004
0000297608;7.9200;1.7621;0.0072;-0.1214;-0.1398;0.1500
0000297617;7.7500;1.5706;-0.0575;-0.0738;-0.1709;0.1208
0000297630;7.6591;1.9201;-0.1891;-0.0092;-0.2290;0.0610
0000297637;7.9918;2.2745;-0.4094;0.0053;-0.2569;0.0349
0000297645;7.8985;2.7270;-0.6249;-0.0143;-0.2806;0.0007
0000297656;8.3941;3.4261;-0.8452;-0.0941;-0.2699;-0.0211
0000297664;8.6503;3.8786;-0.9122;-0.1616;-0.2562;-0.0292
0000297676;8.4803;3.7038;-0.8380;-0.2559;-0.2156;-0.0208
0000297684;8.4731;3.4381;-0.6800;-0.2999;-0.1856;0.0023
0000297695;8.5186;2.8443;-0.4573;-0.3032;-0.1629;0.0365
0000297703;8.5545;2.6528;-0.3591;-0.2694;-0.1491;0.0777
0000297715;8.5042;2.4205;-0.3759;-0.1787;-0.1372;0.1212
