time;acc_x;acc_y;acc_z;gyro_x;gyro_y;gyro_z
0000408159;7.2760;3.2944;-0.8811;0.1961;0.1948;-0.1274
0000408168;7.5130;3.5219;-0.8308;0.1880;0.2068;-0.1299
0000408175;7.2999;3.3950;-0.8164;0.1915;0.2172;-0.1339
0000408183;7.2113;3.3399;-0.8212;0.1896;0.2334;-0.1398
0000408194;7.0844;3.5171;-0.9792;0.1887;0.2555;-0.1222
0000408202;7.2856;3.7254;-1.0774;0.1669;0.2739;-0.1038
0000408210;6.9528;3.6320;-1.1779;0.1628;0.2844;-0.0887
0000408278;7.2018;3.2537;-1.2881;0.1908;0.2118;-0.0713
0000408286;7.0557;3.3136;-1.2809;0.1772;0.2020;-0.0883
0000408297;6.9336;3.4069;-1.3671;0.1592;0.2006;-0.0919
0000408305;6.7947;3.4692;-1.3144;0.1635;0.1864;-0.0990
0000408317;6.8091;3.3878;-1.3240;0.1787;0.1619;-0.0945
0000408325;6.8139;3.3830;-1.4605;0.1923;0.1430;-0.0987
0000408336;6.8809;3.5698;-1.4341;0.2042;0.1306;-0.1083
0000408344;6.9887;3.6320;-1.3623;0.1965;0.1319;-0.1164
0000408352;6.9719;3.6655;-1.3072;0.1688;0.1402;-0.1218
0000408364;7.0174;3.5841;-1.1875;0.1258;0.1533;-0.1358
0000408372;7.1850;3.6536;-1.0846;0.0907;0.1840;-0.1447
0000408383;7.2999;3.5769;-0.9936;0.0695;0.2081;-0.1519
0000408391;7.4388;3.5961;-0.9984;0.0478;0.2342;-0.1434
0000408403;7.3143;3.1987;-1.1612;0.0413;0.2773;-0.1346
0000408411;7.4508;3.2250;-1.2306;0.0514;0.2862;-0.1350
0000408419;7.2305;3.3040;-1.2522;0.0586;0.2988;-0.1294
0000408430;7.0557;3.3112;-1.3120;0.0628;0.2920;-0.1242
0000408438;6.9432;3.4333;-1.3096;0.0490;0.2839;-0.1184
0000408450;6.8977;3.5985;-1.2857;0.0328;0.2646;-0.1251
0000408458;6.7445;3.5506;-1.2713;0.0253;0.2459;-0.1176
0000408469;6.4643;3.4979;-1.2354;0.0116;0.2260;-0.1108
0000408477;6.4284;3.5530;-1.1756;0.0000;0.2125;-0.0987
0000408545;6.5936;3.6200;-1.2546;-0.0294;0.0722;-0.1019
0000408553;6.1770;3.5841;-1.1444;-0.0269;0.0516;-0.1140
0000408561;6.2297;3.8786;-1.2378;-0.0460;0.0377;-0.1115
0000408572;6.1076;3.8571;-1.2761;-0.0765;0.0023;-0.1116
0000408580;6.2441;3.9217;-1.2809;-0.0999;-0.0148;-0.1011
0000408592;6.1172;3.5913;-1.2665;-0.1158;-0.0490;-0.0914
0000408600;6.1746;3.4692;-1.2833;-0.1359;-0.0614;-0.0755
0000408611;6.3087;3.1436;-1.2330;-0.1552;-0.0841;-0.0585
0000408619;6.3398;3.2801;-1.0630;-0.1580;-0.0967;-0.0444
0000408631;6.2991;3.1388;-1.1349;-0.1601;-0.1248;-0.0342
0000408639;6.3542;3.0765;-1.0654;-0.1671;-0.1270;-0.0272
0000408647;6.6607;3.2777;-1.0534;-0.1788;-0.1346;-0.0232
0000408658;6.6726;3.1891;-0.9649;-0.1857;-0.1442;-0.0123
0000408666;6.6343;3.2082;-0.9888;-0.1885;-0.1533;-0.0047
0000408678;6.6080;3.1891;-1.0534;-0.1837;-0.1725;0.0033
0000408686;6.7445;3.3878;-1.1540;-0.1820;-0.1759;0.0234
0000408697;6.4212;3.2441;-1.2641;-0.1792;-0.1849;0.0336
0000408705;6.6224;3.4213;-1.3144;-0.1921;-0.1851;0.0401
0000408717;6.4548;3.3160;-1.4054;-0.2158;-0.1969;0.0454
0000408725;6.4524;3.3423;-1.3120;-0.2310;-0.2074;0.0440
0000408736;6.5362;3.2848;-1.1444;-0.2336;-0.2264;0.0441
0000408744;6.5888;3.2753;-1.1181;-0.2352;-0.2340;0.0364
0000408752;6.7325;3.4117;-1.2641;-0.2254;-0.2370;0.0386
0000408820;6.7516;3.5961;-1.8938;-0.2831;-0.1912;0.0381
0000408828;6.6870;3.5458;-1.8627;-0.2999;-0.1839;0.0348
0000408839;6.5218;3.5721;-1.8124;-0.3234;-0.1747;0.0370
0000408847;6.3829;3.3998;-1.7765;-0.3159;-0.1787;0.0268
0000408859;6.4763;3.2968;-1.6759;-0.2959;-0.1780;0.0332
0000408867;6.5266;3.1173;-1.5586;-0.2785;-0.1633;0.0396
0000408878;6.7732;3.0095;-1.5969;-0.2385;-0.1518;0.0408
0000408886;6.8331;3.0023;-1.5634;-0.2112;-0.1447;0.0466
0000408894;6.9025;2.8491;-1.6735;-0.1965;-0.1207;0.0556
0000408906;7.1299;3.1915;-1.6424;-0.2005;-0.0849;0.0521
0000408914;6.9815;3.2537;-1.7310;-0.2045;-0.0594;0.0509
0000408925;6.7014;3.3327;-1.5275;-0.2316;-0.0119;0.0445
0000408933;6.7493;3.6009;-1.3479;-0.2410;0.0207;0.0449
0000408945;6.9192;3.6895;-0.9313;-0.2357;0.0312;0.0292
0000408953;7.0940;3.7302;-0.6153;-0.2301;0.0458;0.0199
0000408964;7.5465;3.6655;0.0527;-0.1869;0.0401;-0.0197
0000408972;7.7859;3.6631;0.1293;-0.1471;0.0446;-0.0600
0000408980;7.8697;3.6320;0.1221;-0.1220;0.0685;-0.0991
0000408992;7.6806;3.1891;0.2969;-0.0887;0.1170;-0.1591
0000409000;7.7021;3.1268;0.3735;-0.0799;0.1374;-0.1639
0000409012;7.4148;2.8898;0.8978;-0.0067;0.1366;-0.1524
0000409020;7.0150;3.0215;1.1612;0.0489;0.1256;-0.1427
0000409088;6.7995;3.6512;1.0846;0.1015;-0.2076;0.1579
0000409096;7.4124;3.3950;0.8739;0.0759;-0.2312;0.1780
0000409104;8.1259;3.2226;0.9026;0.0561;-0.2570;0.1743
0000409115;8.7652;2.7318;1.0534;0.0428;-0.2603;0.1661
0000409123;9.1219;2.4325;1.0918;0.0390;-0.2577;0.1416
0000409135;9.1554;2.0973;1.0582;0.0429;-0.2285;0.1026
0000409143;9.3757;1.9345;1.1205;0.0356;-0.1960;0.0750
0000409154;9.4954;2.0901;1.0989;0.0605;-0.1410;0.0348
0000409162;9.1578;1.8411;1.0127;0.0951;-0.1014;0.0101
0000409170;9.4355;2.2577;0.9936;0.1207;-0.0530;0.0057
0000409182;9.0621;2.5259;0.6416;0.1502;0.0165;0.0221
0000409190;9.1387;2.9042;0.4405;0.1571;0.0536;0.0437
0000409201;9.0980;3.4381;0.1484;0.1358;0.1191;0.0826
0000409209;8.8035;3.5698;-0.0479;0.1240;0.1533;0.1038
0000409221;8.4779;3.7014;-0.0814;0.1031;0.2198;0.1299
0000409229;8.4994;3.7613;0.0215;0.0898;0.2462;0.1416
0000409237;8.4060;3.7254;-0.0622;0.0766;0.2626;0.1491
0000409248;8.2624;3.5889;0.0694;0.0470;0.2890;0.1551
0000409256;8.4659;3.6057;0.1341;0.0349;0.3062;0.1560
0000409268;8.4539;3.5530;0.2394;0.0196;0.3144;0.1607
0000409276;8.0756;3.2010;0.2729;0.0085;0.3240;0.1688
0000409288;8.2193;3.1340;0.4166;0.0049;0.3316;0.1856
0000409296;8.0206;3.1436;0.4262;0.0123;0.3351;0.1928
0000409304;8.0086;2.9568;0.4286;0.0266;0.3387;0.2084
0000409372;8.3965;3.3974;0.1341;-0.0372;0.3114;0.1739
0000409380;8.2983;3.3088;0.1365;-0.0609;0.2998;0.1657
0000409391;8.1977;3.2753;0.2610;-0.0893;0.2817;0.1400
0000409399;8.1499;3.1532;0.1676;-0.0961;0.2703;0.1247
0000409411;8.0924;2.9018;0.2586;-0.1053;0.2557;0.0950
0000409419;8.0756;2.8156;0.1915;-0.0985;0.2403;0.0694
0000409427;7.9727;2.7342;0.1006;-0.0925;0.2234;0.0529
0000409438;8.1714;3.0143;0.0359;-0.0923;0.2080;0.0405
0000409446;8.0014;2.8802;-0.0048;-0.1065;0.1984;0.0321
0000409458;8.0397;3.2394;-0.1221;-0.1346;0.1840;0.0426
0000409466;8.1259;3.2872;-0.1006;-0.1478;0.1657;0.0417
0000409477;7.8793;3.1651;-0.1460;-0.1620;0.1446;0.0472
0000409485;7.9464;3.0574;-0.1221;-0.1720;0.1260;0.0469
0000409493;8.1379;2.9688;-0.0407;-0.1663;0.1104;0.0369
0000409505;8.1379;2.6983;-0.0886;-0.1608;0.0890;0.0151
0000409513;8.2600;2.6384;-0.0910;-0.1459;0.0861;-0.0040
0000409524;8.2744;2.6097;-0.2179;-0.1187;0.0777;-0.0390
0000409532;8.3749;2.6384;-0.2346;-0.0989;0.0678;-0.0628
0000409544;8.4060;2.9137;-0.3807;-0.0803;0.0652;-0.0865
0000409552;8.2959;2.7246;-0.5507;-0.0671;0.0564;-0.1061
0000409564;8.1355;2.8922;-0.5770;-0.0678;0.0574;-0.1195
0000409572;8.2121;3.0047;-0.5890;-0.0564;0.0545;-0.1303
0000409580;8.2983;3.1005;-0.6656;-0.0584;0.0494;-0.1479
0000409647;7.5824;3.0406;-0.1077;-0.0292;-0.1556;-0.2349
0000409655;7.5848;3.1077;-0.1173;-0.0337;-0.1831;-0.2517
0000409667;7.4819;3.0167;-0.1389;-0.0385;-0.2118;-0.2843
0000409675;7.5298;2.9928;-0.2107;-0.0394;-0.2272;-0.3103
0000409686;7.5824;2.7126;-0.4334;-0.0285;-0.2385;-0.3363
0000409694;8.0230;2.7270;-0.3615;-0.0061;-0.2350;-0.3417
0000409706;8.3438;2.3080;-0.4046;0.0762;-0.2406;-0.3409
0000409714;8.4420;2.1763;-0.4932;0.1685;-0.2405;-0.3565
0000409722;8.7532;2.2553;-0.4429;0.2635;-0.2188;-0.3817
0000409733;8.6622;2.9185;-0.2514;0.3738;-0.1819;-0.4407
0000409741;8.2696;3.7014;-0.1077;0.4130;-0.1439;-0.4820
0000409753;6.6128;5.3726;0.1317;0.3868;-0.1017;-0.4903
0000409761;5.5115;6.4979;0.5243;0.3379;-0.1537;-0.4286
0000409772;4.8985;7.8123;0.2897;0.2388;-0.2774;-0.2927
0000409780;4.9344;8.1810;0.1532;0.1981;-0.3853;-0.2136
0000409792;5.8562;7.9823;-0.0838;0.1864;-0.5458;-0.1324
0000409800;6.9887;6.8450;-0.2011;0.1740;-0.6480;-0.1328
0000409808;7.6447;5.7221;-0.1341;0.1302;-0.7105;-0.1639
0000409819;8.2959;3.7086;0.2993;0.0906;-0.7791;-0.2168
0000409827;8.7867;2.7916;0.7685;0.0905;-0.8112;-0.2370
0000409839;9.0621;1.4724;1.0295;0.1745;-0.8399;-0.2388
0000409847;9.0166;0.7997;1.0271;0.2433;-0.8460;-0.2352
0000409914;2.7485;3.3495;0.7542;0.0617;-0.8988;-0.1318
0000409922;2.9018;3.6775;0.7446;-0.0386;-1.0015;-0.0448
0000409934;3.6464;3.8259;0.5914;-0.1142;-1.1479;0.0292
0000409942;4.5849;3.8738;0.5674;-0.1029;-1.2101;0.0568
0000409950;5.2337;4.1084;0.5339;-0.0659;-1.2849;0.0633
0000409961;6.2752;4.5131;0.1604;-0.0425;-1.3534;0.0636
0000409969;6.8378;4.5586;0.0239;-0.0548;-1.3919;0.0290
0000409981;7.2496;4.4939;-0.2059;-0.1090;-1.4173;-0.0456
0000409989;7.1084;4.1420;-0.1628;-0.1250;-1.4083;-0.1014
0000410000;6.6798;3.5410;-0.1700;-0.1140;-1.4248;-0.1736
0000410008;6.3758;3.3016;-0.0670;-0.0771;-1.4328;-0.1952
0000410020;5.9376;2.8180;0.0910;0.0220;-1.4839;-0.2300
0000410028;5.6575;2.7031;0.0503;0.0789;-1.5152;-0.2320
0000410036;5.5617;2.8946;0.0790;0.1171;-1.5394;-0.2112
0000410047;5.7150;3.1364;-0.1604;0.1525;-1.5813;-0.1776
0000410055;6.0118;3.4955;-0.5435;0.1504;-1.5929;-0.1462
0000410067;6.2991;3.7709;-0.8787;0.1051;-1.5823;-0.0921
0000410075;6.5027;3.7924;-0.9457;0.0470;-1.5603;-0.0687
0000410086;6.6032;3.6152;-0.7997;-0.0314;-1.5327;-0.0682
0000410094;6.9384;3.6559;-0.6536;-0.0835;-1.5178;-0.0650
0000410106;6.7924;3.5219;-0.4166;-0.1222;-1.5043;-0.0813
0000410114;7.0198;3.4692;-0.4501;-0.1294;-1.4997;-0.1005
0000410122;6.7301;3.2417;-0.4836;-0.1211;-1.4929;-0.1162
0000410189;5.6647;3.3734;-0.9984;-0.1848;-1.5703;-0.0136
0000410197;5.9065;3.4117;-1.0726;-0.1867;-1.5894;0.0155
0000410209;6.2608;3.5650;-1.1013;-0.1727;-1.6257;0.0396
0000410217;6.5553;3.5674;-1.2689;-0.1484;-1.6473;0.0432
0000410228;6.9001;3.3543;-1.3072;-0.1312;-1.6427;0.0572
0000410236;7.4460;3.5027;-1.2977;-0.1186;-1.6274;0.0725
0000410248;7.7117;3.4261;-1.3791;-0.1219;-1.5639;0.1035
0000410256;8.0325;3.5195;-1.4533;-0.1467;-1.5228;0.1115
0000410264;7.9942;3.3447;-1.3001;-0.1680;-1.4867;0.1099
0000410275;7.6112;3.0933;-1.3072;-0.1932;-1.4258;0.1058
0000410283;7.2401;2.9544;-1.1732;-0.1956;-1.3859;0.1099
0000410295;7.1802;2.7078;-1.0846;-0.1756;-1.3328;0.1211
0000410303;7.1156;2.6240;-0.9313;-0.1498;-1.3185;0.1211
0000410314;6.9839;2.7294;-1.0199;-0.1130;-1.2833;0.1322
0000410322;6.9121;2.7964;-0.9601;-0.0885;-1.2580;0.1380
0000410334;7.0174;3.1268;-1.0989;-0.0823;-1.2028;0.1412
0000410342;7.1156;3.3040;-1.0774;-0.0865;-1.1527;0.1454
0000410350;7.2999;3.3758;-1.1564;-0.0889;-1.1092;0.1504
0000410361;7.5178;3.4405;-0.9816;-0.1065;-1.0263;0.1551
0000410369;7.6255;3.3016;-1.1013;-0.1227;-0.9531;0.1641
0000410381;7.8650;3.1101;-0.9625;-0.1387;-0.8548;0.1563
0000410389;7.7476;2.9209;-0.8212;-0.1424;-0.7922;0.1412
0000410456;6.8307;3.0382;-1.2139;-0.1179;-0.6117;-0.0068
0000410464;6.6918;2.7222;-1.2139;-0.0898;-0.5882;-0.0031
0000410476;6.4189;2.3774;-1.1684;-0.0257;-0.5701;0.0104
0000410484;6.4620;2.2649;-1.2594;0.0080;-0.5597;0.0340
0000410492;6.3303;2.1165;-1.4916;0.0313;-0.5528;0.0537
0000410503;6.1938;1.8842;-1.8052;0.0578;-0.5529;0.1086
0000410511;5.9903;1.6568;-1.7142;0.0581;-0.5582;0.1495
0000410523;5.8035;1.7071;-1.6017;0.0638;-0.5513;0.2042
0000410531;5.6455;1.7717;-1.6209;0.0746;-0.5568;0.2380
0000410542;5.7557;2.3415;-0.7494;0.0662;-0.5744;0.2950
0000410550;6.0071;3.1340;-0.0311;0.0456;-0.5846;0.3304
0000410562;7.3789;4.3000;0.9744;-0.0822;-0.6177;0.3485
0000410570;8.9519;5.0661;1.5131;-0.1871;-0.6261;0.2870
0000410578;10.3621;5.8131;1.6999;-0.2514;-0.6214;0.1687
0000410589;11.7364;6.1794;1.5730;-0.2979;-0.5359;-0.0152
0000410597;12.0452;6.3279;1.1899;-0.2942;-0.4382;-0.1370
0000410609;10.4746;5.1715;0.9290;-0.2858;-0.2855;-0.2062
0000410617;8.9807;4.4508;1.0654;-0.2882;-0.2096;-0.1928
0000410628;7.0581;3.1580;1.2426;-0.2948;-0.1759;-0.1641
0000410636;5.0925;2.3296;1.5179;-0.2601;-0.2030;-0.1564
0000410648;3.5027;2.2841;1.9489;-0.1368;-0.3134;-0.0959
0000410656;3.1196;2.5786;1.8387;-0.0169;-0.4163;-0.0253
0000410664;3.7014;3.4500;1.5538;0.0891;-0.5080;0.0738
0000410731;10.9008;2.8491;-0.0144;-0.2042;-0.4530;0.1100
0000410739;10.6207;2.5307;0.3304;-0.2194;-0.4094;0.0758
0000410751;9.8761;2.0518;0.5076;-0.2196;-0.3320;0.0577
0000410759;9.2871;1.7837;0.5267;-0.1829;-0.2840;0.0361
0000410770;8.8729;1.6544;0.6800;-0.0947;-0.2038;0.0305
0000410778;8.7652;1.7885;0.6584;-0.0083;-0.1628;0.0208
0000410790;8.7795;1.9992;0.3017;0.1022;-0.1005;0.0101
0000410798;8.9543;2.4636;0.0383;0.1531;-0.0601;-0.0065
0000410806;8.9974;2.5331;-0.2634;0.1695;-0.0033;-0.0091
0000410817;9.1147;3.2394;-0.3543;0.1480;0.0878;0.0061
0000410825;8.7460;3.4812;-0.4860;0.1143;0.1616;0.0326
0000410837;8.3103;3.8762;-0.5171;0.0512;0.2538;0.0769
0000410845;8.3510;4.1180;-0.5315;0.0254;0.3111;0.1092
0000410856;8.2552;3.9983;-0.4573;0.0028;0.3701;0.1264
0000410864;8.5281;3.9025;-0.5267;-0.0242;0.3961;0.1236
0000410872;8.6455;3.8355;-0.3663;-0.0352;0.4186;0.1299
0000410884;9.0860;3.4884;-0.1532;-0.0433;0.4218;0.1310
0000410892;9.0860;3.2202;0.0407;-0.0536;0.4178;0.1172
0000410903;8.7532;2.9281;0.1460;-0.0469;0.3902;0.0659
0000410911;8.2145;2.8491;0.2227;-0.0416;0.3712;0.0172
0000410923;7.6830;2.8132;0.3304;-0.0242;0.3142;-0.0440
0000410931;7.5944;2.9975;0.3065;-0.0269;0.2677;-0.0714
0000410939;7.4244;3.0335;0.2897;-0.0261;0.2181;-0.0874
0000411007;7.9535;3.2417;-0.2107;-0.1146;0.1182;-0.0609
0000411015;8.0900;3.1053;-0.1077;-0.1211;0.1152;-0.0799
0000411026;7.8865;2.6815;0.0934;-0.1182;0.1041;-0.0895
0000411034;7.8865;2.3248;0.2753;-0.0997;0.0799;-0.0985
0000411046;7.7788;1.8364;0.3112;-0.0638;0.0457;-0.0997
0000411054;7.6495;1.3216;0.3065;-0.0228;0.0053;-0.1041
0000411065;7.5776;1.2761;0.2035;0.0394;-0.0257;-0.0875
0000411073;7.7476;1.3695;0.2035;0.0938;-0.0549;-0.0899
0000411081;7.5010;1.5706;0.1628;0.1308;-0.0755;-0.0827
0000411093;7.8290;2.0231;-0.1532;0.1603;-0.1022;-0.0883
0000411101;7.9511;2.3415;-0.2873;0.1480;-0.1030;-0.0921
0000411112;8.3342;2.9425;-0.3328;0.1199;-0.1100;-0.1102
0000411120;8.3701;3.1292;-0.2298;0.0846;-0.1007;-0.1135
0000411132;8.6455;3.0742;-0.2490;0.0429;-0.0746;-0.1183
0000411140;8.6550;2.7892;-0.2466;0.0364;-0.0510;-0.1120
0000411151;8.6119;2.5211;-0.0958;0.0626;-0.0125;-0.0933
0000411159;8.2073;2.1859;-0.1389;0.0939;0.0077;-0.0834
0000411167;7.8171;2.0901;-0.0551;0.1374;0.0221;-0.0745
0000411179;7.6662;2.4660;-0.1125;0.1708;0.0417;-0.0666
0000411187;7.8650;2.6408;-0.1508;0.1812;0.0404;-0.0790
0000411251;7.6806;1.6759;-0.3687;0.1617;0.0911;-0.1660
0000411259;7.3023;1.6951;-0.4046;0.2213;0.0762;-0.1811
0000411271;6.8378;2.4469;-0.5770;0.2669;0.0337;-0.2338
0000411279;6.9336;3.0813;-0.9242;0.2434;0.0133;-0.2798
0000411287;7.1515;3.6009;-1.1684;0.1857;-0.0019;-0.3224
0000411298;7.6160;3.6320;-1.2929;0.0629;-0.0076;-0.3697
0000411306;8.1570;3.4165;-1.0965;-0.0237;-0.0056;-0.3765
0000411318;8.3869;2.5690;-0.6464;-0.1014;0.0244;-0.3672
0000411326;8.5665;2.0997;-0.5028;-0.1200;0.0577;-0.3461
0000411337;8.6742;1.5634;-0.3591;-0.0999;0.0847;-0.3150
0000411345;8.7676;1.4198;-0.5100;-0.0561;0.0957;-0.3015
0000411357;8.6431;1.1899;-0.7039;0.0128;0.1296;-0.2719
0000411365;8.5688;1.1708;-0.7614;0.0648;0.1422;-0.2557
0000411373;8.3486;1.2833;-0.8619;0.0990;0.1753;-0.2415
0000411384;7.9487;1.2977;-1.1037;0.1075;0.2005;-0.2245
0000411392;7.5417;1.1516;-1.3958;0.0955;0.2096;-0.2068
0000411404;7.1874;0.6488;-1.5802;0.0722;0.2054;-0.1812
0000411412;6.9145;0.3807;-1.4988;0.0755;0.1917;-0.1612
0000411423;6.6032;-0.1580;-1.1229;0.1107;0.1468;-0.1460
0000411431;6.4979;-0.2849;-0.9888;0.1416;0.1096;-0.1410
0000411443;6.1507;-0.6871;-0.7973;0.1903;0.0376;-0.1404
0000411451;6.1555;-0.8356;-0.5938;0.2164;-0.0073;-0.1440
0000411459;7.1611;-0.3184;0.0096;0.2386;-0.0484;-0.1288
0000411526;2.0997;10.4531;6.2489;-0.4525;-0.2134;0.2029
0000411534;-1.6831;15.3444;3.6105;-0.2923;-0.2707;0.4458
0000411546;-0.9050;17.9086;-4.6759;-0.0687;-0.5127;0.7373
0000411554;5.4300;12.6127;-4.7070;-0.5168;-0.7164;0.3191
0000411565;10.5536;6.1100;0.5483;-0.6323;-0.7553;-0.2609
0000411573;12.5672;2.1811;1.3072;-0.3853;-0.6639;-0.4878
0000411585;13.4650;-0.2083;1.2067;0.2066;-0.4285;-0.5576
0000411593;12.5863;0.0742;0.6967;0.6614;-0.2743;-0.5103
0000411604;10.4818;3.1987;0.3089;1.1146;-0.0536;-0.3981
0000411612;7.7931;6.5793;-0.5938;1.2113;0.0729;-0.2817
0000411620;5.3989;10.0580;-2.6839;1.0345;0.1613;-0.1599
0000411632;3.7182;13.5464;-4.4293;0.4375;0.2423;0.0033
0000411640;3.0981;13.4530;-4.4484;0.0721;0.2665;0.0985
0000411651;3.6966;10.4579;-3.3782;-0.2250;0.1955;0.1061
0000411659;4.4269;8.0685;-2.2984;-0.3110;0.1403;-0.0035
0000411671;5.1404;5.4492;-0.7398;-0.2731;0.0737;-0.2502
0000411679;5.4324;4.4700;-0.3615;-0.2543;0.0441;-0.3873
0000411687;6.2321;3.9840;-0.1413;-0.2403;-0.0016;-0.4557
0000411698;7.1970;3.4620;-0.2442;-0.2034;-0.0470;-0.4306
0000411706;7.7333;3.1268;-0.3567;-0.1637;-0.0498;-0.3761
0000411718;7.9152;2.8922;-0.6440;-0.1204;0.0314;-0.2866
0000411726;7.7357;2.9066;-0.7326;-0.1062;0.0958;-0.2467
0000411793;5.9520;2.3439;-0.2610;-0.0765;0.4838;-0.1592
0000411801;5.8323;2.1620;-0.3855;-0.0502;0.5161;-0.0749
0000411813;5.9017;1.9992;-0.5602;-0.0212;0.5380;0.0461
0000411821;6.1459;2.2146;-0.7111;-0.0328;0.5435;0.1091
0000411832;6.2441;2.1739;-0.6560;-0.1023;0.5553;0.1661
0000411840;5.9951;1.9321;-0.5794;-0.1725;0.5352;0.1609
0000411848;6.1028;1.8316;-0.5650;-0.2447;0.5057;0.1603
0000411860;5.8347;1.4389;-0.2179;-0.3264;0.4405;0.1178
0000411868;5.6096;1.0534;0.1437;-0.3380;0.3753;0.0995
0000411879;5.4229;0.6416;0.4118;-0.2990;0.2789;0.1041
0000411887;5.2241;0.3615;0.5004;-0.2302;0.2081;0.1318
0000411899;4.7453;0.3663;0.5243;-0.0731;0.1046;0.1845
0000411907;4.5059;0.3519;0.1963;0.0588;0.0437;0.2280
0000411915;4.2952;0.6153;0.0096;0.1832;-0.0067;0.2807
0000411926;4.5203;1.0151;-0.4310;0.3052;-0.0763;0.3419
0000411934;4.7573;1.5131;-0.6512;0.3327;-0.1057;0.3880
0000411946;5.1188;2.1308;-1.1229;0.3019;-0.1475;0.4303
0000411954;5.3199;2.3727;-1.3862;0.2346;-0.1688;0.4430
0000411965;5.3343;2.6815;-1.5586;0.1151;-0.2068;0.4521
0000411973;5.0206;2.4014;-1.3575;0.0196;-0.2248;0.4557
0000411981;4.7238;2.1069;-1.2785;-0.0381;-0.2695;0.4414
0000411993;4.4317;1.6257;-1.0151;-0.0682;-0.3624;0.4086
0000412001;4.4365;1.3048;-0.9625;-0.0630;-0.4333;0.3920
0000412068;5.3247;2.9401;-1.1468;-0.0695;-1.0543;0.0361
0000412076;5.4157;3.1508;-1.0271;-0.1227;-1.1058;0.0028
0000412088;5.1787;3.0694;-0.9960;-0.1856;-1.1699;-0.0430
0000412096;5.0973;3.0358;-1.0199;-0.2117;-1.2140;-0.0747
0000412107;5.3606;2.9473;-0.9385;-0.2442;-1.2598;-0.0901
0000412115;5.3415;2.5091;-0.7422;-0.2494;-1.2855;-0.0862
0000412123;5.4396;2.0494;-0.8619;-0.2461;-1.2950;-0.0797
0000412135;5.2409;1.3312;-0.8906;-0.1819;-1.3288;-0.0500
0000412143;5.5330;1.1325;-0.8739;-0.1187;-1.3508;-0.0081
0000412154;5.7245;1.2689;-0.7805;-0.0216;-1.3800;0.0950
0000412162;5.5282;1.4317;-0.8763;0.0242;-1.3913;0.2028
0000412174;5.4492;1.8938;-0.9457;0.0005;-1.4154;0.3724
0000412182;5.5833;2.2218;-0.9792;-0.0634;-1.4529;0.4547
0000412193;5.3558;2.2314;-0.8356;-0.1743;-1.5039;0.5423
0000412201;5.0757;2.1332;-0.0790;-0.2294;-1.5323;0.5556
0000412213;4.2138;2.2266;0.7805;-0.3044;-1.5500;0.5260
0000412221;4.2234;2.0207;0.8739;-0.3564;-1.5436;0.4804
0000412229;5.0111;1.7478;0.9792;-0.3762;-1.5636;0.4086
0000412240;7.6878;2.2482;1.1396;-0.3473;-1.5310;0.2630
0000412248;9.6223;3.1053;1.4341;-0.2821;-1.4795;0.1352
0000412260;13.3429;6.2848;4.3479;-0.1779;-1.2898;-0.0428
0000412268;16.5775;10.4267;6.2920;-0.0526;-1.1130;-0.1668
0000412336;1.8435;4.3335;-0.9960;0.7621;-0.2553;0.5548
0000412344;3.5578;5.6790;-0.8499;0.7581;-0.3480;0.4309
0000412352;5.7365;7.2616;-1.4796;0.6676;-0.4485;0.3495
0000412363;9.4308;8.6910;-2.4469;0.3425;-0.5681;0.2960
0000412371;11.1905;8.6598;-2.4972;0.1336;-0.5966;0.2016
0000412383;12.3756;7.4196;-1.7693;-0.0329;-0.5462;0.0552
0000412391;12.6845;6.4428;-1.4030;-0.1103;-0.4513;-0.0061
0000412403;12.3517;5.0278;-0.9768;-0.1499;-0.2541;-0.0598
0000412411;11.7699;4.4508;-0.8092;-0.1319;-0.1162;-0.0691
0000412423;10.5800;3.9265;-0.3591;-0.0504;0.0609;-0.0590
0000412431;9.8138;3.7613;-0.4286;0.0069;0.1541;-0.0453
0000412442;8.2768;3.4213;-0.7614;0.0320;0.2753;-0.0209
0000412450;7.6998;3.1795;-0.6369;0.0191;0.3380;-0.0019
0000412458;7.3047;2.7509;-0.4405;0.0053;0.3817;0.0228
0000412470;7.4340;2.3200;-0.0838;0.0073;0.4128;0.0629
0000412478;7.4939;2.1045;0.1197;0.0163;0.4246;0.0833
0000412490;8.2073;2.2098;0.1125;0.0336;0.4213;0.1114
0000412498;8.6287;2.1715;0.0886;0.0425;0.4129;0.1331
0000412510;8.9543;2.0853;0.1173;0.0849;0.4126;0.1793
0000412518;8.9663;2.0662;0.0024;0.1150;0.4139;0.2016
0000412526;8.7005;1.9441;-0.0024;0.1476;0.4120;0.1940
0000412538;8.4108;1.9920;-0.0718;0.1801;0.4072;0.1310
0000412546;8.2265;2.1356;-0.1604;0.2016;0.4036;0.0661
0000412614;7.7117;2.0399;-0.2322;-0.0281;0.3752;-0.1322
0000412622;7.9583;2.1811;-0.1891;-0.0172;0.3836;-0.1138
0000412634;8.1451;2.2553;-0.1245;0.0104;0.3976;-0.1021
0000412642;8.2720;2.2865;-0.3089;0.0292;0.4177;-0.0934
0000412650;8.3199;2.1356;-0.4357;0.0509;0.4419;-0.0897
0000412662;8.3366;1.8076;-0.5124;0.0849;0.4826;-0.0946
0000412670;8.1762;1.4461;-0.6177;0.1037;0.5067;-0.1006
0000412682;7.7548;1.1301;-0.3543;0.1091;0.5473;-0.0974
0000412690;7.6231;0.7518;-0.3017;0.1163;0.5586;-0.0917
0000412702;8.0086;0.8140;-0.6273;0.1254;0.5522;-0.0911
0000412710;8.0469;0.7590;-0.7135;0.1396;0.5393;-0.0986
0000412718;8.4946;1.0008;-0.8835;0.1484;0.5176;-0.1070
0000412730;8.6862;1.3024;-1.0151;0.1760;0.4832;-0.1491
0000412738;8.4491;1.1923;-1.6113;0.1905;0.4576;-0.1819
0000412750;8.3246;1.6999;-1.9465;0.2114;0.4265;-0.2226
0000412758;8.0421;1.8387;-1.9393;0.2342;0.3996;-0.2312
0000412770;7.6279;2.5043;-1.8723;0.2677;0.3584;-0.2309
0000412778;7.3981;3.1029;-1.9656;0.2649;0.3392;-0.2146
0000412790;7.0749;3.8355;-2.0231;0.2181;0.3058;-0.1696
0000412798;7.2951;4.1946;-2.2458;0.1478;0.2806;-0.1478
0000412806;7.4412;4.1539;-2.3248;0.0601;0.2661;-0.1330
0000412818;7.3789;3.4213;-2.1356;-0.0502;0.2385;-0.1419
0000412826;7.4675;3.0406;-1.9872;-0.0655;0.2194;-0.1588
0000412894;6.9863;2.8276;-1.4581;0.1250;-0.1182;-0.3254
0000412902;7.3023;3.2681;-1.5371;0.0767;-0.1665;-0.3675
0000412914;7.4891;2.8539;-1.4341;-0.0238;-0.2184;-0.3801
0000412922;7.6830;2.3535;-1.3743;-0.0746;-0.2398;-0.3714
0000412934;7.9583;1.7573;-1.3623;-0.0802;-0.2649;-0.3385
0000412942;7.8386;1.4700;-1.1803;-0.0638;-0.2670;-0.3138
0000412950;7.8626;1.5203;-1.2953;-0.0410;-0.2775;-0.2946
0000412962;7.6423;1.4557;-1.1588;0.0060;-0.2948;-0.2778
0000412970;7.8721;1.8507;-0.7685;0.0101;-0.2996;-0.2562
0000412982;8.1499;2.1572;-0.6129;-0.0328;-0.2679;-0.2395
0000412990;8.3462;2.4014;-0.6728;-0.1053;-0.2289;-0.2318
0000413002;8.2648;1.8244;-0.7901;-0.2073;-0.1483;-0.1900
0000413010;8.2696;1.2713;-1.0702;-0.2479;-0.1215;-0.1428
0000413022;8.4060;0.7829;-0.9385;-0.2553;-0.0871;-0.0621
0000413030;8.5808;0.8356;0.3041;-0.2012;-0.0520;-0.0418
0000413042;7.8650;3.1819;7.4460;0.0131;0.0199;-0.0320
0000413050;6.0094;6.5505;7.9368;0.0103;-0.0103;0.0384
0000413058;1.1372;10.9032;1.0918;-0.3120;-0.0200;0.2852
0000413070;-8.2791;18.3827;-0.8021;-0.1320;-0.0969;1.2882
0000413078;0.0982;15.5336;-4.3622;-0.2762;-0.3817;1.2963
0000413090;10.9439;8.7412;-0.4501;-0.8583;-0.4982;0.1596
0000413098;14.7962;4.8411;0.3807;-0.7689;-0.6022;-0.3028
0000413166;1.6999;14.4777;-3.4069;0.2550;0.7926;0.1386
0000413175;2.0207;14.1402;-4.0294;-0.2998;0.7429;0.2457
0000413188;4.5514;9.2416;-2.0925;-0.7564;0.5800;0.0819
0000413197;5.1882;5.4468;-0.0742;-0.6406;0.5059;-0.0522
0000413206;5.8442;2.6983;0.6991;-0.4030;0.4688;-0.1438
0000413219;6.6798;1.6017;1.1157;-0.1306;0.4090;-0.1919
0000413228;7.7692;1.7262;0.3136;-0.0141;0.3463;-0.1619
0000413240;8.9567;2.1955;-0.3950;0.0293;0.3379;-0.0962
0000413249;9.2249;2.2386;-0.7709;0.0001;0.4098;-0.0863
0000413262;8.0637;2.4349;-0.8188;-0.1356;0.5572;-0.0946
0000413271;7.0366;2.5618;-0.5291;-0.1852;0.6237;-0.1058
0000413280;6.1124;2.5067;0.0215;-0.1755;0.6587;-0.1368
0000413293;5.6790;2.6240;0.2035;-0.0873;0.6674;-0.1700
0000413302;5.3798;2.3966;0.1748;-0.0011;0.6554;-0.1664
0000413315;5.5043;2.3966;0.1389;0.0747;0.6211;-0.1025
0000413324;5.6000;2.2960;-0.0694;0.0870;0.5931;-0.0184
0000413337;6.0741;2.3080;-0.3352;0.1178;0.5693;0.1263
0000413346;6.3566;2.2889;-0.6177;0.1206;0.5730;0.2018
0000413359;6.6750;2.2649;-0.9768;0.0400;0.5971;0.2535
0000413368;6.6798;2.3128;-0.9529;-0.0602;0.6027;0.2380
0000413377;6.5122;2.3128;-0.6919;-0.1683;0.5959;0.2073
0000413390;5.9927;1.7957;-0.3184;-0.3082;0.5486;0.1246
0000413399;5.7365;1.5586;0.0168;-0.3408;0.4874;0.0597
0000413468;5.3582;1.7933;-0.5459;0.1864;-0.1427;0.1404
0000413477;5.5809;2.1835;-0.8691;0.1504;-0.1799;0.1779
0000413490;5.9065;2.5450;-1.1636;0.0719;-0.2333;0.2050
0000413499;5.7724;2.4086;-1.0343;0.0193;-0.2389;0.2217
0000413508;5.7030;2.3104;-1.0175;-0.0197;-0.2606;0.2205
0000413521;5.7389;1.9154;-1.1109;-0.0614;-0.3052;0.2152
0000413530;6.0430;1.4365;-1.3144;-0.0636;-0.3267;0.2102
0000413543;6.4931;0.8452;-0.9481;-0.0023;-0.3621;0.1829
0000413552;6.7397;0.5411;-0.6800;0.0695;-0.3732;0.1723
0000413565;6.8881;0.3136;-0.8212;0.1691;-0.4034;0.1388
0000413574;7.0509;0.3352;-1.0582;0.2198;-0.4203;0.1226
0000413587;6.6702;0.6177;-0.9002;0.2459;-0.4175;0.1255
0000413596;6.2058;1.0918;-1.1205;0.2657;-0.4227;0.1435
0000413605;5.5522;1.6520;-1.3144;0.2443;-0.4090;0.2026
0000413618;4.8794;2.2625;-1.4844;0.1857;-0.4133;0.2883
0000413627;4.9488;2.3008;-1.4605;0.1231;-0.4319;0.3268
0000413640;5.2625;2.3296;-1.3862;0.0281;-0.4666;0.3647
0000413649;5.5426;1.9417;-1.3479;-0.0281;-0.4846;0.3808
0000413662;6.1028;1.2857;-1.2522;-0.0686;-0.5193;0.3841
0000413671;6.6248;1.1660;-1.0965;-0.0882;-0.5383;0.3806
0000413684;6.7445;0.7422;-0.8284;-0.0798;-0.5736;0.3702
0000413693;6.6726;0.6991;-0.7805;-0.0663;-0.6138;0.3515
0000413702;6.3231;0.8811;-0.4405;-0.0538;-0.6486;0.3501
0000413771;8.3917;6.9001;5.3510;-0.2515;-0.9677;0.0540
0000413780;12.6318;10.8170;10.9942;-0.2132;-0.9515;-0.1100
0000413796;21.9046;15.5049;-5.3965;-0.1188;-0.7939;-0.8577
0000413805;13.5512;12.9239;-4.7118;-0.5764;-0.4483;-0.5323
0000413818;3.7134;6.6990;-0.4022;-0.7821;-0.3230;0.1583
0000413827;0.8380;4.1515;0.5770;-0.3844;-0.4062;0.2940
0000413839;2.6767;3.9863;0.5650;0.3392;-0.6496;0.1490
0000413848;5.5713;6.2177;-0.0503;0.6800;-0.7809;-0.0104
0000413857;8.9711;9.9503;-1.2761;0.7004;-0.8107;-0.1203
0000413870;12.9143;13.1154;-3.5865;0.1459;-0.7048;-0.2304
0000413879;14.1521;12.8018;-3.1484;-0.3008;-0.5324;-0.2478
0000413891;14.0204;9.4188;-1.8268;-0.6243;-0.2337;-0.2250
0000413900;13.4674;6.4117;-0.7566;-0.6022;0.0069;-0.1817
0000413913;11.8393;3.3303;0.4956;-0.3348;0.3187;-0.0457
0000413922;10.6877;2.4804;0.9625;-0.1122;0.4566;0.1079
0000413934;9.2392;2.9066;0.8906;0.1436;0.5778;0.2777
0000413943;8.4946;3.9792;0.0503;0.2587;0.6426;0.2851
0000413952;7.2856;4.5250;-0.8619;0.2106;0.6530;0.2626
0000414021;8.5641;0.4262;0.5219;0.1303;0.2305;0.1031
0000414030;8.9735;0.6895;0.2993;0.1769;0.2153;0.1077
0000414042;9.1459;0.9026;-0.0431;0.1879;0.2284;0.0817
0000414051;8.8250;0.9457;-0.1317;0.1952;0.2485;0.0361
0000414064;7.5561;1.2354;-0.5411;0.2069;0.2785;-0.0380
0000414073;6.6655;1.5921;-0.6584;0.1748;0.2731;-0.0718
0000414082;5.9759;1.8675;-0.8835;0.0970;0.2679;-0.0550
0000414094;5.7724;2.3152;-1.1037;-0.0197;0.2529;-0.0065
0000414103;6.2321;2.4493;-1.0965;-0.1172;0.2727;0.0462
0000414116;7.4915;2.3870;-0.8882;-0.1739;0.2762;0.0813
0000414125;8.3582;2.3798;-0.5219;-0.1576;0.2625;0.0698
0000414137;8.7221;2.2386;-0.1508;-0.0717;0.2533;0.0041
0000414146;8.7412;2.3296;-0.2322;-0.0051;0.2469;-0.0677
0000414159;8.5569;2.9449;-0.3208;0.1094;0.2360;-0.2097
0000414168;8.3222;3.1891;-0.4142;0.1833;0.2332;-0.3090
0000414177;8.1116;3.3136;-0.5842;0.2082;0.2597;-0.3702
0000414189;8.1427;3.4884;-0.9912;0.1705;0.2907;-0.4116
0000414198;8.0445;3.3255;-0.8164;0.1017;0.3080;-0.3896
0000414211;8.2408;2.6719;-0.6991;0.0176;0.3271;-0.3299
0000414220;8.0900;2.1165;-0.5291;-0.0013;0.3477;-0.2602
0000414232;8.1570;1.4341;-0.3615;0.0438;0.3669;-0.1791
0000414241;8.3438;1.1588;-0.4118;0.1011;0.3802;-0.1258
0000414250;8.4731;1.0582;-0.3352;0.1691;0.3784;-0.1131
0000414319;7.7476;1.1420;-0.8882;0.1555;0.2494;-0.2613
0000414328;6.9935;1.0439;-0.8619;0.1176;0.1924;-0.2407
0000414340;7.0390;1.0558;-1.0343;0.0851;0.1236;-0.2141
0000414349;6.5266;0.5866;-1.1564;0.0835;0.0723;-0.1696
0000414362;5.7197;0.2370;-1.3240;0.0975;-0.0374;-0.0557
0000414371;5.2792;0.1700;-1.3934;0.1081;-0.1306;0.0546
0000414383;5.3415;-0.1556;-1.3503;0.0989;-0.2879;0.1743
0000414392;5.5785;-0.3400;-1.4006;0.1077;-0.4157;0.2044
0000414401;6.2848;-0.3759;-1.1708;0.1280;-0.5003;0.1899
0000414414;7.1563;-0.7183;-1.0439;0.1687;-0.5629;0.0863
0000414423;7.5489;-0.9002;-1.3288;0.1560;-0.5576;0.0031
0000414435;8.1666;-1.0008;-1.4868;0.1671;-0.5333;-0.1058
0000414444;8.4635;-0.8763;-1.2522;0.1945;-0.5168;-0.1628
0000414457;8.7819;-0.3903;-1.2450;0.2835;-0.5073;-0.2341
0000414466;8.9926;0.0431;-1.5897;0.3387;-0.4903;-0.2860
0000414478;9.1674;0.4214;-1.8914;0.3793;-0.4494;-0.3256
0000414487;9.0501;0.7446;-1.5107;0.3913;-0.3948;-0.3102
0000414496;9.3781;1.4676;-1.1947;0.4054;-0.3495;-0.2894
0000414509;9.1626;2.8299;-0.7446;0.2920;-0.2250;-0.2443
0000414518;7.9200;3.6200;-0.8619;0.1264;-0.1438;-0.1964
0000414530;5.9041;5.1619;-0.5028;-0.0821;-0.1298;-0.0731
0000414539;4.1420;6.1675;-0.1293;-0.1860;-0.1621;0.0637
0000414608;11.9662;6.0454;-1.1325;-0.2819;-1.0789;0.2372
0000414617;13.6685;3.8020;0.5411;-0.0088;-0.9013;-0.0492
0000414629;13.8744;4.1108;-0.3208;0.5312;-0.5834;-0.2459
0000414638;12.9550;6.3135;-1.9178;0.7999;-0.3704;-0.2739
0000414651;10.4651;9.3853;-3.3471;0.6155;-0.0727;-0.2445
0000414660;7.7333;11.0253;-3.7230;0.2226;0.1398;-0.2090
0000414669;5.7269;11.3940;-3.4907;-0.1720;0.3124;-0.0998
0000414681;5.0039;9.9982;-2.3463;-0.4339;0.3717;0.0421
0000414690;5.1020;8.2696;-1.5969;-0.4838;0.3114;0.0759
0000414703;5.3702;6.1699;-0.7997;-0.4922;0.2061;0.0049
0000414712;5.7413;5.0613;-0.5052;-0.4804;0.1460;-0.0819
0000414724;6.0094;3.7302;-0.4022;-0.4683;0.0405;-0.1990
0000414733;6.7062;3.0287;-0.2514;-0.4366;-0.0302;-0.2534
0000414746;7.8075;2.0423;-0.1413;-0.3126;-0.1160;-0.2900
0000414755;8.0086;1.5706;-0.0215;-0.1753;-0.1652;-0.2852
0000414764;8.4084;1.5012;-0.0814;-0.0509;-0.1697;-0.2369
0000414776;8.7029;1.8962;-0.1389;0.0558;-0.1136;-0.1880
0000414785;8.6670;2.4924;-0.3232;0.0757;-0.0338;-0.1787
0000414798;8.2744;3.2154;-0.6536;-0.0136;0.1358;-0.1728
0000414807;7.5417;3.4429;-1.0104;-0.1234;0.2466;-0.1795
0000414819;6.7971;3.1244;-1.2354;-0.3024;0.3656;-0.1701
0000414828;6.6535;2.5809;-1.0343;-0.4054;0.4202;-0.1619
0000414897;6.7564;0.9194;-0.2897;-0.3539;0.3078;0.0596
0000414906;6.6511;0.7230;-0.1269;-0.3485;0.2677;0.0497
0000414915;6.7373;0.8140;-0.1293;-0.3158;0.2321;0.0465
0000414927;6.7038;0.8045;-0.3591;-0.2000;0.1861;0.0334
0000414936;7.0342;1.2330;-0.4549;-0.0957;0.1636;0.0312
0000414949;7.3023;1.8459;-0.8835;-0.0208;0.1536;0.0512
0000414958;7.5561;2.3176;-1.3072;-0.0396;0.1637;0.0546
0000414970;7.5513;2.8850;-1.5562;-0.1498;0.1859;0.0709
0000414979;7.2089;3.0718;-1.6903;-0.2559;0.1978;0.0885
0000414992;6.4667;2.5642;-1.4916;-0.3364;0.1716;0.1158
0000415001;5.8562;2.1931;-1.3623;-0.3251;0.1243;0.1348
0000415010;5.7317;2.0710;-1.0798;-0.2799;0.0626;0.1522
0000415022;5.7365;1.6975;-1.0175;-0.1767;-0.0450;0.1657
0000415031;5.6048;1.4748;-0.9457;-0.0907;-0.1342;0.1751
0000415044;5.9376;1.5275;-1.1157;0.0129;-0.2625;0.1951
0000415053;6.0693;1.5610;-1.3072;0.0458;-0.3449;0.1984
0000415065;6.2225;1.9728;-1.3384;0.0578;-0.4418;0.2072
0000415074;6.1962;2.1165;-1.4700;0.0417;-0.5135;0.2096
0000415083;6.1866;2.0399;-1.4844;0.0123;-0.5649;0.1969
0000415096;6.2249;2.2745;-1.4341;-0.0428;-0.6219;0.1815
0000415105;5.9855;2.0614;-1.4988;-0.0914;-0.6479;0.1747
0000415117;6.0765;2.2577;-1.5299;-0.1645;-0.6559;0.1803
0000415126;6.4524;2.2936;-1.3431;-0.2069;-0.6650;0.1804
0000415195;6.5553;1.0965;-1.5562;-0.0685;-0.5704;0.1855
0000415204;6.4141;1.2929;-1.8986;-0.0129;-0.6161;0.2312
0000415216;6.2489;1.6305;-2.0662;0.0289;-0.6837;0.2827
0000415225;5.8730;1.7765;-2.0877;0.0297;-0.7186;0.2991
0000415234;5.8802;2.1404;-1.6137;0.0164;-0.7902;0.2848
0000415247;5.8299;2.2194;-1.1540;-0.0528;-0.8763;0.2346
0000415256;6.3973;2.6647;-0.2849;-0.1254;-0.9084;0.1708
0000415267;7.2975;2.9975;0.8188;-0.1761;-0.9225;0.0667
0000415276;8.5569;3.3184;1.1253;-0.1935;-0.9152;-0.0242
0000415290;10.7667;3.3495;0.9625;-0.1980;-0.8488;-0.1009
0000415299;11.2192;3.1220;0.7973;-0.1573;-0.7601;-0.1202
0000415312;10.8984;4.6400;4.8028;-0.1038;-0.5856;-0.0542
0000415321;12.2942;6.7971;8.3390;-0.0662;-0.4389;-0.0617
0000415330;15.8855;9.1770;3.9313;0.1070;-0.3389;-0.3076
0000415342;16.8911;10.7571;-2.6839;0.2878;-0.1769;-0.5017
0000415351;11.8082;10.1442;-2.9592;0.2282;0.0442;-0.2642
0000415364;5.7604;6.4212;-0.5962;0.2064;0.1295;0.1074
0000415373;2.7892;4.1084;0.0886;0.4214;0.0801;0.2507
0000415385;3.0933;3.3782;-0.1987;0.7052;-0.1200;0.3500
0000415394;4.0270;3.7589;-0.5148;0.7746;-0.2894;0.3344
0000415407;7.0437;5.6312;-0.9673;0.6550;-0.4599;0.3259
0000415416;9.1842;6.3829;-1.0582;0.5145;-0.5252;0.2883
0000415425;11.3461;6.8283;-0.7949;0.4202;-0.5375;0.1695
0000415494;8.2241;3.0454;-0.2514;0.1010;0.0201;-0.1001
0000415503;8.2983;2.7581;-0.2897;0.0870;0.0453;-0.0914
0000415516;8.4731;2.2889;-0.4525;0.0975;0.0677;-0.1246
0000415525;8.5210;2.1356;-0.6225;0.0895;0.1001;-0.1516
0000415537;9.1099;2.4301;-0.7446;0.0763;0.1547;-0.1988
0000415546;9.6223;2.7198;-0.5698;0.0850;0.2034;-0.2344
0000415555;9.7827;2.8515;-0.6608;0.0871;0.2758;-0.2514
0000415568;9.9575;3.1412;-0.5531;0.0596;0.3709;-0.2356
0000415577;9.4930;2.7198;-0.4597;0.0390;0.4242;-0.2090
0000415589;9.1099;2.1284;-0.4525;0.0278;0.4860;-0.1849
0000415598;8.8897;1.8411;-0.2298;0.0594;0.5171;-0.1808
0000415611;8.5186;1.8148;-0.5507;0.1284;0.5208;-0.2116
0000415620;8.2121;1.9225;-0.7997;0.1495;0.5088;-0.2304
0000415632;7.9918;2.1165;-1.0151;0.1215;0.4812;-0.2527
0000415641;7.7692;2.1883;-1.1109;0.0735;0.4620;-0.2619
0000415650;7.3047;1.9848;-1.3288;0.0317;0.4282;-0.2590
0000415663;7.2281;1.7813;-1.1205;-0.0063;0.3623;-0.2314
0000415672;7.2927;1.7980;-1.0032;-0.0021;0.2939;-0.2212
0000415684;7.3215;1.7885;-0.9529;0.0101;0.1940;-0.2177
0000415693;7.2760;2.0327;-1.0391;0.0191;0.1248;-0.2249
0000415706;7.4699;2.0901;-1.3240;0.0537;0.0222;-0.2617
0000415715;7.8482;2.2410;-1.5131;0.0747;-0.0273;-0.2998
0000415784;8.7005;0.6440;-2.3463;0.1210;0.0492;-0.3150
0000415793;8.7364;0.6033;-2.1261;0.1350;0.0434;-0.2762
0000415802;8.5760;0.4310;-2.0446;0.1355;0.0594;-0.2380
0000415815;8.4156;1.0702;-1.7119;0.1571;0.0677;-0.2554
0000415824;8.1930;1.3767;-1.6328;0.1503;0.0749;-0.3023
0000415836;8.2456;2.0901;-1.6233;0.0958;0.0755;-0.3894
0000415845;8.4252;2.3679;-1.6305;0.0318;0.0679;-0.4494
0000415858;8.6311;2.2290;-1.1923;-0.0777;0.1082;-0.4998
0000415867;8.8107;1.7190;-1.0726;-0.1207;0.1522;-0.5129
0000415876;8.6167;1.0415;-0.9361;-0.1274;0.1997;-0.5219
0000415888;8.3701;0.1652;-0.5770;-0.0634;0.2354;-0.5225
0000415897;8.5856;0.0120;-0.2873;-0.0272;0.2669;-0.5227
0000415910;8.8322;0.8092;0.8236;0.0618;0.3336;-0.5481
0000415919;8.5808;1.9393;0.5004;0.0052;0.4072;-0.5628
0000415931;8.4683;3.5338;-0.0886;-0.2224;0.5191;-0.5629
0000415940;8.2504;5.2289;0.9625;-0.3687;0.6195;-0.5236
0000415953;7.3646;8.1427;1.2091;-0.5085;0.7879;-0.3537
0000415962;6.1100;10.4004;1.7382;-0.4943;0.9114;-0.1058
0000415971;5.0135;12.6941;2.6600;-0.5153;1.0023;0.2260
0000415983;2.3463;15.6557;-0.0096;-0.7175;0.9880;0.5392
0000415992;0.8404;14.9087;-1.6233;-0.8382;0.8466;0.6079
0000416005;4.1444;7.7261;-0.4645;-0.8707;0.5345;0.1478
0000416014;5.7269;3.4261;-0.3759;-0.7079;0.3906;-0.1563
0000416082;2.6001;11.6765;-4.0294;0.3461;0.3022;-0.1191
0000416091;2.3176;11.7244;-4.3910;-0.0762;0.2739;-0.0673
0000416104;3.4213;9.0644;-3.3806;-0.6824;0.2054;-0.1636
0000416113;4.0773;6.8474;-1.8723;-0.9221;0.1528;-0.2705
0000416122;4.4412;4.0917;-0.3783;-0.9543;0.0618;-0.3774
0000416134;4.9632;1.7190;0.4788;-0.7995;-0.0995;-0.4443
0000416143;5.2385;0.7087;0.4597;-0.6548;-0.2533;-0.4277
0000416156;5.8897;0.3041;0.1532;-0.4289;-0.4588;-0.3680
0000416165;6.3422;0.5914;0.0479;-0.2763;-0.5552;-0.3469
0000416177;6.1363;1.3599;-0.2370;-0.1202;-0.5860;-0.3436
0000416186;5.5545;1.8340;-0.1915;-0.0604;-0.5592;-0.3336
0000416199;5.2002;2.5043;-0.0575;-0.0675;-0.4960;-0.3292
0000416208;4.9488;2.6169;0.1245;-0.0861;-0.4638;-0.3428
0000416217;5.0589;2.4804;0.3879;-0.0882;-0.4290;-0.3263
0000416229;5.4516;2.0111;0.3567;-0.0659;-0.4054;-0.2858
0000416238;5.5402;1.5706;0.4549;-0.0530;-0.3973;-0.1989
0000416251;5.5737;1.6472;0.3328;-0.0352;-0.4207;-0.0470
0000416260;5.4037;1.9010;0.3184;-0.0248;-0.4469;0.0678
0000416272;4.9512;2.4421;0.0958;-0.0581;-0.5031;0.1891
0000416281;5.0039;2.5833;0.0144;-0.0934;-0.5485;0.2406
0000416294;5.3726;2.6959;-0.1030;-0.1098;-0.6127;0.2348
0000416303;5.6838;2.8204;-0.2610;-0.0926;-0.6602;0.1958
0000416312;5.9711;2.5786;0.0120;-0.0596;-0.6726;0.1637
0000416381;6.8043;3.2058;-0.6728;0.0918;-0.1852;0.4691
0000416390;6.6224;3.0430;-0.4477;0.0554;-0.1427;0.5029
0000416403;6.4428;2.7485;0.0215;0.0265;-0.1053;0.5155
0000416412;6.3662;2.5498;0.1460;0.0189;-0.0866;0.5027
0000416424;6.1052;2.2027;0.3496;0.0494;-0.0971;0.4534
0000416433;6.1316;2.0997;0.5866;0.0894;-0.1061;0.4307
0000416442;6.0166;1.9609;0.4262;0.1363;-0.1360;0.4104
0000416455;6.1196;2.0566;0.1796;0.2084;-0.1800;0.3946
0000416464;5.9568;1.9609;0.0934;0.2531;-0.2077;0.3833
0000416476;5.9903;2.3822;-0.1580;0.2710;-0.2209;0.3661
0000416485;6.0286;2.7701;-0.2753;0.2499;-0.2433;0.3460
0000416498;6.0214;3.3902;-0.3519;0.1691;-0.2467;0.3139
0000416507;6.1746;3.4979;-0.4645;0.1065;-0.2501;0.2729
0000416519;6.1723;3.5314;-0.6009;0.0356;-0.2462;0.2312
0000416528;6.2656;3.4237;-0.5770;0.0072;-0.2461;0.2006
0000416537;6.4524;3.3160;-0.6321;0.0051;-0.2280;0.1711
0000416550;6.7325;3.3998;-0.7494;0.0374;-0.2081;0.1368
0000416559;6.7301;3.1843;-0.7709;0.0470;-0.1881;0.1262
0000416571;6.8115;3.1053;-0.6800;0.0533;-0.1700;0.1214
0000416580;6.9599;3.1699;-0.6009;0.0466;-0.1595;0.1114
0000416593;6.7062;3.1173;-0.5674;0.0043;-0.1324;0.1014
0000416602;6.1196;2.8898;-0.6249;-0.0205;-0.1300;0.0915
0000416611;6.1100;3.0550;-0.8212;-0.0301;-0.1699;0.0777
0000416680;7.3789;4.0773;-0.9673;-0.2185;-0.2065;0.0229
0000416689;7.0078;3.4524;-0.7063;-0.2844;-0.2025;-0.0087
0000416702;6.7756;2.7845;-0.4932;-0.3297;-0.2185;-0.0446
0000416711;6.5362;2.2865;-0.3208;-0.3156;-0.2333;-0.0661
0000416723;6.5122;2.1428;-0.2682;-0.2474;-0.2587;-0.0783
0000416732;6.7588;1.9680;-0.3041;-0.1876;-0.2597;-0.0805
0000416746;7.2425;2.3248;-0.5770;-0.1232;-0.2413;-0.0947
0000416755;7.1611;2.3774;-0.9936;-0.1207;-0.1965;-0.0959
0000416768;7.6423;2.6671;-1.1109;-0.1575;-0.0993;-0.1030
0000416777;7.9535;2.6456;-1.2163;-0.2144;-0.0132;-0.1150
0000416786;7.9823;2.6360;-1.2378;-0.2773;0.0866;-0.1191
0000416798;7.4651;2.2697;-1.1396;-0.3359;0.2170;-0.0758
0000416807;7.0725;1.9872;-0.9242;-0.3455;0.3032;-0.0081
0000416820;6.5984;1.9082;-0.8475;-0.3432;0.3872;0.1191
0000416829;6.5529;2.1859;-0.7733;-0.3192;0.4120;0.1992
0000416841;6.2417;2.1763;-0.8643;-0.3112;0.4167;0.2767
0000416850;6.2560;2.1811;-0.8715;-0.3329;0.4100;0.3059
0000416863;6.4069;1.8196;-0.4334;-0.3616;0.3865;0.2797
0000416872;6.3829;1.6400;-0.2370;-0.3701;0.3601;0.2395
0000416881;6.2465;1.2857;0.0168;-0.3978;0.3459;0.2062
0000416893;5.9903;1.2354;0.0048;-0.4270;0.3235;0.1924
0000416902;5.6288;0.9840;0.2729;-0.4397;0.2952;0.2092
0000416969;7.6207;-0.3591;-1.1779;-0.1272;0.0625;0.2502
0000416978;7.8913;-0.4070;-0.8547;-0.1042;0.0886;0.2377
0000416990;8.2983;-0.0431;-0.2538;-0.1166;0.1224;0.2384
0000416999;8.7173;0.2705;-0.3855;-0.1476;0.1495;0.2288
0000417008;8.7197;0.9361;-0.1317;-0.1988;0.1973;0.2178
0000417021;8.8729;2.5331;0.7638;-0.2386;0.2594;0.1599
0000417030;9.0022;3.9720;0.8332;-0.2963;0.2791;0.1066
0000417042;8.5162;6.6415;5.0589;-0.3505;0.3118;0.0216
0000417051;9.2225;12.2918;13.0628;-0.3886;0.3860;-0.0873
0000417064;18.6125;17.6189;0.8882;-0.0911;0.4802;-0.5241
0000417073;23.6236;17.3651;-6.5242;-0.0825;0.7775;-0.5697
0000417085;11.6957;10.6374;-1.8435;-0.7021;1.2612;0.0881
0000417094;4.5370;6.2608;0.7853;-0.6265;1.3007;0.5562
0000417103;0.3567;4.5514;1.1899;-0.2521;1.1891;0.7762
0000417116;-0.8930;4.2928;1.2426;0.1124;0.8135;0.7745
0000417125;1.9489;5.4636;1.4150;0.1172;0.5650;0.6588
0000417137;7.0509;7.5154;1.0894;0.0414;0.3460;0.5023
0000417146;8.9711;8.0397;1.4126;0.0250;0.2250;0.3557
0000417159;9.8450;7.5729;0.9625;0.1367;0.1482;0.1368
0000417168;10.0413;7.3143;-0.0144;0.1973;0.2002;0.0592
0000417177;9.9359;7.2760;-0.6776;0.1982;0.2894;0.0533
0000417189;9.0190;7.0150;-0.6680;0.0915;0.3956;0.1330
0000417198;8.4252;6.6607;-0.5507;-0.0500;0.4521;0.1920
0000417263;6.2153;0.5986;1.2139;-0.3299;0.3794;0.1370
0000417272;6.6894;0.4525;1.3910;-0.1841;0.3244;0.1362
0000417284;7.2520;0.2107;1.6975;0.0665;0.2625;0.1500
0000417293;7.2640;0.2131;1.6448;0.2499;0.2217;0.1577
0000417302;7.1802;0.2705;1.5754;0.3956;0.2033;0.1579
0000417315;7.0773;1.0199;1.1564;0.5283;0.1873;0.1256
0000417324;6.7588;1.7142;0.6345;0.5525;0.1755;0.0657
0000417336;6.7660;2.4636;0.0215;0.4788;0.1611;-0.0200
0000417345;6.7229;2.7964;-0.2705;0.3772;0.1370;-0.0869
0000417358;6.8833;2.6863;-0.0575;0.2304;0.1183;-0.1644
0000417367;7.1874;2.6959;0.1149;0.1431;0.1159;-0.2057
0000417376;7.1539;2.3296;0.4812;0.1111;0.1051;-0.2376
0000417388;7.1371;1.5131;0.8021;0.1434;0.0839;-0.2499
0000417397;7.2568;1.2953;1.1229;0.2253;0.0713;-0.2498
0000417410;7.0701;0.9601;1.3024;0.3816;0.0612;-0.2481
0000417419;6.8642;0.9888;1.3671;0.4836;0.0727;-0.2438
0000417431;7.2185;1.6448;1.0032;0.6025;0.0970;-0.2441
0000417440;7.6351;2.0710;0.7877;0.6291;0.1292;-0.2582
0000417449;7.8578;2.3750;0.2562;0.6127;0.1532;-0.2706
0000417462;8.0732;2.7821;-0.3280;0.5432;0.1881;-0.2629
0000417471;8.1235;2.9377;-0.2801;0.4959;0.2038;-0.2546
0000417483;7.6064;2.9497;-0.1437;0.4474;0.2068;-0.2454
0000417492;7.3502;2.8419;-0.0527;0.4375;0.1861;-0.2630
0000417557;6.4715;2.5714;-0.0239;0.4445;-0.1132;-0.4591
0000417566;6.6918;2.6839;-0.3615;0.4547;-0.1420;-0.4183
0000417575;6.7876;2.8491;-0.6895;0.4407;-0.1725;-0.3969
0000417587;7.3789;3.1795;-0.8954;0.3776;-0.1887;-0.3793
0000417596;7.8721;3.3016;-0.8332;0.3031;-0.1832;-0.3644
0000417609;8.0709;2.6528;-0.8978;0.2205;-0.1487;-0.3429
0000417618;8.2696;2.3631;-0.9002;0.2004;-0.1108;-0.3373
0000417630;7.9152;1.6352;-0.7063;0.2277;-0.0548;-0.3312
0000417639;7.9703;1.5562;-0.7398;0.2537;-0.0180;-0.3196
0000417652;7.7596;1.3336;-0.5698;0.3323;0.0193;-0.3367
0000417661;7.6375;1.3408;-0.6249;0.3667;0.0617;-0.3202
0000417670;7.9751;1.4605;-0.5746;0.3977;0.0803;-0.3226
0000417682;8.1211;1.1325;-0.9313;0.3792;0.1017;-0.3027
0000417691;8.4180;1.1564;-1.1061;0.3467;0.1147;-0.2819
0000417704;8.3103;0.8667;-0.9625;0.3034;0.1135;-0.2802
0000417713;7.7333;0.5219;-1.1205;0.2749;0.0899;-0.2793
0000417725;6.9767;0.5148;-0.9768;0.2471;0.0372;-0.3008
0000417734;6.4069;0.3543;-0.8188;0.2152;-0.0124;-0.3142
0000417747;5.8012;0.0790;-0.4717;0.1677;-0.0967;-0.3552
0000417756;5.4636;-0.0958;-0.2155;0.1176;-0.1378;-0.3874
0000417765;5.5929;-0.3017;-0.0934;0.0646;-0.1885;-0.4147
0000417777;5.8466;-0.6177;-0.2586;-0.0340;-0.2439;-0.4056
0000417786;6.0621;-1.0295;-0.7709;-0.0727;-0.3247;-0.3764
0000417850;4.3814;6.9168;-0.5028;-0.5470;-0.6375;-0.1432
0000417859;4.3934;7.6447;0.7278;-0.5393;-0.6506;-0.0735
0000417871;4.6376;11.3102;8.5641;-0.5237;-0.6630;0.0201
0000417880;1.5850;15.4929;5.1523;-0.6506;-0.7634;0.2368
0000417893;-3.3782;17.3053;-0.6847;-0.5989;-1.0909;0.6480
0000417902;5.0135;11.3557;-3.3543;-0.5850;-1.4453;0.3977
0000417914;13.2423;4.5490;-0.1365;-0.7047;-1.3454;-0.4365
0000417923;14.9350;2.3008;0.2993;-0.3477;-1.1246;-0.7554
0000417932;14.7626;2.1811;-0.1556;0.2253;-0.7629;-0.6643
0000417945;15.1481;2.9688;-1.5945;0.9477;-0.2300;-0.3300
0000417954;13.8624;4.6471;-2.1189;1.0980;0.1467;-0.2393
0000417966;9.4212;8.4611;-2.8347;1.0557;0.5757;-0.0334
0000417975;6.5338;11.2360;-3.0263;0.8167;0.7843;0.1363
0000417988;4.1707;12.3732;-2.8012;0.3531;0.8112;0.4049
0000417997;4.1204;10.7691;-3.3375;0.0813;0.7336;0.5119
0000418009;5.4708;8.0948;-2.5474;-0.1893;0.6121;0.4173
0000418018;5.8538;5.9831;-1.5323;-0.2699;0.5452;0.2314
0000418027;5.9951;4.1276;-0.7230;-0.2830;0.4658;0.0409
0000418040;6.4260;2.6312;-0.1508;-0.2395;0.2992;-0.1291
0000418049;6.2896;2.0638;0.0168;-0.1693;0.1916;-0.1568
0000418061;5.9520;1.9130;0.1173;-0.0229;0.0866;-0.1557
0000418070;5.6144;2.0542;0.0287;0.0769;0.0725;-0.1006
0000418134;6.2201;1.9249;-0.2969;0.1495;0.1868;-0.1396
0000418143;6.1483;2.1069;-0.5962;0.1431;0.1763;-0.1045
0000418152;6.2058;2.1261;-0.8212;0.1226;0.1613;-0.0604
0000418164;6.0166;2.0638;-0.9529;0.0779;0.1671;0.0065
0000418173;6.1627;2.2673;-1.0463;0.0384;0.1732;0.0481
0000418186;6.1028;2.3176;-1.0056;-0.0302;0.2053;0.1268
0000418195;6.2345;2.1883;-1.0367;-0.0714;0.2321;0.1632
0000418207;6.6463;1.9968;-1.0463;-0.1367;0.2745;0.1879
0000418216;6.7540;1.7861;-0.9433;-0.1787;0.2964;0.1908
0000418230;6.6702;1.2617;-0.6919;-0.1645;0.3140;0.1865
0000418239;6.7109;1.2306;-0.4669;-0.0873;0.2958;0.1869
0000418248;6.3853;1.2234;-0.6632;0.0084;0.2770;0.1984
0000418261;6.0142;1.5443;-0.9792;0.1260;0.2150;0.2190
0000418270;5.8562;1.8411;-1.2354;0.1716;0.1641;0.2388
0000418282;5.4588;2.2505;-1.3886;0.1837;0.0850;0.2681
0000418291;5.2936;2.7725;-1.3743;0.1575;0.0176;0.2966
0000418304;5.0254;2.9018;-1.4940;0.0710;-0.0709;0.3440
0000418313;5.1451;2.9975;-1.4868;-0.0007;-0.1303;0.3568
0000418322;4.9728;2.7078;-1.4437;-0.0762;-0.1788;0.3680
0000418334;5.1044;2.1428;-1.4174;-0.1199;-0.2491;0.3404
0000418343;5.0542;1.8507;-1.1971;-0.1058;-0.3004;0.3142
0000418409;5.6910;3.0885;-0.9984;-0.3187;-0.5399;0.2502
0000418418;5.6599;2.4660;-0.8092;-0.3232;-0.5797;0.2212
0000418430;5.9089;1.9249;-0.6297;-0.2793;-0.6167;0.1751
0000418439;6.0118;1.7621;-0.6105;-0.2320;-0.6265;0.1386
0000418452;5.8347;1.9656;-0.8906;-0.1820;-0.6511;0.1019
0000418461;5.7868;2.2458;-0.9050;-0.1723;-0.6690;0.0874
0000418470;5.7581;2.4541;-0.7638;-0.2002;-0.6631;0.1006
0000418482;5.6623;2.6719;-0.8236;-0.2662;-0.6574;0.1294
0000418491;5.6647;2.5235;-0.8236;-0.3187;-0.6571;0.1404
0000418504;6.0837;2.3391;-0.8954;-0.3480;-0.6327;0.1431
0000418513;6.1866;2.0614;-1.0870;-0.3320;-0.6151;0.1555
0000418525;6.2513;1.9393;-1.3384;-0.2515;-0.6239;0.1632
0000418534;6.3111;2.0662;-1.5036;-0.1741;-0.6460;0.1791
0000418547;6.1076;2.1931;-1.6161;-0.0790;-0.6768;0.2198
0000418556;5.8897;2.1835;-1.6975;-0.0632;-0.6896;0.2554
0000418565;5.8035;2.2098;-1.9273;-0.0570;-0.7249;0.2839
0000418577;5.7796;2.1644;-1.8890;-0.0464;-0.7645;0.3076
0000418586;5.3870;1.6807;-1.7286;-0.0318;-0.7875;0.3246
0000418599;5.8035;1.4820;-1.5251;0.0068;-0.8118;0.3162
0000418608;6.0047;1.2881;-1.2617;0.0414;-0.8154;0.3018
0000418620;6.2369;1.3336;-1.4796;0.0702;-0.7978;0.2854
0000418629;6.3662;1.2953;-0.9960;0.0610;-0.7653;0.2915
0000418693;28.3378;13.3620;0.2562;-0.4125;-0.1972;-0.8739
0000418702;16.9198;7.3310;-3.6943;-0.5121;0.1416;-0.6616
0000418711;6.5098;2.5067;-1.2426;-0.7625;0.3142;-0.1110
0000418723;-1.3455;1.0367;1.6137;-0.0899;0.1364;0.4433
0000418732;-2.7174;1.6400;0.1077;0.5662;-0.1143;0.5489
0000418745;-1.0534;5.5545;-0.1293;0.8864;-0.4275;0.3729
0000418754;4.8794;10.5034;-2.0351;0.5002;-0.5392;0.1837
0000418766;12.5791;14.0875;-4.5155;-0.5914;-0.4072;0.0514
0000418775;16.3404;13.0340;-2.6983;-1.1338;-0.2108;-0.0653
0000418788;16.7834;7.4939;0.0215;-1.2468;0.0751;-0.0649
0000418797;15.2439;3.6033;0.8859;-1.1270;0.2566;0.0366
0000418806;13.5512;0.8691;1.4054;-0.7777;0.3984;0.1106
0000418818;10.2496;-0.8763;1.6113;-0.2234;0.5309;0.1518
0000418827;7.7835;0.3065;2.2386;0.2750;0.5804;0.1424
0000418840;5.7652;2.9856;0.2514;0.6599;0.5774;0.0652
0000418849;5.5905;5.5019;-1.4174;0.4606;0.5353;-0.0382
0000418861;5.4779;6.5386;-2.7198;-0.1199;0.4451;-0.1276
0000418870;5.5809;5.3247;-2.0423;-0.4734;0.3696;-0.1311
0000418883;6.4500;2.8156;-0.0144;-0.5890;0.2320;-0.1380
0000418892;6.9288;1.6257;0.8595;-0.4457;0.1406;-0.1046
0000418901;7.4915;1.1588;1.2019;-0.2162;0.0368;-0.0596
0000418913;7.7788;1.1372;0.9505;0.0544;-0.0830;0.0518
0000418922;8.3103;1.6688;0.5435;0.1555;-0.1571;0.1155
0000418986;7.8123;2.5786;-0.5315;-0.3094;-0.0681;-0.2932
0000418995;7.7548;2.1141;0.0335;-0.3663;-0.0534;-0.2643
0000419007;8.0134;1.7909;0.7661;-0.3234;-0.0640;-0.2096
0000419016;7.7261;1.3503;1.1444;-0.2399;-0.0857;-0.1703
0000419029;7.5824;1.2354;1.1923;-0.0298;-0.1518;-0.1440
0000419038;7.7261;1.5921;0.8523;0.1070;-0.1873;-0.1320
0000419047;7.7165;1.9848;0.5866;0.2090;-0.2232;-0.1474
0000419059;7.7835;2.4229;0.0790;0.2495;-0.2666;-0.1592
0000419068;7.7500;2.5809;-0.2705;0.2225;-0.3006;-0.1736
0000419081;7.5441;2.9736;-0.3950;0.1681;-0.3551;-0.1924
0000419090;7.5034;3.2825;-0.5028;0.1120;-0.3968;-0.1881
0000419102;7.3861;3.3327;-0.5315;0.0129;-0.4475;-0.1512
0000419111;7.5202;3.4189;-0.5315;-0.0598;-0.4792;-0.1268
0000419120;7.5920;3.1987;-0.4166;-0.1015;-0.5044;-0.1088
0000419133;7.4340;2.8443;-0.3855;-0.0965;-0.5654;-0.1162
0000419142;7.2975;2.7078;-0.3591;-0.0628;-0.6158;-0.1410
0000419154;7.0749;2.2649;-0.4262;-0.0338;-0.6644;-0.1873
0000419163;7.0270;2.2051;-0.3783;0.0045;-0.6919;-0.2156
0000419176;7.0964;2.1668;-0.3759;0.0352;-0.7388;-0.2625
0000419185;7.3478;2.3152;-0.5100;0.0385;-0.7466;-0.2839
0000419197;7.7428;2.3894;-0.6656;0.0113;-0.7416;-0.3024
0000419206;7.9272;2.2386;-0.7638;-0.0085;-0.7280;-0.3098
0000419273;7.3478;0.6393;-0.5842;0.1054;-0.4839;-0.2727
0000419282;7.1395;0.6249;-0.5602;0.1375;-0.4509;-0.2669
0000419291;6.9408;0.5674;-0.6512;0.1657;-0.4369;-0.2725
0000419303;7.0342;0.7350;-0.7829;0.1636;-0.4327;-0.2497
0000419312;6.8809;0.9266;-0.8452;0.1394;-0.4498;-0.2350
0000419325;6.9216;0.7709;-0.9026;0.0703;-0.4509;-0.1993
0000419334;7.1180;0.8715;-0.8404;0.0458;-0.4670;-0.1937
0000419346;7.2018;0.7805;-0.8045;0.0205;-0.4591;-0.1912
0000419355;7.0988;0.7254;-0.9050;0.0177;-0.4521;-0.2002
0000419368;7.1084;0.7614;-1.1061;0.0112;-0.4274;-0.2246
0000419377;6.9743;0.6632;-1.0798;0.0273;-0.4122;-0.2342
0000419386;6.6631;0.5578;-1.0391;0.0671;-0.4165;-0.2286
0000419398;6.1004;0.1101;-0.8739;0.1447;-0.4203;-0.2029
0000419407;6.1411;0.3208;-0.8284;0.2274;-0.4295;-0.1962
0000419420;6.1962;0.2490;-0.6321;0.3621;-0.4530;-0.1899
0000419429;6.3829;0.5818;-0.6488;0.4227;-0.4896;-0.1640
0000419441;6.3494;0.8763;-0.4621;0.4943;-0.5183;-0.1159
0000419450;6.5912;1.5155;-0.0934;0.5468;-0.4895;-0.0933
0000419463;6.0813;2.3774;-0.5387;0.5151;-0.5084;-0.0204
0000419472;6.0501;3.3040;-0.1437;0.4465;-0.5626;0.0481
0000419481;5.3702;3.9265;0.7685;0.3472;-0.6727;0.1021
0000419493;4.6950;5.6862;3.3423;0.2008;-0.8497;0.1308
0000419502;3.4668;8.8921;8.4013;0.0522;-1.0277;0.2426
0000419570;16.2518;4.1468;-1.9872;-0.9086;-1.1528;-0.4584
0000419579;14.8752;1.5490;-0.4884;-0.7013;-0.6780;-0.5476
0000419591;10.8074;0.8978;1.4820;0.0957;-0.1318;-0.4217
0000419600;8.0541;2.3008;1.6568;1.0343;0.1725;-0.1099
0000419613;5.8802;6.9001;0.3017;2.0414;0.3685;0.1601
0000419622;4.0701;10.4291;-0.9194;2.0661;0.3216;0.2361
0000419631;2.6456;14.6453;-2.2960;1.4874;0.0694;0.3667
0000419643;4.6902;13.3884;-6.3734;0.1218;-0.1709;0.2619
0000419652;5.1858;10.0820;-4.0941;-0.5530;-0.2697;0.0401
0000419666;5.9185;5.3510;-0.0431;-0.8179;-0.5340;-0.1801
0000419675;6.4643;3.4955;0.6393;-0.7465;-0.7224;-0.2658
0000419688;8.6479;2.3679;0.4884;-0.5211;-0.8668;-0.2633
0000419697;9.2560;1.9537;0.2418;-0.3519;-0.8495;-0.2218
0000419709;9.2823;2.0039;0.0910;-0.2028;-0.6949;-0.1651
0000419718;9.3709;2.2098;0.1149;-0.1605;-0.5594;-0.1106
0000419727;8.8705;1.8651;0.1077;-0.1391;-0.4084;-0.0837
0000419740;8.4635;1.8818;-0.4166;-0.1376;-0.1041;-0.0947
0000419749;8.0709;1.6712;-0.5986;-0.1580;0.1270;-0.1486
0000419761;7.2903;1.1157;-0.1293;-0.1916;0.3489;-0.1563
0000419770;7.1970;1.1875;0.1748;-0.2230;0.4118;-0.0995
0000419783;6.6798;0.9337;0.3376;-0.2701;0.3641;0.0163
0000419792;6.2848;0.8188;0.1700;-0.2910;0.2980;0.1146
0000419801;6.1339;0.8045;0.1053;-0.2839;0.2471;0.2117
0000419870;7.1443;1.2977;0.0838;-0.1711;0.1371;0.0586
0000419879;7.2257;1.4629;-0.3208;-0.0983;0.1450;0.0546
0000419892;7.1874;1.8483;-0.7350;-0.0278;0.1660;0.0774
0000419901;7.0605;2.0830;-0.8260;-0.0203;0.1980;0.1009
0000419913;6.8019;2.0806;-1.2067;-0.0305;0.2395;0.1235
0000419922;6.6295;1.9225;-1.3312;-0.0505;0.2509;0.1316
0000419935;6.5625;1.8890;-1.1492;-0.0457;0.2461;0.1351
0000419944;6.4787;1.8459;-0.9816;-0.0460;0.2353;0.1398
0000419953;6.2680;1.8603;-0.9577;-0.0228;0.2016;0.1380
0000419965;5.6455;1.7597;-1.0942;0.0109;0.1536;0.1434
0000419974;5.2385;1.6137;-1.2043;0.0344;0.1242;0.1515
0000419987;4.4365;1.6592;-1.0127;0.0473;0.0533;0.1420
0000419996;4.0055;1.7789;-0.8811;0.0320;-0.0017;0.1371
0000420008;4.1803;1.6735;-0.6967;-0.0025;-0.1023;0.1232
0000420017;4.2162;1.6065;-0.6943;-0.0212;-0.1868;0.1143
0000420026;4.7022;1.9632;-0.6608;-0.0354;-0.2653;0.1186
0000420039;5.2313;2.1811;-0.7781;-0.0601;-0.3565;0.1468
0000420048;5.3223;2.3487;-0.9050;-0.0913;-0.4073;0.1637
0000420060;4.8914;2.1715;-0.5219;-0.1230;-0.4760;0.1783
0000420069;4.8578;2.0255;-0.4429;-0.1259;-0.5373;0.1763
0000420082;4.5322;1.7071;-0.3328;-0.1498;-0.6193;0.1793
0000420091;4.5801;1.3024;-0.2801;-0.1502;-0.7121;0.1779
0000420160;8.3606;-0.0599;-0.8356;0.3681;-0.8231;0.4139
0000420169;8.6766;0.3735;-1.0606;0.4117;-0.7217;0.4048
0000420178;8.7125;0.6871;-1.3503;0.4102;-0.6286;0.3894
0000420191;8.9591;1.3647;-1.7573;0.2936;-0.5069;0.3679
0000420200;8.3127;1.7310;-1.8364;0.1450;-0.4331;0.3479
0000420212;7.3095;2.0159;-1.3168;-0.0761;-0.3549;0.3441
0000420221;6.6583;2.1668;-0.4118;-0.2417;-0.3016;0.3651
0000420234;7.4101;1.9728;0.4669;-0.4510;-0.2281;0.3425
0000420243;7.8506;2.0662;1.1492;-0.5365;-0.1616;0.2852
0000420255;8.9136;1.9992;1.5227;-0.6094;-0.0605;0.1796
0000420264;9.3541;1.8531;0.9361;-0.6442;0.0593;0.0839
0000420273;9.4260;3.2058;5.2529;-0.6583;0.1721;-0.0113
0000420286;14.9159;7.6136;11.0301;-0.7298;0.3832;-0.1962
0000420295;24.0067;9.6007;-1.1564;-0.5534;0.3477;-0.4311
0000420307;18.8065;8.3055;-4.7118;0.0612;0.8966;-0.1929
0000420316;9.6055;6.7612;-3.4764;0.4126;1.0886;0.4370
0000420329;1.8699;5.3199;-2.3343;0.9278;1.1698;0.7821
0000420338;1.2522;5.1188;-0.8882;1.0388;1.0063;0.7322
0000420347;3.6057;5.9017;0.1077;0.9694;0.7769;0.5281
0000420359;7.5058;8.7340;0.6416;0.9053;0.5921;0.2746
0000420368;10.6350;11.3270;-0.6057;0.8692;0.4622;0.1601
0000420381;12.2487;12.4810;-1.2857;0.6579;0.3250;0.0783
0000420390;12.0787;10.8673;-1.4748;0.4351;0.2978;0.0638
0000420459;9.5217;6.5457;-1.1396;-0.3248;0.2062;0.0388
0000420468;9.6558;5.7150;-0.7230;-0.4463;0.2300;0.0461
0000420481;10.0820;4.4077;-0.4094;-0.4804;0.2795;0.0671
0000420490;9.9814;3.6655;0.0335;-0.4033;0.3186;0.0865
0000420499;10.0245;3.0837;0.3376;-0.2834;0.3603;0.1279
0000420511;9.8713;2.5905;0.3543;-0.0713;0.4177;0.1541
0000420520;9.5098;2.4804;0.2897;0.0807;0.4603;0.1631
0000420533;9.3541;2.8539;-0.2777;0.2273;0.5052;0.1411
0000420542;9.4020;3.3208;-0.6728;0.2389;0.5417;0.1278
0000420554;9.4571;3.6009;-1.0582;0.1675;0.5690;0.0922
0000420563;9.2153;3.3639;-1.3264;0.0686;0.5939;0.0554
0000420572;9.1051;3.2968;-1.1037;-0.0370;0.6129;0.0141
0000420585;8.3749;3.0526;-0.9146;-0.1442;0.6171;-0.0508
0000420594;7.8051;2.3798;-0.6560;-0.1993;0.6102;-0.0873
0000420606;7.5944;1.8004;-0.2274;-0.2160;0.5911;-0.1388
0000420615;7.6591;1.4389;-0.1317;-0.1984;0.5914;-0.1660
0000420628;7.7859;1.0439;0.0335;-0.1609;0.5897;-0.1877
0000420637;8.1355;0.8021;0.0048;-0.1228;0.5958;-0.1857
0000420649;8.5329;0.8428;0.1341;-0.0516;0.6269;-0.1824
0000420658;8.5856;0.6297;0.0718;-0.0071;0.6647;-0.1736
0000420667;9.0549;0.5890;-0.1077;0.0280;0.7051;-0.1704
0000420680;9.1794;0.4118;-0.3591;0.0504;0.7918;-0.1529
0000420689;9.1123;0.2107;-0.4549;0.0853;0.8420;-0.1427
0000420758;6.7924;1.4222;-1.5155;0.2834;0.7646;-0.0001
0000420767;6.3087;1.6281;-1.5203;0.2671;0.6757;-0.0274
0000420780;6.6822;2.0710;-1.7334;0.2237;0.5516;-0.1001
0000420789;7.3071;2.3439;-1.7549;0.1885;0.4852;-0.1655
0000420798;8.0421;2.5522;-1.7573;0.1378;0.4574;-0.2120
0000420810;8.7412;2.5163;-1.6257;0.0662;0.4474;-0.2486
0000420819;9.2608;2.4852;-1.7358;0.0199;0.4622;-0.2561
0000420832;9.4739;2.0303;-1.8435;-0.0047;0.5025;-0.2405
0000420841;9.2249;1.8076;-1.7430;0.0099;0.5424;-0.2130
0000420853;8.9423;1.5299;-2.0207;0.0705;0.5873;-0.1835
0000420862;8.8226;1.4246;-2.0518;0.1087;0.6257;-0.1776
0000420875;8.4635;1.1516;-2.3343;0.1368;0.6579;-0.2082
0000420884;8.4348;0.7566;-2.0853;0.1380;0.6771;-0.2200
0000420893;8.6646;0.3352;-2.3583;0.1416;0.6799;-0.2451
0000420905;8.5712;-0.1173;-2.5642;0.1459;0.6956;-0.2563
0000420914;8.2744;-0.3112;-2.4325;0.1809;0.6995;-0.2697
0000420927;7.6447;-0.4286;-1.7741;0.2890;0.6388;-0.3468
0000420936;7.1108;-0.1413;-1.4605;0.3373;0.5970;-0.4290
0000420950;6.3015;0.4381;-1.1109;0.3296;0.5399;-0.5926
0000420959;5.7940;0.5100;-1.0223;0.2940;0.5164;-0.6793
0000420968;5.2361;0.3232;-1.0822;0.2790;0.5020;-0.7125
0000421037;6.5721;2.0135;0.8140;-0.1775;0.6174;-0.1660
0000421046;6.2560;1.8627;1.3144;-0.3484;0.6887;-0.1715
0000421058;4.2066;4.0031;8.2839;-0.4085;0.7007;-0.0805
0000421067;3.1556;9.9216;12.4403;-0.7703;0.3637;0.1604
0000421080;-6.0047;19.9700;2.7629;-0.5048;0.4262;0.8270
0000421089;-5.9352;18.1050;-6.1196;0.0958;-0.0458;1.1566
0000421101;10.8386;9.8234;1.2641;-0.3876;-0.5252;0.2777
0000421110;16.2782;6.4691;3.4357;-0.0107;-0.5327;-0.3936
0000421119;16.1561;5.7868;2.5881;0.3091;-0.4057;-0.5979
0000421132;13.4985;9.3422;0.9050;0.6739;-0.4032;-0.3108
0000421141;11.1259;12.9502;-0.3017;0.6487;-0.3047;-0.1970
0000421153;6.0669;16.4889;-3.8116;0.0205;-0.1267;-0.0790
0000421162;4.2162;15.6557;-2.6887;-0.4419;-0.0702;0.0361
0000421176;4.5801;10.0628;-0.7781;-0.5764;-0.1126;0.1478
0000421185;5.6455;7.3334;0.7207;-0.4135;-0.1736;0.0941
0000421198;7.1156;5.8395;1.5179;-0.0871;-0.2256;-0.0621
0000421207;7.6782;6.2106;1.1779;0.0290;-0.2317;-0.1859
0000421219;8.1906;6.4093;0.5124;-0.0140;-0.3180;-0.3469
0000421228;8.3629;6.9192;0.2562;-0.1003;-0.4065;-0.3972
0000421237;8.8562;7.0461;-0.2011;-0.1974;-0.4473;-0.3790
0000421306;6.3135;2.1715;-0.1006;-0.1548;-0.1139;-0.2022
0000421315;6.0885;2.1404;-0.1987;-0.1282;-0.1448;-0.1760
0000421327;5.6719;1.9441;-0.3448;-0.1831;-0.1763;-0.1196
0000421336;5.2265;1.6735;-0.2849;-0.2318;-0.2254;-0.0698
0000421349;5.5091;1.3001;-0.2586;-0.2634;-0.2931;0.0003
0000421358;6.2106;0.9409;0.0311;-0.2582;-0.3288;0.0269
0000421370;6.6894;0.8523;0.4573;-0.2373;-0.3477;0.0498
0000421379;6.8881;0.4070;0.5650;-0.2373;-0.3412;0.0632
0000421388;7.1898;0.4381;0.6871;-0.2076;-0.3445;0.0545
0000421401;7.1611;0.3376;0.4070;-0.1331;-0.3509;0.0361
0000421410;6.9552;0.3591;0.2131;-0.1005;-0.3527;0.0417
0000421422;6.4667;0.7661;-0.0527;-0.0675;-0.3794;0.0418
0000421431;5.8538;1.0080;0.0072;-0.0582;-0.4084;0.0533
0000421444;5.2337;1.6209;-0.0359;-0.0574;-0.4742;0.0787
0000421453;5.1068;1.9920;-0.0383;-0.0795;-0.5121;0.1192
0000421465;4.9919;2.4134;-0.1532;-0.1079;-0.5685;0.1703
0000421474;5.2409;2.6408;-0.3232;-0.1274;-0.6022;0.1960
0000421483;5.7437;2.7294;-0.2490;-0.1272;-0.6312;0.2113
0000421496;6.5122;2.1165;-0.3376;-0.1232;-0.6587;0.2538
0000421505;7.1180;2.0279;-0.4669;-0.1152;-0.6727;0.2801
0000421517;7.5753;2.2242;-0.5315;-0.0773;-0.6620;0.3075
0000421526;7.5657;2.1500;-0.6273;-0.0442;-0.6406;0.3196
0000421595;6.5027;2.8467;-1.0918;0.0281;-0.5091;0.2417
0000421604;6.6128;2.5881;-1.3886;0.0807;-0.4892;0.2610
0000421616;7.0222;2.7222;-1.5754;0.1220;-0.4502;0.3080
0000421625;7.2233;2.7749;-1.6855;0.1243;-0.4098;0.3283
0000421634;7.3598;2.9521;-1.7549;0.0958;-0.3517;0.3455
0000421647;6.9192;2.7485;-1.8699;0.0534;-0.2879;0.3293
0000421656;6.8139;2.6336;-2.1452;0.0120;-0.2546;0.3144
0000421668;6.6295;2.1907;-2.2386;0.0017;-0.2495;0.2994
0000421677;6.1818;2.0399;-2.3391;0.0304;-0.2501;0.2790
0000421690;5.3893;2.0039;-2.3703;0.0762;-0.2595;0.2876
0000421699;5.0446;2.1955;-2.1931;0.1110;-0.3088;0.2995
0000421708;5.1978;3.0670;-1.4461;0.1359;-0.3762;0.2970
0000421720;6.5984;4.6902;0.3400;0.1140;-0.4762;0.2368
0000421729;8.9088;5.4899;0.5459;0.0037;-0.5036;0.0999
0000421742;12.3661;7.4531;4.6471;-0.1611;-0.3797;-0.2417
0000421751;15.2391;8.6095;6.3135;-0.1595;-0.2221;-0.5593
0000421763;17.4011;8.3486;1.5323;-0.1719;-0.0598;-0.9252
0000421772;14.7052;6.2848;-0.4956;-0.3809;0.1787;-0.9919
0000421785;6.7445;2.7078;1.1899;-0.4987;0.5155;-0.7601
0000421794;2.3032;1.7166;2.3104;-0.2811;0.4970;-0.4918
0000421803;-0.2346;1.8100;3.0646;0.0777;0.2966;-0.2384
0000421815;-0.3448;3.2394;2.5714;0.4549;-0.0384;0.0454
0000421824;1.4964;4.5681;1.3192;0.5423;-0.2856;0.1901
0000421891;11.8465;2.6504;0.5650;-0.1324;-0.5173;-0.0417
0000421900;11.3581;2.2960;0.7566;-0.1184;-0.4494;-0.0011
0000421912;10.2855;2.0494;0.6728;-0.1148;-0.3679;0.1255
0000421921;9.7420;2.0207;0.8404;-0.1009;-0.3223;0.2080
0000421934;8.6167;2.0614;0.7470;-0.0560;-0.2511;0.2603
0000421943;7.9392;2.2649;0.5028;-0.0040;-0.2374;0.2502
0000421952;7.7859;2.6049;0.1365;0.0140;-0.2316;0.2530
0000421964;8.2361;3.0119;-0.0311;-0.0377;-0.2487;0.2559
0000421973;8.6670;3.2561;0.1053;-0.1083;-0.2650;0.2551
0000421986;9.0525;3.0143;0.2107;-0.2210;-0.2675;0.2814
0000421995;8.9735;2.4469;0.5794;-0.2717;-0.2762;0.3078
0000422007;8.7388;1.7549;1.0271;-0.2459;-0.3027;0.3360
0000422016;8.3653;1.5634;1.2977;-0.1717;-0.3281;0.3323
0000422023;8.1355;1.7549;1.2450;-0.0925;-0.3637;0.3086
0000422035;8.2768;2.6312;0.6416;0.0113;-0.4278;0.2305
0000422043;8.3869;3.4189;0.2131;0.0361;-0.4776;0.1651
0000422054;8.5832;4.2689;-0.3376;-0.0109;-0.5320;0.0644
0000422062;8.6479;4.6136;-0.6536;-0.1114;-0.5521;0.0125
0000422074;8.4467;4.3048;-0.9074;-0.3035;-0.5578;-0.0317
0000422082;8.3893;3.6943;-0.7015;-0.4092;-0.5525;-0.0253
0000422093;8.6024;2.8730;-0.3328;-0.4742;-0.5379;-0.0089
