time;acc_x;acc_y;acc_z;gyro_x;gyro_y;gyro_z
0001807067;6.7564;2.7438;3.2657;0.0758;0.0362;-0.0112
0001807075;6.8163;2.6743;3.3160;0.0520;0.0237;-0.0076
0001807082;6.9360;2.6576;3.0861;0.0317;0.0164;-0.0104
0001807090;6.8594;2.4804;3.1508;0.0176;0.0024;-0.0246
0001807099;7.1012;2.5953;3.1173;0.0060;-0.0001;-0.0212
0001807107;7.0006;2.3798;3.0718;-0.0049;-0.0092;-0.0268
0001807115;6.9911;2.5929;3.1196;-0.0124;-0.0164;-0.0340
0001807127;6.9097;2.4110;3.1292;-0.0252;-0.0224;-0.0409
0001807135;7.0461;2.5067;3.1723;-0.0344;-0.0297;-0.0409
0001807146;6.9983;2.5450;3.2322;-0.0390;-0.0445;-0.0454
0001807154;6.8546;2.2913;3.1891;-0.0478;-0.0470;-0.0442
0001807223;7.2640;2.3870;3.1508;-0.0297;-0.0417;-0.0505
0001807231;7.3047;2.2769;3.2010;-0.0266;-0.0289;-0.0517
0001807242;7.5250;2.4445;3.1196;-0.0408;0.0072;-0.0422
0001807250;7.4531;2.2098;3.1364;-0.0424;0.0233;-0.0389
0001807258;7.4795;2.3128;3.1651;-0.0437;0.0329;-0.0334
0001807270;7.2568;2.0255;3.1436;-0.0510;0.0509;-0.0168
0001807278;7.1778;2.0997;3.1580;-0.0504;0.0558;-0.0079
0001807289;6.9647;2.0087;3.0813;-0.0602;0.0565;0.0071
0001807297;6.9216;2.0207;3.1029;-0.0524;0.0597;0.0069
0001807309;6.8642;2.1069;3.0765;-0.0453;0.0597;0.0148
0001807317;7.0078;2.1572;3.0598;-0.0373;0.0633;0.0173
0001807325;6.9312;2.2194;3.0430;-0.0358;0.0622;0.0187
0001807336;6.8187;2.1620;3.0287;-0.0282;0.0485;0.0148
0001807344;6.8833;2.2529;2.9951;-0.0265;0.0461;0.0269
0001807356;6.8570;2.1883;3.0023;-0.0245;0.0394;0.0337
0001807364;6.7588;2.0925;2.9449;-0.0187;0.0277;0.0364
0001807375;6.5050;2.0351;2.8419;-0.0151;0.0176;0.0472
0001807383;6.8115;2.2505;2.8467;-0.0061;-0.0008;0.0537
0001807391;6.7038;2.2290;2.9066;-0.0096;-0.0149;0.0542
0001807403;6.7253;2.4421;2.8347;-0.0107;-0.0376;0.0661
0001807411;6.8043;2.3463;2.7390;-0.0139;-0.0454;0.0717
0001807422;6.6726;2.3750;2.6480;-0.0108;-0.0731;0.0629
0001807430;6.8283;2.6432;2.5331;-0.0224;-0.0857;0.0699
0001807499;6.7780;2.7892;2.4756;-0.1115;-0.1498;0.0135
0001807507;6.8067;2.8395;2.4588;-0.1077;-0.1609;0.0040
0001807518;6.9216;2.7150;2.5019;-0.1116;-0.1577;-0.0029
0001807526;6.7277;2.5450;2.5498;-0.1034;-0.1576;-0.0183
0001807534;6.7971;2.5522;2.5642;-0.0977;-0.1536;-0.0277
0001807546;6.8905;2.6288;2.6695;-0.1063;-0.1460;-0.0310
0001807554;7.0413;2.5953;2.6959;-0.1022;-0.1335;-0.0317
0001807565;7.0198;2.5211;2.6671;-0.1077;-0.1212;-0.0438
0001807573;6.9863;2.4205;2.5833;-0.1110;-0.1090;-0.0401
0001807585;6.9456;2.3008;2.5738;-0.1079;-0.0941;-0.0486
0001807593;6.8929;2.3583;2.5881;-0.1026;-0.0878;-0.0554
0001807604;6.7588;2.1811;2.5067;-0.0941;-0.0775;-0.0545
0001807612;7.0509;2.4134;2.4086;-0.0937;-0.0681;-0.0600
0001807620;6.7660;2.1811;2.4876;-0.0910;-0.0686;-0.0630
0001807632;6.7995;2.2889;2.5187;-0.0837;-0.0624;-0.0742
0001807640;6.9432;2.4397;2.4565;-0.0841;-0.0560;-0.0670
0001807651;6.8929;2.4517;2.4660;-0.0819;-0.0566;-0.0826
0001807659;6.8163;2.4349;2.4684;-0.0805;-0.0521;-0.0814
0001807671;6.8977;2.2673;2.5426;-0.0786;-0.0336;-0.0839
0001807679;6.6583;2.0734;2.5115;-0.0638;-0.0292;-0.0863
0001807690;6.6176;1.9249;2.4541;-0.0321;-0.0218;-0.0891
0001807698;6.6822;1.7909;2.5163;-0.0117;-0.0153;-0.0993
0001807706;6.6487;2.0542;2.5259;0.0208;-0.0224;-0.1081
0001807775;6.8929;2.1715;3.1005;0.1512;0.0199;-0.1992
0001807783;6.8307;2.1237;3.1149;0.1625;0.0365;-0.2097
0001807794;6.7181;1.9752;3.0765;0.1796;0.0382;-0.2312
0001807802;6.8953;2.1428;3.0670;0.1847;0.0529;-0.2341
0001807814;6.9408;2.1644;3.6272;0.1792;0.0652;-0.2474
0001807822;6.8570;2.0087;3.4907;0.2094;0.0867;-0.2733
0001807830;6.7780;1.6783;3.3902;0.2380;0.1102;-0.3042
0001807841;6.7516;1.5467;3.2609;0.2757;0.1426;-0.3667
0001807849;6.9599;1.5706;3.2944;0.2830;0.1723;-0.3942
0001807861;7.3167;2.0877;3.2753;0.3026;0.2062;-0.3888
0001807869;7.5226;2.7892;3.3950;0.2955;0.2078;-0.3337
0001807880;7.6231;3.5698;3.4692;0.3092;0.2141;-0.2390
0001807888;7.5034;4.1683;3.7469;0.2900;0.2278;-0.1503
0001807896;7.2808;4.5394;3.8906;0.2634;0.2365;-0.0837
0001807908;6.9216;4.6759;4.2976;0.2010;0.2435;-0.0144
0001807916;6.5457;4.5394;4.5562;0.1635;0.2364;0.0069
0001807927;6.4212;4.0893;4.6615;0.1054;0.2069;0.0152
0001807935;6.1220;3.4620;4.7525;0.0745;0.1653;0.0145
0001807947;5.9472;2.6073;4.7573;0.0584;0.0926;0.0111
0001807955;6.2153;2.1261;4.5969;0.0685;0.0397;0.0021
0001807963;6.3686;1.9609;4.4796;0.0865;-0.0133;-0.0167
0001807975;6.5218;1.7789;4.5729;0.0945;-0.0751;-0.0314
0001807983;6.6152;1.7861;4.3814;0.0963;-0.1131;-0.0449
0001808052;8.3582;2.1332;3.2250;-0.0706;-0.1304;-0.0017
0001808060;8.5186;2.2362;3.1795;-0.0584;-0.0923;0.0405
0001808071;8.7436;2.2458;3.2753;-0.0293;-0.0464;0.0789
0001808079;8.6862;2.3176;3.1173;-0.0179;0.0013;0.1195
0001808091;8.4803;2.3894;3.2106;0.0017;0.0410;0.1764
0001808099;8.2983;2.2218;2.9951;0.0139;0.0671;0.2120
0001808107;7.9823;2.1380;3.0263;0.0258;0.0873;0.2466
0001808118;7.8458;2.3511;2.9784;0.0566;0.0994;0.2746
0001808126;7.4555;2.2769;3.1292;0.0723;0.1077;0.2936
0001808138;7.1419;2.4708;3.0789;0.0821;0.1071;0.3067
0001808146;7.0964;2.4541;3.0909;0.0795;0.0923;0.2968
0001808154;6.8761;2.5905;3.0885;0.0717;0.0889;0.2898
0001808165;7.0198;2.4493;3.3040;0.0580;0.0517;0.2749
0001808173;6.9695;2.4277;3.2896;0.0424;0.0332;0.2695
0001808185;6.9552;2.3631;3.4955;0.0329;-0.0112;0.2594
0001808193;7.0868;2.3032;3.3136;0.0120;-0.0353;0.2562
0001808204;7.1682;2.2362;3.2729;-0.0096;-0.0730;0.2611
0001808212;7.1754;2.2314;3.2154;-0.0124;-0.0902;0.2497
0001808220;7.3023;2.1691;3.2825;-0.0197;-0.0973;0.2457
0001808232;7.1443;1.9201;3.2010;-0.0481;-0.1027;0.2397
0001808240;7.4484;1.8986;3.1196;-0.0761;-0.1051;0.2425
0001808252;7.3933;1.5467;2.9473;-0.0947;-0.1077;0.2338
0001808260;7.6016;1.6089;2.9329;-0.0987;-0.1180;0.2309
0001808329;7.7548;1.5012;2.6049;-0.0185;-0.0232;0.1563
0001808337;7.8793;1.5562;2.5833;-0.0011;-0.0057;0.1503
0001808348;7.5130;1.3886;2.4205;0.0136;0.0356;0.1432
0001808356;7.6830;1.2378;2.3679;0.0207;0.0521;0.1479
0001808364;7.7476;1.3527;2.3056;0.0368;0.0799;0.1557
0001808376;7.6040;1.2043;2.3152;0.0707;0.1069;0.1539
0001808384;7.7117;1.3575;2.2075;0.0987;0.1190;0.1635
0001808395;7.4077;1.4581;2.2027;0.1400;0.1338;0.1576
0001808403;7.3239;1.6161;2.2170;0.1609;0.1380;0.1571
0001808411;7.2137;1.7358;2.1835;0.1827;0.1312;0.1525
0001808423;6.8881;1.9273;2.1404;0.2004;0.1042;0.1581
0001808431;6.7708;1.9848;2.1644;0.2061;0.0878;0.1613
0001808442;6.5697;1.8627;2.1931;0.2312;0.0558;0.1523
0001808450;6.3686;1.7286;2.1596;0.2469;0.0348;0.1476
0001808462;6.5793;1.7214;2.1811;0.2850;0.0023;0.1379
0001808470;6.5912;1.4629;2.2194;0.3115;-0.0249;0.1298
0001808478;6.6319;1.4389;2.1763;0.3601;-0.0456;0.1085
0001808490;6.9863;1.0367;2.0111;0.3973;-0.0806;0.1058
0001808498;7.2161;1.0319;1.9345;0.4427;-0.0978;0.0842
0001808509;7.4915;1.1660;1.5874;0.4812;-0.1252;0.0609
0001808517;7.3646;1.1349;1.6065;0.4918;-0.1467;0.0341
0001808529;7.5298;1.8148;1.4222;0.4800;-0.1575;-0.0321
0001808537;7.5298;1.8340;1.3982;0.4506;-0.1673;-0.0851
0001808545;7.6064;2.3032;1.5203;0.4037;-0.1588;-0.1462
0001808613;7.7141;2.4995;1.5036;0.1304;-0.0636;-0.3397
0001808621;7.5753;2.7701;1.4581;0.1127;-0.0528;-0.3395
0001808633;7.7931;2.8730;1.6879;0.0574;-0.0152;-0.3349
0001808641;8.0373;3.2178;1.7813;0.0147;0.0225;-0.3289
0001808652;8.0134;3.1771;1.9225;-0.0501;0.0837;-0.3087
0001808660;8.3582;3.3040;2.1141;-0.0907;0.1314;-0.2868
0001808672;8.5784;3.2202;2.3487;-0.1717;0.2000;-0.2266
0001808680;8.8178;3.1915;2.3463;-0.2146;0.2321;-0.1860
0001808688;8.7532;2.9185;2.3272;-0.2469;0.2577;-0.1419
0001808699;8.5066;2.8299;2.4708;-0.2778;0.2839;-0.0909
0001808707;8.2097;2.7533;2.5714;-0.3098;0.2982;-0.0497
0001808719;8.0996;2.9640;2.8443;-0.3657;0.3064;-0.0212
0001808727;8.1020;2.9425;2.8371;-0.4058;0.3179;-0.0173
0001808738;7.9009;2.9808;3.1388;-0.4541;0.3080;-0.0257
0001808746;7.3550;2.2817;3.2896;-0.4996;0.2923;-0.0260
0001808754;7.4172;1.9225;3.1819;-0.5091;0.2828;-0.0103
0001808766;6.9983;1.3455;3.1029;-0.4686;0.2365;-0.0105
0001808774;7.3334;1.4581;2.9353;-0.4194;0.2073;-0.0148
0001808785;7.5729;1.4796;2.9137;-0.3507;0.1515;-0.0931
0001808793;7.8673;2.0255;3.1173;-0.2739;0.1447;-0.1162
0001808805;7.7740;2.5187;3.1268;-0.1879;0.1350;-0.1438
0001808813;7.8123;3.0287;3.1867;-0.1817;0.1167;-0.1572
0001808881;6.7804;3.5841;3.1939;-0.2318;-0.2799;-0.1717
0001808889;6.7995;3.8475;3.4453;-0.2817;-0.3163;-0.2137
0001808897;6.8881;3.7445;3.7469;-0.3644;-0.3412;-0.2443
0001808909;7.1060;3.0382;3.9456;-0.4947;-0.3557;-0.2377
0001808917;7.3454;2.1739;3.9744;-0.5408;-0.3659;-0.1939
0001808928;7.8003;1.2498;3.3495;-0.5275;-0.3928;-0.1271
0001808936;8.0565;1.0798;2.7845;-0.4927;-0.4124;-0.0726
0001808948;8.2001;1.4533;2.4828;-0.4355;-0.4317;-0.0261
0001808956;8.2217;2.0638;2.6600;-0.4008;-0.4257;-0.0358
0001808967;7.6423;2.4756;2.5426;-0.3913;-0.3890;-0.0486
0001808975;7.4292;2.7390;2.8539;-0.4106;-0.3513;-0.0682
0001808983;7.2449;2.4301;3.1699;-0.4568;-0.3080;-0.0806
0001808995;7.0653;1.6448;3.5458;-0.5072;-0.2551;-0.0602
0001809003;7.1180;0.7326;3.6416;-0.5069;-0.2358;-0.0244
0001809014;7.3047;-0.3376;3.3303;-0.4366;-0.2426;0.0215
0001809022;7.3167;-0.5100;3.0311;-0.3806;-0.2567;0.0528
0001809034;7.2712;-0.2227;2.6145;-0.2867;-0.2919;0.0682
0001809042;7.1251;0.5962;2.7414;-0.2064;-0.3084;0.0512
0001809053;6.5817;2.0111;3.2848;-0.1220;-0.3230;0.0111
0001809061;6.1028;3.4333;4.1300;-0.0947;-0.3353;-0.0189
0001809069;5.8658;4.1563;4.9081;-0.1077;-0.3581;-0.0416
0001809081;5.5091;4.4939;5.3486;-0.1781;-0.3893;-0.0304
0001809089;5.6814;3.8978;5.4396;-0.1923;-0.4287;-0.0175
0001809157;8.7197;3.3136;4.0917;0.0127;-0.3167;-0.4433
0001809165;8.0565;3.6296;4.5179;-0.0999;-0.2430;-0.4311
0001809177;7.1299;3.7062;4.6591;-0.2308;-0.1569;-0.3772
0001809185;6.7900;3.4213;4.5250;-0.2306;-0.1188;-0.3279
0001809196;6.4691;2.9616;4.5921;-0.1519;-0.0691;-0.2562
0001809204;6.4452;2.9688;4.5226;-0.0726;-0.0468;-0.2429
0001809212;6.3111;2.9640;4.5897;-0.0060;-0.0377;-0.2360
0001809224;6.3087;3.1340;4.4939;0.0358;-0.0401;-0.2193
0001809232;6.4045;3.2944;4.4556;0.0337;-0.0334;-0.1988
0001809243;6.3566;3.0813;4.3407;0.0332;-0.0356;-0.1787
0001809251;6.5649;3.0119;4.5322;0.0211;-0.0302;-0.1585
0001809263;6.7852;3.4189;4.6591;0.0056;-0.0230;-0.1304
0001809271;6.6535;3.6392;4.6998;-0.0155;-0.0167;-0.1118
0001809279;6.4500;3.4022;4.7525;-0.0284;-0.0221;-0.0895
0001809290;6.4284;3.2465;4.5370;-0.0326;-0.0234;-0.0329
0001809298;6.4763;3.0574;4.4843;-0.0266;-0.0316;-0.0188
0001809310;6.6224;2.6049;4.1515;-0.0278;-0.0316;-0.0301
0001809318;6.6702;2.2793;4.0007;-0.0302;-0.0238;-0.0726
0001809329;6.8785;2.1308;3.9313;-0.0409;-0.0141;-0.1348
0001809337;6.8187;2.0087;3.9337;-0.0726;0.0009;-0.1743
0001809349;6.7636;2.1452;4.1515;-0.1174;0.0016;-0.1892
0001809357;6.7133;2.4157;4.2784;-0.1600;0.0117;-0.1861
0001809365;6.6774;2.3774;4.3431;-0.1888;0.0104;-0.1828
0001809433;7.0677;1.0104;3.5698;-0.0874;0.1311;-0.1749
0001809441;7.1084;1.3767;3.5602;-0.0762;0.1559;-0.1755
0001809453;6.6918;1.9058;3.6559;-0.0679;0.1769;-0.1499
0001809461;6.3614;2.1620;3.7278;-0.0597;0.1819;-0.1223
0001809472;6.1723;2.4780;3.7110;-0.0352;0.1739;-0.0854
0001809480;5.7221;2.3032;3.7757;-0.0216;0.1625;-0.0625
0001809492;6.0094;2.1548;3.6559;-0.0075;0.1471;-0.0397
0001809500;6.1890;1.7789;3.5721;0.0230;0.1303;-0.0501
0001809508;6.4596;1.4509;3.4405;0.0464;0.1290;-0.0649
0001809519;6.7181;0.9361;3.3782;0.0979;0.1303;-0.0959
0001809527;6.9959;0.9505;3.2417;0.1422;0.1543;-0.1140
0001809539;7.2568;0.9146;3.1771;0.2092;0.2025;-0.1416
0001809547;7.4005;1.1372;3.0981;0.2422;0.2461;-0.1424
0001809558;7.6734;1.7549;3.0957;0.2719;0.3090;-0.1166
0001809566;7.5082;2.1189;3.2370;0.2826;0.3577;-0.0815
0001809574;7.2927;2.6121;3.1915;0.2731;0.3994;-0.0369
0001809586;7.2089;3.1412;3.2729;0.2262;0.4355;0.0406
0001809594;6.9695;3.1316;3.4022;0.1845;0.4551;0.1035
0001809605;6.6056;3.0813;3.5554;0.1188;0.4695;0.1663
0001809613;6.2369;2.8898;3.4979;0.0857;0.4611;0.1990
0001809625;6.1890;2.5953;3.6248;0.0517;0.4514;0.2196
0001809633;5.9161;2.2170;3.6368;0.0677;0.4297;0.2118
0001809641;5.8658;1.9441;3.5027;0.1019;0.4147;0.1982
0001809709;6.0334;2.6743;3.3902;0.2545;0.3238;0.1420
0001809717;6.0645;2.6935;3.4357;0.2328;0.3114;0.1500
0001809729;6.2513;2.6456;3.4022;0.1970;0.2786;0.1647
0001809737;6.1818;2.4780;3.4165;0.1845;0.2573;0.1624
0001809745;6.3494;2.3703;3.2585;0.1772;0.2409;0.1601
0001809756;6.1339;2.0853;3.1819;0.1729;0.2317;0.1531
0001809764;6.3877;2.1404;3.1484;0.1863;0.2205;0.1471
0001809776;6.1459;1.9944;3.0933;0.1891;0.2105;0.1540
0001809784;6.4883;2.0423;3.0502;0.1832;0.2060;0.1617
0001809795;6.2393;2.1691;3.0622;0.1923;0.1960;0.1712
0001809803;6.5649;2.3822;2.9760;0.1764;0.1860;0.1807
0001809811;6.5984;2.4134;3.1173;0.1573;0.1829;0.1972
0001809823;6.4667;2.7701;3.1723;0.1282;0.1789;0.2086
0001809831;6.5577;2.5738;3.0909;0.1090;0.1745;0.2029
0001809842;6.3303;2.5642;3.1412;0.0782;0.1625;0.2044
0001809850;6.2991;2.3942;3.0406;0.0745;0.1507;0.2010
0001809862;5.9783;1.8435;2.9449;0.0861;0.1290;0.1931
0001809870;6.0597;1.9034;2.8084;0.1183;0.1057;0.1817
0001809878;6.0358;1.8986;2.9066;0.1592;0.0854;0.1687
0001809890;5.9831;1.9130;2.7988;0.2040;0.0604;0.1589
0001809898;6.2201;2.2051;2.7102;0.2290;0.0493;0.1564
0001809966;6.3422;2.4014;2.7701;0.2627;0.0045;0.1951
0001809974;6.3015;2.2960;2.7461;0.2551;0.0065;0.2064
0001809986;6.5673;2.3798;2.8371;0.2543;0.0085;0.2217
0001809994;6.5122;2.3176;2.8036;0.2665;0.0069;0.2226
0001810002;6.4452;2.3631;2.9113;0.2739;0.0057;0.2245
0001810013;6.5146;2.1811;2.8778;0.2749;-0.0077;0.2177
0001810021;6.3398;1.9537;2.8802;0.2726;-0.0212;0.2134
0001810033;6.3997;2.1404;2.8635;0.2681;-0.0496;0.1966
0001810041;6.2513;1.9058;2.9257;0.2589;-0.0727;0.1867
0001810049;6.0621;1.8196;3.0023;0.2405;-0.0874;0.1711
0001810060;6.0549;1.9609;3.0263;0.2062;-0.1296;0.1494
0001810068;5.9951;1.9489;3.1915;0.1691;-0.1573;0.1440
0001810080;5.9951;1.8364;3.1556;0.0997;-0.2208;0.1344
0001810088;6.1794;1.9369;2.8994;0.0476;-0.2498;0.1275
0001810099;5.8778;1.5969;2.6193;0.0111;-0.2815;0.1074
0001810107;6.3542;1.9178;2.3487;0.0112;-0.2797;0.0955
0001810115;6.2848;1.7549;2.2936;0.0161;-0.2667;0.0795
0001810127;6.2608;1.6664;2.4134;0.0215;-0.2585;0.0557
0001810135;6.5625;1.8316;2.4876;0.0250;-0.2550;0.0528
0001810146;6.7900;2.1237;2.6264;0.0143;-0.2461;0.0572
0001810154;6.5338;2.2218;2.8683;0.0013;-0.2607;0.0609
0001810166;6.4907;2.3727;2.8228;-0.0410;-0.2914;0.0686
0001810174;6.2944;2.1859;2.7533;-0.0663;-0.3186;0.0638
0001810242;6.9528;2.8515;2.7701;-0.2765;-0.2856;0.0024
0001810250;6.8714;2.5738;2.5043;-0.3242;-0.2727;-0.0200
0001810258;7.0006;2.3320;2.3798;-0.3523;-0.2567;-0.0390
0001810270;6.9432;1.8387;2.1308;-0.3680;-0.2241;-0.0596
0001810278;7.2784;1.8938;2.0853;-0.3325;-0.1892;-0.0582
0001810289;6.5912;2.0686;2.4110;-0.2539;-0.1973;-0.0337
0001810297;6.5434;2.6145;2.3343;-0.2296;-0.2032;-0.0289
0001810309;6.4260;2.9951;2.5690;-0.2389;-0.2064;-0.0171
0001810317;6.3279;2.9544;2.7294;-0.2514;-0.2077;-0.0100
0001810328;6.6200;2.7342;2.6288;-0.2469;-0.2126;-0.0107
0001810336;6.7900;2.4636;2.5474;-0.2471;-0.2153;-0.0276
0001810344;6.8139;2.0806;2.3320;-0.2479;-0.2000;-0.0401
0001810356;6.4476;1.5610;2.2721;-0.2145;-0.1711;-0.0504
0001810364;6.6870;1.6472;2.0973;-0.1584;-0.1487;-0.0290
0001810375;6.8354;2.0159;2.1715;-0.0806;-0.1047;0.0013
0001810383;7.0629;2.3679;2.2841;-0.0318;-0.0777;0.0373
0001810395;7.2185;2.6504;2.3176;-0.0073;-0.0332;0.1106
0001810403;7.4962;2.7581;2.3966;-0.0083;-0.0153;0.1408
0001810411;7.4460;2.3320;2.4612;-0.0242;-0.0005;0.1679
0001810422;7.5776;1.7358;2.2386;-0.0376;0.0220;0.1755
0001810430;7.2664;1.3240;1.9609;0.0019;0.0381;0.1797
0001810442;7.4795;1.3216;1.4820;0.1499;0.0417;0.2110
0001810450;6.8690;1.9824;1.5897;0.2828;0.0665;0.2594
0001810518;7.6734;1.4006;1.3384;-0.0180;0.3625;0.3832
0001810526;7.1156;0.9026;1.4317;0.0482;0.4114;0.3099
0001810534;6.5218;1.4940;1.4246;0.1158;0.4453;0.2840
0001810546;5.9544;2.3727;1.6520;0.1836;0.4513;0.3176
0001810554;5.7844;3.2058;1.9944;0.1772;0.4410;0.3672
0001810565;5.8778;3.8235;2.5211;0.1043;0.4318;0.4421
0001810573;6.3877;3.6200;2.6767;-0.0232;0.4327;0.4803
0001810585;6.9336;2.4924;2.5426;-0.1591;0.4477;0.4555
0001810593;7.1204;1.3862;2.1428;-0.1577;0.4735;0.4094
0001810601;7.3646;1.0247;1.9609;-0.1136;0.5145;0.3527
0001810613;7.4196;1.2067;1.8579;-0.0438;0.5891;0.2835
0001810621;7.5872;2.0159;2.1859;-0.0228;0.6467;0.2810
0001810633;7.6231;2.9640;2.9473;-0.0089;0.6963;0.3086
0001810641;7.6160;3.4764;3.4692;-0.0318;0.7155;0.3399
0001810652;7.6830;3.8355;3.8403;-0.0978;0.6945;0.3700
0001810660;7.4005;3.2370;3.9361;-0.1514;0.6670;0.3741
0001810668;7.2760;2.3750;3.7685;-0.1338;0.6355;0.3520
0001810680;7.1323;1.5826;3.2322;-0.0104;0.6118;0.2939
0001810688;6.7852;1.2067;2.9951;0.0895;0.5993;0.2258
0001810700;6.6008;1.6185;3.0382;0.2136;0.5890;0.1256
0001810708;6.6846;2.3990;3.2657;0.2658;0.5764;0.0989
0001810720;7.0940;3.6272;3.7661;0.2924;0.5428;0.1150
0001810728;7.3813;4.0007;4.0654;0.2533;0.5267;0.1479
0001810736;8.2672;4.4987;4.4748;0.1769;0.5065;0.1569
0001810804;8.9399;3.1819;3.8140;0.0897;0.6606;0.0024
0001810812;8.8442;3.4572;3.7852;0.1220;0.6612;-0.0208
0001810824;8.7795;3.7373;3.7110;0.1312;0.6511;0.0100
0001810832;8.6933;3.8786;3.5051;0.1250;0.6438;0.0430
0001810843;8.1762;3.1125;3.5147;0.0919;0.6459;0.0974
0001810851;8.0996;2.7605;3.4692;0.0773;0.6506;0.1324
0001810859;8.0038;2.2386;3.4381;0.0642;0.6451;0.1688
0001810871;7.9128;1.9441;3.4357;0.0655;0.6283;0.2066
0001810879;8.0038;1.8483;3.4237;0.0637;0.6174;0.2329
0001810890;8.1738;1.9154;3.4788;0.0582;0.5957;0.2437
0001810898;8.0756;1.8603;3.5027;0.0642;0.5664;0.2498
0001810910;7.8266;1.9130;3.5961;0.0666;0.5247;0.2542
0001810918;7.8171;2.0351;3.3662;0.0618;0.5085;0.2369
0001810926;7.8626;2.0853;3.4261;0.0637;0.4895;0.2138
0001810937;7.9104;2.1955;3.5291;0.0769;0.4630;0.1740
0001810945;8.1930;2.2146;3.5602;0.0958;0.4373;0.1387
0001810957;8.3390;2.3822;3.4931;0.1248;0.4142;0.1025
0001810965;8.3749;2.1835;3.4261;0.1275;0.3989;0.0927
0001810973;8.0780;1.9417;3.4333;0.1231;0.3838;0.0841
0001810984;8.3127;2.1644;3.4069;0.1263;0.3472;0.0857
0001810992;8.0804;1.8603;3.3758;0.1103;0.3283;0.0965
0001811004;7.6112;1.7166;3.2178;0.0889;0.2842;0.1126
0001811012;7.4986;1.8244;3.1891;0.0949;0.2485;0.1286
0001811080;7.3071;1.9896;3.1627;0.0782;-0.0722;0.0376
0001811088;7.2496;2.1452;3.0957;0.0658;-0.1046;0.0037
0001811096;7.2353;1.9920;3.1220;0.0560;-0.1354;-0.0341
0001811108;7.1419;2.0686;3.0071;0.0426;-0.1765;-0.0698
0001811116;6.9384;2.0853;2.8850;0.0369;-0.2104;-0.0899
0001811127;6.9528;2.0566;2.8036;0.0136;-0.2522;-0.1046
0001811135;7.0054;2.1691;2.6169;-0.0017;-0.2803;-0.1120
0001811147;7.1467;1.9704;2.6791;-0.0184;-0.3324;-0.1379
0001811155;7.2329;2.1787;2.6815;-0.0209;-0.3644;-0.1500
0001811166;7.4508;2.4349;2.5881;-0.0350;-0.3837;-0.1696
0001811174;7.5968;2.7533;2.6791;-0.0382;-0.3936;-0.1711
0001811182;7.4029;2.6217;2.6624;-0.0389;-0.3997;-0.1647
0001811194;7.5369;2.5426;2.5762;-0.0120;-0.4080;-0.1507
0001811202;7.5130;2.3032;2.6288;0.0196;-0.4177;-0.1328
0001811213;7.7835;2.5019;2.4636;0.0609;-0.4369;-0.0902
0001811221;7.8410;2.4397;2.3846;0.0933;-0.4672;-0.0649
0001811233;7.7548;2.3607;2.4086;0.1142;-0.4772;-0.0156
0001811241;8.0445;2.5929;2.3583;0.1228;-0.4944;-0.0011
0001811249;7.9990;2.6504;2.4541;0.1368;-0.4982;-0.0017
0001811261;8.0589;2.5762;2.4253;0.1557;-0.4904;-0.0127
0001811269;8.1690;2.7821;2.4253;0.1568;-0.4606;-0.0280
0001811281;8.3366;2.7461;2.4708;0.1644;-0.4117;-0.0641
0001811289;8.4946;2.9449;2.5307;0.1653;-0.3732;-0.0946
0001811356;8.5186;2.0231;3.0454;0.0393;-0.1023;0.0003
0001811364;8.5066;1.9609;3.0287;0.0598;-0.0714;0.0317
0001811375;8.4635;1.8076;2.9664;0.0777;-0.0361;0.0677
0001811383;8.4180;1.7669;2.9688;0.1035;-0.0208;0.0845
0001811391;8.1092;1.6041;2.9951;0.1164;-0.0049;0.1057
0001811403;7.9607;1.5012;2.9856;0.1374;0.0065;0.1156
0001811411;8.0134;1.5562;2.7797;0.1595;0.0139;0.1204
0001811423;7.6686;1.6233;2.6360;0.1848;0.0127;0.1120
0001811431;7.6998;2.0351;2.5833;0.1884;0.0056;0.1045
0001811443;7.8338;2.2697;2.5809;0.1896;-0.0021;0.1021
0001811451;7.5537;2.4038;2.5714;0.1847;-0.0115;0.0951
0001811459;7.7381;2.4469;2.7294;0.1696;-0.0211;0.0949
0001811471;7.9631;2.5235;2.7414;0.1362;-0.0321;0.0862
0001811479;8.2193;2.6360;2.5570;0.1174;-0.0358;0.0829
0001811491;8.1954;2.6049;2.4469;0.1118;-0.0314;0.0662
0001811499;8.3845;2.2697;2.3320;0.0743;-0.0428;0.0715
0001811510;8.3558;2.2889;2.3822;0.0709;-0.0473;0.0620
0001811518;8.0565;2.2218;2.3727;0.0770;-0.0573;0.0545
0001811526;7.9152;2.2146;2.3559;0.0687;-0.0731;0.0420
0001811538;7.5800;2.2505;2.3846;0.0586;-0.0982;0.0153
0001811546;7.5872;2.5953;2.3607;0.0456;-0.1176;0.0105
0001811558;7.5657;2.7414;2.3559;0.0350;-0.1604;-0.0140
0001811566;7.5537;2.7773;2.3439;0.0218;-0.1736;-0.0139
0001811635;8.3222;2.4253;2.0614;0.0276;-0.1980;-0.1061
0001811643;8.3510;2.5857;2.2075;0.0240;-0.1881;-0.0983
0001811651;8.3175;2.8635;2.3032;0.0153;-0.1737;-0.0935
0001811663;8.0469;2.6432;2.2936;-0.0048;-0.1452;-0.0882
0001811671;8.1355;2.6743;2.2841;-0.0205;-0.1302;-0.0831
0001811683;8.1475;2.5379;2.1787;-0.0373;-0.1045;-0.0727
0001811691;8.0852;2.4205;2.1907;-0.0460;-0.0834;-0.0590
0001811703;8.1355;2.1907;2.0279;-0.0442;-0.0606;-0.0456
0001811711;8.0661;2.1404;2.0901;-0.0356;-0.0438;-0.0336
0001811723;7.9033;2.0111;1.9225;-0.0212;-0.0253;-0.0252
0001811731;8.2959;2.2003;2.0231;-0.0155;-0.0143;-0.0217
0001811739;8.0445;2.0183;1.9632;-0.0021;-0.0047;-0.0249
0001811751;8.2361;2.1763;1.9968;0.0049;0.0069;-0.0320
0001811759;8.0565;2.3703;1.9824;-0.0060;0.0181;-0.0401
0001811771;8.0996;2.4541;2.1404;-0.0141;0.0152;-0.0521
0001811779;8.1810;2.4421;2.1644;-0.0313;0.0209;-0.0545
0001811791;7.8554;2.3846;2.0734;-0.0504;0.0099;-0.0671
0001811799;7.8243;2.2913;2.1668;-0.0565;-0.0032;-0.0755
0001811807;7.6710;2.1093;2.0446;-0.0674;-0.0027;-0.0751
0001811819;7.6686;2.0686;2.2529;-0.0698;-0.0197;-0.0886
0001811827;7.5585;2.0518;2.2482;-0.0669;-0.0306;-0.1021
0001811839;7.6231;2.0303;2.2362;-0.0737;-0.0462;-0.1235
0001811847;7.8889;2.2098;2.4110;-0.0775;-0.0707;-0.1430
0001811916;7.5824;2.1452;2.3463;-0.2133;-0.1699;-0.1406
0001811924;7.7907;2.0231;2.2505;-0.2202;-0.1745;-0.1271
0001811936;8.0780;1.9585;2.1739;-0.2076;-0.1867;-0.1139
0001811944;7.9511;1.9345;2.0830;-0.1955;-0.1871;-0.1124
0001811952;7.8458;1.9920;2.1500;-0.1813;-0.1804;-0.1187
0001811964;7.7141;2.3080;2.1739;-0.1713;-0.1777;-0.1478
0001811972;7.7979;2.6169;2.3918;-0.1805;-0.1603;-0.1745
0001811984;7.7524;2.6360;2.5786;-0.2249;-0.1360;-0.2038
0001811992;7.9511;2.5666;2.4876;-0.2621;-0.1212;-0.1997
0001812004;8.0134;2.2793;2.4014;-0.3040;-0.0930;-0.1701
0001812012;7.9751;1.8675;2.2194;-0.3138;-0.0814;-0.1344
0001812024;8.3222;1.8316;1.9417;-0.2735;-0.0629;-0.0620
0001812032;8.0852;1.5323;1.9465;-0.2393;-0.0574;-0.0077
0001812040;8.1211;1.6281;2.1093;-0.2010;-0.0438;0.0458
0001812052;8.4491;2.0446;2.2482;-0.1553;-0.0007;0.0990
0001812060;8.4491;2.3798;2.4541;-0.1495;0.0384;0.1295
0001812072;8.7317;2.5067;2.6624;-0.1607;0.0847;0.1442
0001812081;8.5186;2.3703;2.7701;-0.1716;0.1015;0.1557
0001812094;8.5976;2.1021;2.3822;-0.2121;0.0977;0.1648
0001812103;7.8219;2.0111;2.4924;-0.2000;0.0946;0.1568
0001812116;7.4460;1.9297;2.5498;-0.1828;0.0787;0.1307
0001812125;7.2712;1.6759;2.4756;-0.1857;0.0634;0.1055
0001812134;7.1132;1.6735;2.4301;-0.1783;0.0628;0.0879
0001812204;7.9535;2.4636;2.3727;-0.0594;-0.0898;-0.1627
0001812213;8.5138;2.6408;2.3774;-0.1090;-0.0837;-0.1990
0001812226;7.9416;2.6719;2.7318;-0.1440;-0.0613;-0.2459
0001812235;7.7955;2.2960;2.5833;-0.1988;-0.0821;-0.2558
0001812248;8.1427;1.8268;2.2338;-0.2417;-0.1388;-0.2270
0001812257;7.7357;1.7214;2.1644;-0.2110;-0.1783;-0.2340
0001812266;7.1730;1.8986;2.2266;-0.1583;-0.2112;-0.2403
0001812279;7.2425;2.3679;2.2673;-0.1196;-0.2482;-0.2801
0001812288;7.1012;2.6935;2.4301;-0.0930;-0.2567;-0.3132
0001812301;7.7740;3.0406;2.6719;-0.0943;-0.2598;-0.3460
0001812310;8.0565;2.8994;2.8563;-0.1148;-0.2503;-0.3420
0001812323;8.3366;2.6145;2.6815;-0.1677;-0.2426;-0.3071
0001812332;8.4755;2.1763;2.3463;-0.2028;-0.2543;-0.2654
0001812345;8.6455;1.5275;2.0351;-0.1635;-0.2751;-0.2308
0001812354;8.5329;1.4533;1.7238;-0.1077;-0.2890;-0.2446
0001812363;8.2744;1.6879;1.6209;-0.0512;-0.2986;-0.2646
0001812376;8.0445;2.7581;1.7119;-0.0096;-0.2908;-0.3287
0001812385;7.9655;3.3423;2.2170;-0.0192;-0.2761;-0.3752
0001812398;7.8769;3.7948;3.1196;-0.1146;-0.2294;-0.4138
0001812407;7.9080;3.2298;3.3734;-0.2140;-0.2030;-0.3912
0001812420;8.2361;2.0614;3.0526;-0.2964;-0.2145;-0.3154
0001812429;8.2648;1.3647;2.3918;-0.2730;-0.2735;-0.2725
0001812499;6.8091;2.9640;3.6823;-0.3227;-0.4639;-0.5568
0001812508;6.9408;2.0016;3.5458;-0.4081;-0.4722;-0.4596
0001812517;7.2425;1.4892;2.9640;-0.4175;-0.5227;-0.3564
0001812530;7.0413;1.1133;2.6480;-0.3560;-0.6131;-0.2645
0001812539;6.9145;1.8052;2.6504;-0.3006;-0.6459;-0.2419
0001812552;6.5242;3.0023;2.9664;-0.2389;-0.6944;-0.2741
0001812561;6.6056;4.0175;3.6081;-0.2606;-0.6869;-0.3032
0001812574;6.1004;4.4365;4.9991;-0.3635;-0.6412;-0.3388
0001812583;6.1555;3.5027;4.9057;-0.4395;-0.6314;-0.2860
0001812596;6.5242;1.2378;3.8762;-0.3575;-0.6516;-0.1891
0001812605;6.8163;0.2442;2.9592;-0.1689;-0.6921;-0.1416
0001812618;7.3933;0.4932;2.0303;0.1268;-0.7346;-0.1264
0001812627;7.7141;1.6233;1.7957;0.2623;-0.7352;-0.1430
0001812636;8.1690;3.0933;1.9441;0.3120;-0.7276;-0.1600
0001812649;8.1738;4.7142;3.0574;0.1984;-0.6567;-0.1514
0001812658;8.3103;5.3319;3.9145;0.0317;-0.5700;-0.1252
0001812671;8.0421;4.5825;4.9536;-0.2002;-0.4485;-0.0318
0001812680;7.9631;3.5937;5.1260;-0.2801;-0.3833;0.0593
0001812693;7.9655;2.7007;4.8866;-0.2694;-0.3280;0.1833
0001812702;7.7524;1.9848;4.5107;-0.2138;-0.3014;0.2246
0001812711;8.1092;1.5347;4.1851;-0.1211;-0.2769;0.2172
0001812727;8.7340;1.4246;3.7757;-0.0177;-0.1740;0.1304
0001812736;8.8729;1.4844;3.7637;-0.0292;-0.0954;0.0628
0001812806;3.5051;3.9935;5.3223;-0.1525;-0.0478;0.0941
0001812815;4.0294;3.5243;4.8339;-0.1150;-0.1958;0.1669
0001812827;5.4684;2.2745;4.3144;-0.0584;-0.3436;0.1423
0001812836;6.5673;1.7717;3.9313;-0.0176;-0.4076;0.0719
0001812849;7.3287;1.4054;3.5003;0.0055;-0.4587;-0.0609
0001812858;7.6471;1.5395;3.3184;0.0085;-0.4630;-0.1676
0001812867;7.6375;1.8555;3.1915;0.0125;-0.4580;-0.2691
0001812879;7.5082;2.6240;3.2609;-0.0147;-0.4211;-0.3507
0001812888;7.3981;3.2202;3.4907;-0.0378;-0.4049;-0.3669
0001812901;7.4077;3.8092;3.6847;-0.0875;-0.3603;-0.3420
0001812910;7.1635;3.6512;3.8714;-0.1150;-0.3415;-0.2978
0001812922;7.1994;3.4477;3.8307;-0.1432;-0.3223;-0.2233
0001812931;7.1994;3.0478;3.8666;-0.1508;-0.3134;-0.1844
0001812940;7.3287;2.6097;3.7781;-0.1553;-0.2908;-0.1607
0001812953;7.2449;1.9848;3.6512;-0.1304;-0.2518;-0.1599
0001812962;7.4579;1.9058;3.5434;-0.0945;-0.2109;-0.1636
0001812974;7.5944;1.7933;3.4860;-0.0412;-0.1641;-0.1785
0001812983;7.7907;2.0542;3.4884;-0.0013;-0.1031;-0.1772
0001813053;6.9743;2.2410;3.5985;-0.0533;0.0544;0.0437
0001813062;6.7660;2.1380;3.5123;-0.0561;0.0389;0.0474
0001813074;6.9336;2.1596;3.4213;-0.0585;0.0256;0.0312
0001813083;6.8163;2.0494;3.5841;-0.0586;0.0180;0.0117
0001813092;6.6942;1.9728;3.6966;-0.0821;0.0137;-0.0149
0001813105;6.8929;2.1644;3.6536;-0.1215;0.0024;-0.0548
0001813114;7.0533;2.1883;3.6200;-0.1270;-0.0087;-0.0870
0001813126;7.0773;1.7669;3.5338;-0.1203;-0.0101;-0.1047
0001813135;7.2736;1.9273;3.3782;-0.0963;-0.0152;-0.1079
0001813148;7.1874;1.7071;3.4213;-0.0695;-0.0123;-0.0915
0001813157;7.3358;1.5778;3.4429;-0.0484;-0.0072;-0.0779
0001813169;7.3263;1.7238;3.5099;-0.0211;0.0139;-0.0612
0001813178;7.5298;1.9178;3.4979;-0.0021;0.0350;-0.0421
0001813187;7.5417;1.8890;3.5554;0.0012;0.0481;-0.0248
0001813200;7.3191;1.9441;3.6033;-0.0005;0.0600;0.0035
0001813209;7.4795;2.0758;3.4668;-0.0096;0.0829;0.0081
0001813221;7.0940;1.9249;3.5314;-0.0095;0.0950;0.0261
0001813230;7.0126;1.9369;3.5458;-0.0169;0.1001;0.0345
0001813243;6.7804;1.7837;3.3734;-0.0036;0.0934;0.0320
0001813252;6.7924;1.6328;3.4740;0.0017;0.0839;0.0312
0001813261;6.8618;1.7190;3.5937;0.0124;0.0739;0.0337
0001813273;6.9935;1.8196;3.6009;0.0197;0.0590;0.0388
0001813282;7.0342;1.9369;3.5219;0.0252;0.0370;0.0337
0001813352;7.0006;1.5586;3.3375;0.1152;0.0703;-0.0149
0001813361;7.1515;2.1045;3.2441;0.1196;0.0685;-0.0051
0001813373;6.9576;2.1787;3.3064;0.1216;0.0580;-0.0052
0001813382;7.0940;2.4948;3.3639;0.1108;0.0524;-0.0097
0001813391;7.0102;2.5570;3.3830;0.0909;0.0444;-0.0184
0001813404;6.8235;2.3128;3.3782;0.0737;0.0488;-0.0220
0001813413;6.8546;2.2242;3.3926;0.0889;0.0297;-0.0284
0001813425;6.9360;2.1883;3.2777;0.1239;0.0215;-0.0324
0001813434;6.9911;2.2386;3.2082;0.1541;0.0059;-0.0354
0001813447;7.0844;2.4541;3.1340;0.1541;-0.0055;-0.0318
0001813456;7.0006;2.5379;3.0478;0.1414;-0.0151;-0.0433
0001813465;7.0509;3.0335;3.0885;0.1279;-0.0268;-0.0444
0001813477;6.7995;3.2370;3.1364;0.0616;-0.0354;-0.0424
0001813486;7.0366;3.2322;3.2394;0.0037;-0.0402;-0.0417
0001813499;6.9264;2.9856;3.2034;-0.0859;-0.0545;-0.0362
0001813508;6.9743;2.3942;3.2465;-0.1142;-0.0524;-0.0318
0001813520;6.9456;1.7980;3.2178;-0.1010;-0.0640;-0.0309
0001813529;6.8450;1.4844;3.1484;-0.0666;-0.0686;-0.0388
0001813542;6.7924;1.5682;3.0933;0.0001;-0.0858;-0.0484
0001813551;6.6990;1.6855;3.1723;0.0324;-0.0925;-0.0501
0001813560;6.8666;1.9872;3.1723;0.0338;-0.1081;-0.0545
0001813572;6.9240;2.3727;3.4165;0.0156;-0.1162;-0.0441
0001813581;7.0725;2.3894;3.3854;-0.0007;-0.1283;-0.0366
0001813651;6.4428;1.9369;3.2992;0.0163;-0.1458;-0.0389
0001813660;6.8043;2.2146;3.1771;0.0036;-0.1543;-0.0454
0001813672;6.7732;2.0303;3.1173;0.0088;-0.1564;-0.0388
0001813681;6.6008;1.8004;3.1843;0.0067;-0.1500;-0.0400
0001813690;6.5194;1.8028;3.1053;0.0163;-0.1567;-0.0588
0001813703;6.5457;1.6472;3.0478;0.0512;-0.1659;-0.0737
0001813712;6.4835;1.6472;2.9856;0.0922;-0.1817;-0.0890
0001813724;6.0885;1.6807;3.3303;0.0995;-0.1927;-0.1155
0001813733;6.5170;1.8699;3.2010;0.1128;-0.2170;-0.1246
0001813746;6.4476;2.1237;3.3447;0.0954;-0.2475;-0.1352
0001813755;6.7373;2.2194;3.2585;0.0663;-0.2690;-0.1391
0001813767;6.6918;1.8818;3.0358;0.0139;-0.2787;-0.1359
0001813776;6.8187;1.7645;2.8922;0.0093;-0.2663;-0.1330
0001813785;6.7780;1.4509;2.7677;0.0414;-0.2555;-0.1326
0001813798;6.7349;1.6783;2.8874;0.1073;-0.2442;-0.1346
0001813807;6.8570;2.1668;2.9664;0.1368;-0.2430;-0.1250
0001813819;6.9168;2.5450;3.0742;0.1545;-0.2555;-0.1108
0001813828;6.9815;2.7102;3.0981;0.1348;-0.2710;-0.0982
0001813841;6.8809;2.6935;3.0119;0.0787;-0.2819;-0.0945
0001813850;7.0844;2.3104;2.8683;0.0322;-0.2826;-0.1134
0001813859;6.9384;1.9441;2.8371;0.0073;-0.2601;-0.1247
0001813871;7.0246;1.7573;2.6600;0.0173;-0.2184;-0.1332
0001813880;7.4077;1.9034;2.8132;0.0280;-0.1675;-0.1119
0001813950;7.0773;1.5395;2.5211;0.0176;0.0858;0.0087
0001813959;7.1467;1.8052;2.5953;0.0477;0.0901;0.0370
0001813971;6.9983;2.2769;2.8012;0.0655;0.0991;0.0959
0001813980;6.8450;2.5570;3.0670;0.0274;0.0958;0.1422
0001813989;6.7852;2.4134;3.0095;-0.0056;0.0867;0.1729
0001814002;6.6128;2.0255;2.7366;-0.0620;0.0746;0.1821
0001814011;6.7493;1.7310;2.6025;-0.0906;0.0858;0.1711
0001814023;6.5697;1.1803;2.5019;-0.0867;0.1043;0.1347
0001814032;6.7540;1.0223;2.1835;-0.0649;0.1275;0.1231
0001814045;6.5362;1.1444;2.3128;0.0200;0.1386;0.1403
0001814054;6.4524;1.7310;2.5690;0.0793;0.1539;0.1859
0001814063;6.4883;2.4373;2.5690;0.0978;0.1451;0.2286
0001814075;6.6128;2.6240;2.5402;0.0453;0.1364;0.2910
0001814084;6.6272;2.3990;2.2027;-0.0044;0.1300;0.2914
0001814097;7.0198;1.9561;1.7071;-0.0486;0.1596;0.2682
0001814106;7.1587;1.7980;1.3599;-0.0245;0.1917;0.2266
0001814118;7.3694;2.1237;1.3024;0.0318;0.2582;0.1941
0001814127;7.5369;2.8395;1.4557;0.0718;0.3082;0.2142
0001814136;7.7500;3.5865;1.8196;0.0851;0.3508;0.2745
0001814149;8.0445;4.3215;2.4038;0.0465;0.3780;0.3984
0001814158;7.8099;4.0534;2.7414;-0.0414;0.3880;0.4696
0001814170;7.9033;2.9497;2.7318;-0.1972;0.4138;0.4680
0001814179;7.4651;1.6903;2.4948;-0.2282;0.4355;0.4133
0001814248;6.6870;3.0335;3.1651;-0.0401;0.6266;0.4714
0001814257;6.5170;1.7957;2.9497;-0.1214;0.6142;0.4353
0001814266;6.2584;0.6464;2.7438;-0.0838;0.6226;0.3701
0001814277;6.2010;-0.1413;2.4277;0.0725;0.6431;0.2675
0001814286;6.0693;-0.5746;2.6456;0.2348;0.6582;0.1876
0001814300;6.9145;0.6464;2.7605;0.5092;0.7124;0.1219
0001814309;7.2257;1.9872;3.0837;0.6241;0.7416;0.1348
0001814322;8.6766;4.2234;3.7828;0.6203;0.7528;0.1984
0001814331;9.0525;4.4556;4.0606;0.5385;0.7350;0.2659
0001814340;9.4140;4.6328;3.7326;0.4450;0.7281;0.3180
0001814352;9.0525;4.2449;3.2250;0.3436;0.7252;0.3367
0001814361;8.9399;3.7086;3.0023;0.2966;0.7333;0.3020
0001814374;8.1427;2.9592;2.5594;0.2613;0.7615;0.2467
0001814383;7.6303;2.7701;2.5977;0.2646;0.7890;0.2196
0001814395;7.0916;2.9161;2.9449;0.2825;0.8184;0.2000
0001814404;6.9983;3.4261;3.3639;0.2631;0.8243;0.2174
0001814413;7.0725;3.5099;3.5865;0.2097;0.8184;0.2334
0001814426;6.7445;3.1795;3.7948;0.1510;0.8037;0.2333
0001814435;6.7636;3.0813;3.4572;0.1545;0.7801;0.2232
0001814447;6.2752;2.8946;3.3878;0.1672;0.7318;0.1793
0001814456;6.1866;2.8683;3.3064;0.2016;0.6676;0.1415
0001814465;6.3566;3.1556;3.4596;0.2338;0.5967;0.1136
0001814478;6.8378;3.5027;4.1132;0.2559;0.4639;0.0626
0001814487;7.2209;3.9624;4.5586;0.2545;0.3648;0.0272
0001814557;5.7102;2.3750;3.3088;0.1102;-0.0248;-0.3332
0001814566;5.7581;2.4134;2.8874;0.1340;-0.0633;-0.2519
0001814579;6.5481;2.8252;2.5355;0.1320;-0.1085;-0.1066
0001814588;7.1970;2.8299;2.4900;0.1010;-0.1096;-0.0087
0001814597;7.8243;2.8323;2.6432;0.0797;-0.0911;0.0705
0001814609;8.4036;2.9233;2.9018;0.0350;-0.0313;0.1460
0001814618;8.6431;2.7629;3.0765;0.0147;0.0183;0.1596
0001814631;8.6383;2.4373;3.3351;-0.0188;0.1015;0.1519
0001814640;8.2983;1.9728;3.2968;-0.0152;0.1399;0.1196
0001814652;8.0110;1.5562;3.2202;0.0047;0.1639;0.0750
0001814661;7.7428;1.3551;3.0311;0.0349;0.1458;0.0564
0001814670;7.0629;1.1684;3.0167;0.0705;0.1166;0.0265
0001814683;6.6702;1.2498;3.0622;0.1120;0.0474;-0.0153
0001814692;6.3710;1.4748;3.0047;0.1346;-0.0085;-0.0552
0001814704;6.1627;1.6640;3.0167;0.1230;-0.0687;-0.0961
0001814713;6.2369;1.5945;2.9281;0.1050;-0.0942;-0.1179
0001814726;6.7876;1.9992;2.7653;0.1014;-0.1354;-0.1592
0001814735;6.7277;1.9920;2.7533;0.1086;-0.1507;-0.1811
0001814747;6.9336;2.1955;2.8084;0.1299;-0.1936;-0.2185
0001814756;6.8067;2.4588;2.7988;0.1514;-0.2264;-0.2292
0001814765;6.7971;2.6384;2.7366;0.1615;-0.2566;-0.2214
0001814778;7.0485;3.0574;2.7222;0.1865;-0.3108;-0.2232
0001814787;7.2329;3.1843;2.6049;0.1981;-0.3504;-0.2352
0001814857;7.8386;3.1580;2.5618;0.0577;-0.3583;-0.1073
0001814866;7.7524;3.0167;2.6767;0.0417;-0.3244;-0.0783
0001814879;8.2049;2.9712;2.4157;0.0324;-0.2779;-0.0440
0001814888;7.7452;2.7390;2.5977;0.0400;-0.2673;-0.0151
0001814897;7.7309;2.5642;2.5833;0.0301;-0.2469;-0.0028
0001814909;7.6567;2.3918;2.5905;0.0389;-0.2415;0.0055
0001814918;7.4843;2.4157;2.5594;0.0429;-0.2357;0.0204
0001814931;7.2999;2.1093;2.4708;0.0598;-0.2352;0.0252
0001814940;7.4699;2.2649;2.4852;0.0702;-0.2405;0.0273
0001814952;7.3478;2.2051;2.4565;0.0805;-0.2442;0.0398
0001814961;7.4723;2.1763;2.4373;0.0895;-0.2490;0.0530
0001814970;7.5633;2.3535;2.4062;0.1001;-0.2533;0.0628
0001814983;7.5729;2.4900;2.3176;0.0957;-0.2507;0.0813
0001814992;7.6423;2.3463;2.3583;0.0863;-0.2511;0.0915
0001815004;7.5298;2.0782;2.2529;0.0806;-0.2439;0.1085
0001815013;7.6207;2.0494;2.1500;0.0825;-0.2395;0.1192
0001815026;7.5058;1.9992;1.9537;0.1039;-0.2623;0.1196
0001815035;7.4747;2.0782;1.8890;0.1184;-0.2805;0.1120
0001815044;7.2449;2.2721;1.8028;0.1391;-0.3088;0.0846
0001815056;7.0629;2.7054;1.8364;0.1290;-0.3412;0.0349
0001815065;6.8881;2.9856;1.8124;0.0970;-0.3532;-0.0101
0001815078;6.7995;3.2537;1.9489;0.0324;-0.3652;-0.0746
0001815087;6.8618;3.2417;1.9896;0.0055;-0.3701;-0.1154
0001815157;7.4939;2.3080;1.8531;0.0799;-0.2943;-0.0758
0001815166;7.5585;2.4588;1.7789;0.0845;-0.2858;-0.0498
0001815179;7.5250;2.5235;1.7813;0.0794;-0.2637;-0.0136
0001815188;7.6447;2.5211;1.8004;0.0853;-0.2538;-0.0132
0001815197;7.5202;2.2865;1.7382;0.0822;-0.2364;-0.0116
0001815209;7.7021;2.3463;1.6544;0.0854;-0.2140;-0.0296
0001815218;7.6136;2.4756;1.6783;0.0894;-0.2026;-0.0462
0001815231;7.7452;2.8491;1.7478;0.0747;-0.1821;-0.0648
0001815240;7.6495;2.8922;1.7597;0.0586;-0.1721;-0.0771
0001815252;7.5537;3.0574;1.7741;0.0188;-0.1615;-0.0722
0001815261;7.8889;3.0861;1.6424;-0.0003;-0.1589;-0.0763
0001815270;7.5824;3.1891;1.6041;-0.0087;-0.1597;-0.0733
0001815283;7.5106;3.0526;1.6903;-0.0148;-0.1516;-0.0775
0001815292;7.3933;2.9185;1.6712;-0.0121;-0.1514;-0.0935
0001815304;7.4101;2.9209;1.8459;-0.0023;-0.1529;-0.1172
0001815313;7.3358;2.7485;1.7645;0.0104;-0.1588;-0.1296
0001815326;7.2520;2.6240;1.8196;0.0169;-0.1567;-0.1500
0001815335;7.5896;2.9497;1.8459;0.0101;-0.1404;-0.1450
0001815347;7.6926;2.8587;1.6376;0.0032;-0.1190;-0.1270
0001815356;7.7716;3.1053;1.6305;-0.0015;-0.0999;-0.1082
0001815365;7.7333;3.0574;1.6281;-0.0163;-0.0794;-0.0734
0001815378;7.6974;3.2729;1.5179;-0.0566;-0.0552;-0.0290
0001815387;7.6040;3.1963;1.5682;-0.0943;-0.0382;-0.0008
0001815457;6.6894;1.7765;1.5060;-0.1432;-0.1391;0.0055
0001815466;6.6990;1.8507;1.4413;-0.1298;-0.1807;-0.0113
0001815479;7.0390;2.1308;1.6520;-0.1463;-0.2080;-0.0300
0001815488;7.2903;2.2817;1.8028;-0.1612;-0.2046;-0.0400
0001815500;7.7620;2.0686;1.8890;-0.2060;-0.1951;-0.0449
0001815509;7.8745;1.8196;1.9106;-0.2289;-0.1740;-0.0193
0001815518;8.2959;1.7238;1.8196;-0.2421;-0.1560;0.0140
0001815531;8.1092;1.2282;1.8675;-0.2555;-0.1203;0.0658
0001815540;7.9918;0.8930;1.9201;-0.2597;-0.0869;0.1126
0001815552;7.9392;0.6201;1.9225;-0.2270;-0.0802;0.1719
0001815561;7.9607;0.3879;1.6616;-0.1892;-0.0766;0.2206
0001815574;7.6160;0.2753;1.1756;-0.1026;-0.1092;0.2774
0001815583;7.2568;0.5028;1.0199;-0.0196;-0.1470;0.2738
0001815592;6.8570;1.1540;1.0630;0.0751;-0.1787;0.2284
0001815604;6.5410;2.2865;1.1325;0.1772;-0.2114;0.0893
0001815613;6.7684;3.3950;1.3551;0.1986;-0.2166;-0.0358
0001815626;7.1563;4.8985;1.8866;0.1207;-0.2174;-0.2001
0001815635;7.3167;5.0877;2.0614;-0.0055;-0.2321;-0.2545
0001815647;7.3622;4.4819;2.0279;-0.2033;-0.2779;-0.2305
0001815656;7.3119;3.6990;2.0111;-0.3359;-0.3055;-0.1791
0001815669;6.9576;2.4325;1.9249;-0.4466;-0.3335;-0.0926
0001815678;7.0533;1.8794;1.8244;-0.4667;-0.3495;-0.0545
0001815687;7.1084;1.4078;1.8507;-0.4594;-0.3435;-0.0133
0001815757;7.6974;1.8076;1.7717;-0.3118;-0.2685;-0.0552
0001815766;7.7309;2.1404;1.7933;-0.2662;-0.2597;-0.1132
0001815780;7.8578;2.5426;2.0446;-0.2266;-0.2322;-0.2089
0001815789;7.9799;3.0311;2.1859;-0.2236;-0.2090;-0.2685
0001815802;8.0756;3.3710;2.4325;-0.2417;-0.1756;-0.2791
0001815811;7.9344;2.7438;2.1572;-0.3167;-0.1809;-0.2256
0001815823;7.7141;1.8364;1.5251;-0.3551;-0.2357;-0.1299
0001815832;7.5369;1.3958;1.4509;-0.3321;-0.3095;-0.0910
0001815841;7.5561;1.5706;1.4246;-0.2968;-0.3679;-0.1102
0001815854;7.4723;2.0016;1.6640;-0.2389;-0.4128;-0.2216
0001815863;7.4795;2.4708;1.8938;-0.2016;-0.4265;-0.3106
0001815875;7.8530;3.2944;2.4541;-0.1863;-0.4249;-0.4438
0001815884;8.1331;3.5219;3.0358;-0.2551;-0.4214;-0.4565
0001815897;8.1930;3.0406;3.3088;-0.3942;-0.4459;-0.3200
0001815906;8.1403;2.2075;3.1556;-0.4696;-0.4672;-0.1843
0001815918;8.1283;0.9122;2.3176;-0.4832;-0.4710;-0.0175
0001815927;8.5401;0.3543;1.9417;-0.4171;-0.4706;0.0454
0001815936;8.8107;0.8715;1.9824;-0.3222;-0.4634;0.0365
0001815949;8.8466;1.9609;2.0973;-0.2657;-0.4000;-0.0393
0001815958;8.8992;2.9904;2.2841;-0.3138;-0.3134;-0.0925
0001815970;9.0932;3.7302;3.1173;-0.4243;-0.1467;-0.1568
0001815979;8.7843;3.1699;3.5291;-0.4983;-0.0233;-0.1752
0001816048;4.7764;4.0151;4.0869;0.2994;-0.3273;-0.0113
0001816057;5.4181;5.5138;4.6088;0.3443;-0.3513;-0.0574
0001816069;6.4189;6.0980;4.9201;0.2049;-0.3577;-0.0306
0001816078;7.7357;5.4875;4.9871;0.0545;-0.3671;0.0312
0001816087;8.7652;4.1563;4.6112;-0.0361;-0.3573;0.0737
0001816100;9.8928;2.7174;3.7254;-0.0785;-0.2983;0.1286
0001816109;9.9814;2.0614;3.2633;-0.0661;-0.2481;0.1146
0001816121;9.6965;1.9728;2.7461;-0.0405;-0.1380;0.0622
0001816130;9.1746;2.6432;2.7845;-0.0420;-0.0370;0.0161
0001816143;8.1403;3.8523;3.5267;-0.1015;0.0805;-0.0540
0001816152;7.4148;4.4125;3.9600;-0.1793;0.1448;-0.0625
0001816161;6.7349;4.3335;4.3838;-0.2761;0.1912;-0.0393
0001816173;6.4787;3.5769;4.6304;-0.3206;0.1907;0.0125
0001816182;6.1746;3.0047;4.5298;-0.2859;0.1588;0.0713
0001816195;6.2584;2.5115;4.3981;-0.1960;0.0762;0.1255
0001816204;6.3470;2.8084;4.5945;-0.1246;0.0025;0.1576
0001816216;6.2848;3.6033;4.4819;-0.0361;-0.1075;0.2328
0001816225;6.4189;4.5514;4.3191;0.0173;-0.1836;0.3000
0001816238;6.7612;4.9464;4.0031;0.0302;-0.2325;0.3532
0001816247;7.6830;4.6543;3.8858;0.0168;-0.2109;0.3254
0001816256;8.6814;3.7804;3.5530;-0.0109;-0.1628;0.2495
0001816268;9.0764;2.4828;3.0861;-0.0592;-0.0823;0.1549
0001816277;9.2919;1.7047;2.7701;-0.0711;-0.0059;0.1018
0001816345;6.5625;2.0925;3.1556;-0.1612;0.3480;0.0153
0001816354;6.6128;1.9609;3.1029;-0.1391;0.3296;0.0453
0001816366;6.6702;1.6879;3.1005;-0.0823;0.2966;0.0918
0001816375;6.6176;1.5395;3.0861;-0.0242;0.2725;0.1276
0001816384;6.9192;1.4509;3.0311;0.0428;0.2491;0.1387
0001816397;7.3574;1.7238;3.0526;0.1015;0.2277;0.1527
0001816406;7.4939;1.6137;2.9975;0.1310;0.2130;0.1442
0001816418;7.5753;1.7813;3.0813;0.1402;0.2149;0.1328
0001816427;7.5609;1.6951;3.0143;0.1398;0.2196;0.1187
0001816440;7.7835;1.9082;2.9951;0.1330;0.2249;0.1081
0001816449;7.7979;1.9704;3.0526;0.1442;0.2281;0.1023
0001816458;7.8123;1.9201;3.1173;0.1460;0.2214;0.1005
0001816470;7.7500;2.0566;3.0406;0.1480;0.2284;0.1078
0001816479;7.6806;2.2553;3.0526;0.1388;0.2272;0.1208
0001816492;7.9823;2.4708;3.0742;0.1412;0.2278;0.1162
0001816501;7.9464;2.4948;3.0119;0.1356;0.2300;0.1104
0001816510;7.7812;2.5570;3.0861;0.1439;0.2317;0.0999
0001816522;7.7093;2.5570;3.2585;0.1479;0.2232;0.0666
0001816531;7.5489;2.4588;3.1891;0.1527;0.2130;0.0457
0001816544;7.0342;2.3056;3.2585;0.1488;0.2042;0.0216
0001816553;7.3406;2.2242;3.2274;0.1665;0.1860;0.0084
0001816565;7.0222;1.9465;3.1963;0.1621;0.1616;0.0084
0001816574;7.1802;2.0063;3.2178;0.1624;0.1344;0.0226
0001816583;7.0509;1.9393;3.2489;0.1672;0.0958;0.0320
0001816652;7.6231;2.4205;3.0335;0.2074;-0.0594;-0.0326
0001816661;7.7333;2.4636;2.9688;0.2084;-0.0564;-0.0421
0001816673;7.9152;2.5786;2.8994;0.1867;-0.0501;-0.0462
0001816682;7.6207;2.3703;2.9233;0.1644;-0.0460;-0.0457
0001816695;7.8195;2.5594;2.9329;0.1443;-0.0436;-0.0356
0001816704;7.6998;2.4588;2.8778;0.1263;-0.0340;-0.0184
0001816713;7.8602;2.3367;2.9616;0.1187;-0.0370;-0.0123
0001816725;7.7021;2.0997;2.9544;0.1234;-0.0345;0.0015
0001816734;7.6974;2.2170;2.9473;0.1411;-0.0448;-0.0101
0001816747;7.5010;2.2721;3.0478;0.1490;-0.0485;-0.0204
0001816756;7.6040;2.3343;3.1125;0.1523;-0.0589;-0.0386
0001816768;7.3813;2.2721;3.1747;0.1628;-0.0674;-0.0686
0001816777;7.1994;2.0566;3.1196;0.1731;-0.0781;-0.0933
0001816790;7.2760;2.0016;3.2010;0.2093;-0.1077;-0.1364
0001816799;7.2999;1.8316;3.0789;0.2168;-0.1188;-0.1360
0001816808;7.4460;1.6400;2.9712;0.2305;-0.1262;-0.1394
0001816820;7.7189;1.9130;2.8204;0.2458;-0.1274;-0.1438
0001816829;7.7955;2.0231;2.7773;0.2621;-0.1242;-0.1500
0001816842;7.9535;2.3990;2.6073;0.2414;-0.1037;-0.1406
0001816851;8.2241;3.0263;2.5019;0.2120;-0.0798;-0.1287
0001816863;8.2241;3.0454;2.5809;0.1330;-0.0316;-0.1079
0001816872;8.4611;3.3926;2.5450;0.0659;-0.0012;-0.0947
0001816881;8.4779;3.4596;2.5331;0.0000;0.0325;-0.0927
0001816950;7.6303;2.6504;2.7940;-0.1797;0.1302;0.0265
0001816959;7.4436;2.6025;2.7031;-0.1840;0.1292;0.0364
0001816971;7.6471;2.6480;2.7294;-0.1956;0.1359;0.0474
0001816980;7.5657;2.7797;2.7270;-0.2016;0.1370;0.0448
0001816993;7.6207;2.8826;2.9281;-0.2256;0.1403;0.0506
0001817002;7.6375;3.0191;2.8898;-0.2546;0.1428;0.0512
0001817011;7.2975;2.6695;2.7533;-0.2673;0.1362;0.0394
0001817023;6.8953;2.0351;2.4110;-0.2677;0.1168;0.0364
0001817032;6.9480;1.9944;2.4373;-0.2489;0.0979;0.0285
0001817045;7.0126;1.8818;2.2194;-0.1940;0.0509;0.0181
0001817054;6.7157;1.8076;2.2625;-0.1568;0.0132;0.0113
0001817066;6.7421;1.9752;2.3822;-0.1254;-0.0376;-0.0065
0001817075;6.6248;2.1237;2.3846;-0.1103;-0.0663;-0.0168
0001817088;6.4524;1.8483;2.4493;-0.0817;-0.0931;-0.0372
0001817097;7.1084;2.1117;2.3727;-0.0626;-0.0925;-0.0436
0001817106;7.2616;1.8435;2.2721;-0.0201;-0.0885;-0.0549
0001817118;7.7644;2.2673;2.2434;0.0248;-0.0657;-0.0466
0001817127;7.9152;2.3320;2.2410;0.0506;-0.0508;-0.0460
0001817140;7.8338;2.7031;2.2434;0.0645;-0.0167;-0.0100
0001817149;7.8841;2.7677;2.2242;0.0500;0.0059;0.0201
0001817161;7.7596;2.7605;2.4038;0.0321;0.0234;0.0622
0001817170;7.5800;2.8395;2.4588;0.0330;0.0270;0.0846
0001817179;7.2640;2.7509;2.5426;0.0346;0.0314;0.0927
0001817248;7.0820;2.4134;2.6240;-0.0004;-0.1593;-0.0682
0001817257;6.9647;2.3631;2.5618;-0.0071;-0.1927;-0.0929
0001817269;7.1994;2.4349;2.5019;-0.0051;-0.2186;-0.1001
0001817278;6.9911;2.3320;2.4804;0.0025;-0.2453;-0.1083
0001817292;7.0988;2.2505;2.4301;-0.0072;-0.2517;-0.0971
0001817301;7.3095;2.3487;2.5235;-0.0159;-0.2611;-0.0865
0001817314;7.1467;2.1117;2.5498;-0.0253;-0.2670;-0.0638
0001817323;7.3717;2.3080;2.4876;-0.0292;-0.2734;-0.0534
0001817332;7.3550;2.2266;2.3942;-0.0230;-0.2891;-0.0514
0001817344;7.2616;1.9178;2.3224;-0.0120;-0.2950;-0.0514
0001817353;7.1658;1.9178;2.1548;0.0055;-0.3007;-0.0617
0001817366;7.1419;1.7909;2.1787;0.0409;-0.2992;-0.0762
0001817375;7.2353;1.8507;2.1668;0.0751;-0.3018;-0.0821
0001817387;7.2903;1.8603;2.2075;0.1030;-0.2988;-0.0789
0001817396;7.5250;2.1141;2.2793;0.1120;-0.2947;-0.0798
0001817405;7.6447;2.2673;2.3487;0.1179;-0.2934;-0.0773
0001817418;7.6495;2.3152;2.3391;0.1139;-0.2774;-0.0875
0001817427;7.4747;2.2410;2.2122;0.1067;-0.2478;-0.0850
0001817439;7.6447;2.3679;1.9513;0.1315;-0.2209;-0.0994
0001817448;7.3694;2.2314;1.9704;0.1589;-0.2048;-0.1106
0001817517;7.0054;2.6935;2.1572;0.1519;-0.2341;-0.1793
0001817526;6.9767;2.4205;2.1237;0.1260;-0.2333;-0.1985
0001817538;7.1275;2.3008;2.1045;0.1198;-0.2300;-0.2206
0001817547;7.3502;2.1907;2.3080;0.1182;-0.2162;-0.2281
0001817556;7.5106;2.2434;2.3104;0.1327;-0.2050;-0.2213
0001817569;7.7069;2.2266;2.4038;0.1419;-0.1749;-0.1869
0001817578;7.5872;2.2601;2.4900;0.1466;-0.1539;-0.1752
0001817590;7.7117;2.3942;2.5163;0.1312;-0.1128;-0.1628
0001817599;7.5872;2.2601;2.6193;0.1250;-0.0863;-0.1737
0001817612;7.7500;2.3583;2.6408;0.0882;-0.0679;-0.1679
0001817621;7.3717;2.1524;2.6145;0.0458;-0.0644;-0.1535
0001817630;7.5465;2.3032;2.7126;0.0157;-0.0665;-0.1338
0001817642;7.1970;2.1979;2.5283;-0.0302;-0.0574;-0.1132
0001817651;6.8067;1.8627;2.4541;-0.0596;-0.0480;-0.1065
0001817664;6.7804;1.7837;2.4612;-0.1207;-0.0466;-0.1164
0001817673;6.7421;1.8316;2.5618;-0.2081;-0.0306;-0.1319
0001817685;6.8594;1.8723;2.8132;-0.3472;-0.0328;-0.1757
0001817694;6.8738;1.5467;2.9592;-0.4838;-0.0301;-0.2188
0001817707;6.7373;1.2139;2.9449;-0.6664;-0.0442;-0.3031
0001817716;6.3901;0.6057;2.7126;-0.7654;-0.0478;-0.3584
0001817725;5.9951;0.2322;2.3439;-0.8259;-0.0810;-0.4171
0001817737;5.7126;-0.3591;1.8723;-0.8567;-0.1100;-0.4509
0001817746;5.8754;-0.4453;1.5155;-0.8119;-0.1512;-0.4501
0001817815;7.8458;6.2225;3.9289;-0.4014;-0.2330;0.3412
0001817824;6.9097;4.7956;3.3782;-0.5786;-0.2555;0.4133
0001817836;6.9073;2.0446;2.8802;-0.6639;-0.2205;0.3958
0001817845;7.2712;0.5291;2.6695;-0.5914;-0.1764;0.3301
0001817858;7.8314;-0.3687;2.5115;-0.4004;-0.0621;0.1953
0001817867;8.1858;0.3112;2.5929;-0.2938;0.0465;0.1027
0001817876;8.1403;1.2833;2.9688;-0.2258;0.1475;0.0398
0001817888;8.5066;2.9999;3.7589;-0.2583;0.2619;0.0446
0001817897;8.8155;4.0701;4.0414;-0.3617;0.3324;0.1015
0001817910;8.1930;4.7022;3.9002;-0.5464;0.3404;0.1371
0001817919;6.9743;3.9935;3.5434;-0.7052;0.3232;0.1167
0001817931;6.3422;2.5570;2.9329;-0.8001;0.3066;0.1199
0001817940;5.8706;1.5036;2.6288;-0.7502;0.2775;0.1077
0001817949;5.7365;1.1349;2.6097;-0.6230;0.2734;0.1078
0001817962;6.2513;1.7933;3.1795;-0.3339;0.2354;0.1296
0001817971;6.8809;2.6791;3.6727;-0.2288;0.2109;0.1935
0001817983;7.5250;3.4333;4.2234;-0.2809;0.1769;0.2426
0001817992;7.8578;3.0478;4.0103;-0.3904;0.1837;0.2538
0001818005;7.3981;1.3168;3.4764;-0.4265;0.2345;0.1965
0001818014;7.4531;0.1437;3.0718;-0.3356;0.3058;0.1268
0001818023;7.4460;-0.6752;2.9090;-0.2090;0.4085;0.0397
0001818035;7.7309;-0.6345;3.2489;-0.0052;0.5307;-0.0458
0001818044;7.6423;0.5411;3.5698;0.1503;0.5697;-0.0456
0001818114;6.8498;1.0199;3.0311;0.1627;0.5364;0.0226
0001818123;6.9192;1.5490;2.9640;0.2844;0.5344;0.0141
0001818135;7.3502;2.9161;3.5650;0.3722;0.4854;0.0959
0001818144;7.4891;3.8930;4.5346;0.3299;0.4366;0.1414
0001818153;7.3358;4.5490;5.5043;0.2209;0.4171;0.1416
0001818166;7.8793;4.9871;5.0326;0.1691;0.4505;0.0480
0001818175;8.4827;4.8123;4.6663;0.2006;0.5297;-0.0951
0001818187;9.1219;3.6152;4.3838;0.2368;0.6472;-0.2318
0001818196;8.4228;3.0789;3.9433;0.3187;0.6516;-0.2749
0001818209;5.6216;3.3399;3.8930;0.4610;0.5566;-0.2494
0001818218;4.5107;4.0151;4.2138;0.4923;0.4554;-0.1540
0001818227;4.1156;4.5322;4.3048;0.4221;0.3357;-0.0292
0001818239;4.0821;4.4365;4.2832;0.2160;0.1939;0.1132
0001818248;4.5394;4.0342;4.0677;0.1001;0.0885;0.1852
0001818261;5.3079;3.4022;3.7996;0.0168;-0.0448;0.2405
0001818270;6.0980;3.2537;3.7804;-0.0127;-0.1103;0.2341
0001818282;6.9671;2.8299;3.7589;-0.0604;-0.1664;0.1759
0001818291;7.5633;2.4756;3.6990;-0.0857;-0.1796;0.1111
0001818300;7.9535;2.1213;3.7302;-0.1278;-0.1757;0.0441
0001818313;8.1977;1.8794;3.7134;-0.1817;-0.1609;-0.0289
0001818322;8.2791;1.7741;3.5721;-0.2088;-0.1502;-0.0674
0001818334;8.1187;1.5419;3.5291;-0.2374;-0.1099;-0.0863
0001818343;7.6447;1.1995;3.6176;-0.2286;-0.0739;-0.0862
0001818412;6.8714;2.0351;3.6536;0.1440;0.0345;0.1208
0001818421;6.7397;2.1141;3.6607;0.1532;0.0185;0.1354
0001818433;6.8809;2.2865;3.6966;0.1516;-0.0060;0.1416
0001818442;6.7014;2.1763;3.7733;0.1348;-0.0329;0.1395
0001818451;6.8594;2.3487;3.6727;0.1183;-0.0659;0.1227
0001818464;6.5649;2.0039;3.7182;0.1126;-0.1164;0.0907
0001818473;6.6870;2.0638;3.6224;0.1148;-0.1455;0.0705
0001818485;6.6080;2.0303;3.5985;0.1320;-0.1799;0.0454
0001818494;6.5817;1.8962;3.6200;0.1620;-0.2117;0.0304
0001818507;6.6894;1.8794;3.5769;0.1841;-0.2252;0.0069
0001818516;6.7660;2.0662;3.6057;0.1813;-0.2523;-0.0029
0001818525;6.8522;2.1189;3.6440;0.1744;-0.2609;-0.0023
0001818537;6.9959;2.2577;3.6440;0.1597;-0.2711;-0.0093
0001818546;6.8354;2.0207;3.6296;0.1460;-0.2725;-0.0179
0001818559;6.9001;1.9896;3.5314;0.1419;-0.2630;-0.0151
0001818568;7.1156;2.0375;3.5698;0.1595;-0.2531;-0.0175
0001818580;7.3334;2.1596;3.6823;0.1584;-0.2326;0.0037
0001818589;7.2257;2.1021;3.6248;0.1733;-0.2121;0.0173
0001818598;7.5250;2.1189;3.8044;0.1563;-0.1927;0.0217
0001818611;7.3957;2.2003;3.8403;0.1198;-0.1740;0.0313
0001818620;7.3981;2.2745;3.7661;0.1007;-0.1588;0.0298
0001818632;7.2544;2.2027;3.6895;0.0747;-0.1387;0.0212
0001818641;6.9599;2.1620;3.6679;0.0666;-0.1191;0.0092
0001818711;6.6798;2.2242;3.6943;-0.1334;-0.1887;-0.0789
0001818720;6.7612;2.4349;3.7014;-0.1544;-0.2001;-0.1011
0001818729;6.7301;2.2170;3.7948;-0.1816;-0.1996;-0.1067
0001818741;6.8618;2.3056;3.8858;-0.1899;-0.2012;-0.1246
0001818750;7.0174;2.3487;3.9863;-0.2152;-0.2098;-0.1254
0001818764;7.1587;2.2936;3.9073;-0.2372;-0.2094;-0.1139
0001818773;7.1970;2.1955;3.8738;-0.2487;-0.2004;-0.1058
0001818786;7.2760;2.0423;3.8211;-0.2507;-0.1761;-0.1006
0001818795;7.4412;2.0183;3.7709;-0.2498;-0.1470;-0.1023
0001818807;7.4124;1.8675;3.7445;-0.2441;-0.1146;-0.0953
0001818816;7.3358;1.7765;3.8355;-0.2352;-0.0921;-0.0867
0001818829;7.3310;1.6664;3.6895;-0.2284;-0.0598;-0.0613
0001818838;7.2736;1.5299;3.7062;-0.2142;-0.0357;-0.0413
0001818847;7.2784;1.7358;3.8140;-0.1936;-0.0167;-0.0310
0001818859;7.5992;1.9201;3.7613;-0.1785;0.0147;-0.0057
0001818868;7.4891;1.9130;3.8235;-0.1688;0.0264;-0.0045
0001818881;7.5944;2.1356;3.8259;-0.1707;0.0650;0.0048
0001818890;7.4627;1.9513;3.8571;-0.1759;0.0914;0.0081
0001818902;7.3694;2.1859;3.9265;-0.1921;0.1082;0.0075
0001818911;7.3813;2.3320;3.7972;-0.2058;0.1079;0.0073
0001818920;7.1754;2.1452;3.6416;-0.2097;0.1053;0.0156
0001818933;7.0366;1.9369;3.6559;-0.2148;0.1017;0.0209
0001818942;7.0629;1.9680;3.6607;-0.2045;0.0874;0.0238
0001819012;7.5441;2.0638;3.4596;-0.0683;-0.0242;0.0798
0001819021;7.6231;1.7837;3.4907;-0.0604;-0.0196;0.0810
0001819034;7.4819;1.7693;3.4500;-0.0285;-0.0152;0.0859
0001819043;7.3526;1.5826;3.4644;0.0080;-0.0183;0.0779
0001819052;7.3885;1.7885;3.4477;0.0265;-0.0113;0.0843
0001819064;7.4939;2.0662;3.4740;0.0544;-0.0172;0.0818
0001819073;7.2185;2.0997;3.5195;0.0624;-0.0277;0.0735
0001819086;7.1658;2.2194;3.5314;0.0574;-0.0398;0.0742
0001819095;7.1826;2.1476;3.5721;0.0525;-0.0410;0.0785
0001819107;7.1443;2.1955;3.5458;0.0628;-0.0538;0.0778
0001819116;7.5633;2.1404;3.4572;0.0797;-0.0625;0.0858
0001819125;7.2353;1.9321;3.5267;0.1022;-0.0758;0.0923
0001819138;7.4915;2.1428;3.3351;0.1319;-0.0863;0.0969
0001819147;7.6064;2.3224;3.4429;0.1394;-0.0813;0.0905
0001819159;7.5034;2.5642;3.5195;0.1315;-0.0742;0.0577
0001819168;7.6016;2.5881;3.5937;0.1030;-0.0655;0.0356
0001819181;7.6112;2.5379;3.5937;0.0886;-0.0679;-0.0023
0001819190;7.4891;2.3152;3.4692;0.0654;-0.0669;-0.0200
0001819199;7.3717;2.1548;3.6799;0.0654;-0.0577;-0.0353
0001819211;7.6734;2.1955;3.4716;0.0609;-0.0494;-0.0501
0001819220;7.6495;1.7885;3.5338;0.0582;-0.0285;-0.0550
0001819233;7.7812;1.8866;3.5458;0.0671;0.0044;-0.0657
0001819242;7.6471;1.9561;3.6727;0.0594;0.0392;-0.0616
0001819312;7.3239;1.9824;3.5123;0.1067;0.0212;0.1252
0001819321;7.3598;1.7549;3.4022;0.1224;-0.0028;0.1244
0001819334;7.3454;1.5227;3.2753;0.1340;-0.0246;0.1224
0001819343;7.4699;1.5586;3.2633;0.1396;-0.0325;0.1114
0001819352;7.4364;1.3910;3.2777;0.1568;-0.0397;0.0957
0001819364;7.7261;1.7358;3.2585;0.1571;-0.0370;0.0763
0001819373;7.7021;1.9752;3.1388;0.1529;-0.0414;0.0693
0001819386;7.4292;2.2529;3.2082;0.1415;-0.0554;0.0486
0001819395;7.3837;2.3822;3.2657;0.1186;-0.0594;0.0412
0001819407;7.3765;2.4493;3.2944;0.0875;-0.0667;0.0394
0001819416;7.1371;2.2625;3.2465;0.0821;-0.0699;0.0402
0001819425;7.3382;2.1189;3.2609;0.0853;-0.0703;0.0386
0001819438;7.4531;1.9489;3.1149;0.1037;-0.0618;0.0340
0001819447;7.7333;1.9178;3.1819;0.1002;-0.0438;0.0352
0001819459;7.7333;1.8579;3.2298;0.1059;-0.0324;0.0318
0001819468;7.9751;2.1644;3.1723;0.0929;-0.0195;0.0408
0001819481;7.7093;2.0351;3.1005;0.0769;-0.0032;0.0659
0001819490;7.6662;2.0255;3.0837;0.0605;0.0180;0.0903
0001819499;7.5106;1.9201;3.1053;0.0191;0.0482;0.1299
0001819511;7.4340;1.8148;3.0813;-0.0432;0.0826;0.1784
0001819520;7.5465;1.4868;3.0119;-0.0886;0.0879;0.2161
0001819533;7.5513;1.1061;3.0694;-0.1689;0.1049;0.2618
0001819542;7.5441;0.7661;3.1508;-0.1948;0.1085;0.2727
0001819612;7.8003;1.7190;2.4493;-0.1182;0.1151;0.0048
0001819621;7.4962;2.0710;2.6001;-0.1494;0.1347;-0.0445
0001819630;7.6662;2.0925;2.7054;-0.1811;0.1669;-0.0793
0001819643;7.6758;1.9752;2.8108;-0.1792;0.2310;-0.1403
0001819652;7.8075;1.9345;2.8970;-0.1464;0.2850;-0.1829
0001819664;7.7428;1.6592;2.8778;-0.0791;0.3054;-0.2109
0001819673;7.6974;1.3910;2.7869;-0.0285;0.2943;-0.2008
0001819686;7.3239;1.1899;2.6647;0.0649;0.2332;-0.1723
0001819695;7.0390;1.1899;2.5235;0.1298;0.1788;-0.1516
0001819704;6.7588;1.4317;2.4924;0.1813;0.1388;-0.1302
0001819716;6.0597;1.7645;2.6001;0.2042;0.0755;-0.1499
0001819725;5.9017;2.2601;2.7869;0.1752;0.0368;-0.1712
0001819738;6.8953;3.3998;3.1675;0.1187;-0.0322;-0.2064
0001819747;7.2042;3.6871;3.5961;0.0556;-0.0609;-0.2356
0001819759;7.6207;3.9385;3.8810;-0.0373;-0.0685;-0.2586
0001819768;8.2576;3.6966;3.9193;-0.0947;-0.0590;-0.2455
0001819777;8.6383;2.8706;3.8092;-0.1214;-0.0638;-0.2162
0001819790;8.5808;2.0566;3.4429;-0.0659;-0.0713;-0.1725
0001819799;7.9871;1.6209;3.1843;-0.0001;-0.0851;-0.1480
0001819811;7.5848;2.3104;3.0191;0.0518;-0.1081;-0.1525
0001819820;7.9655;3.1963;3.0718;0.0542;-0.1171;-0.1901
0001819833;7.9224;3.8044;3.4477;-0.0394;-0.0909;-0.2457
0001819842;7.9487;3.9002;3.7900;-0.1443;-0.0526;-0.2567
0001819911;8.0254;2.1691;2.1356;0.0995;-0.0963;0.0749
0001819920;7.8243;2.8515;1.9848;0.0566;-0.0965;0.0622
0001819929;7.4915;3.4716;2.3056;-0.0385;-0.0766;0.0417
0001819942;6.6631;3.4189;3.4285;-0.1952;-0.0261;-0.0021
0001819951;7.0701;2.8706;4.0606;-0.3194;-0.0175;0.0095
0001819963;7.2616;1.0702;4.5705;-0.3789;-0.0417;0.0695
0001819972;7.4915;0.3065;4.3886;-0.2807;-0.0675;0.1271
0001819985;7.0677;-0.1053;4.1444;-0.0669;-0.1411;0.1865
0001819994;6.7636;0.8475;3.8547;0.0601;-0.1923;0.1863
0001820006;6.2034;2.7581;3.9265;0.1392;-0.2415;0.1255
0001820015;5.4348;4.4005;4.5442;0.1246;-0.2902;0.0460
0001820024;4.9919;5.5545;5.5210;0.0445;-0.3344;-0.0161
0001820037;4.0103;4.9656;5.9975;-0.1188;-0.4193;-0.0412
0001820046;4.1204;3.4165;5.4851;-0.1645;-0.4955;-0.0438
0001820060;4.7477;1.5921;4.0414;-0.0572;-0.6554;-0.0659
0001820069;5.7437;1.2905;3.1532;0.0201;-0.7538;-0.1136
0001820082;6.6200;1.7645;2.9664;0.0625;-0.8470;-0.2722
0001820091;6.7229;2.3128;3.2872;0.0282;-0.8745;-0.3790
0001820100;7.0006;2.9281;3.7661;-0.0498;-0.8825;-0.4652
0001820112;6.7325;2.7701;4.5298;-0.1821;-0.8324;-0.4990
0001820121;7.0126;2.2242;4.6687;-0.2545;-0.7690;-0.4919
0001820190;7.5513;3.4213;4.3215;0.0329;-0.6332;-0.2643
0001820199;7.2233;3.6871;4.3598;-0.0157;-0.5914;-0.2333
0001820211;7.1539;3.1867;4.3144;-0.0196;-0.5264;-0.1859
0001820220;7.5058;2.5642;4.1228;0.0232;-0.4902;-0.1384
0001820233;8.7771;1.8651;4.1108;0.0779;-0.4044;-0.0646
0001820242;9.3565;1.9178;4.0510;0.0967;-0.3198;-0.0302
0001820251;9.9455;2.0518;4.0366;0.1075;-0.2237;-0.0015
0001820263;9.6678;2.3966;4.1803;0.1116;-0.0855;0.0621
0001820272;9.2033;2.9281;4.3479;0.0969;0.0067;0.1310
0001820286;8.5449;3.7924;4.5538;0.0883;0.1067;0.2434
0001820295;7.8051;3.7254;4.4819;0.0811;0.1326;0.2822
0001820308;7.2185;3.0574;4.3838;0.0845;0.1330;0.2666
0001820317;7.1467;2.7270;4.1132;0.0846;0.1159;0.2213
0001820326;6.6942;2.1476;3.9385;0.1092;0.0826;0.1502
0001820338;6.3973;1.8387;3.5314;0.1296;0.0364;0.0389
0001820347;6.4260;1.7837;3.4237;0.1494;0.0055;-0.0294
0001820360;6.2968;2.2434;3.3232;0.1604;-0.0402;-0.1035
0001820369;6.2249;2.4229;3.3064;0.1500;-0.0818;-0.1279
0001820381;6.6487;2.6815;3.3423;0.1147;-0.1214;-0.1240
0001820390;6.7421;2.4708;3.4500;0.0847;-0.1462;-0.0910
0001820399;7.1180;2.6767;3.4477;0.0490;-0.1735;-0.0645
0001820468;8.1331;2.5690;3.7685;-0.0477;-0.0409;0.0867
0001820477;8.2672;2.3439;3.6943;-0.0442;-0.0092;0.1049
0001820489;8.3270;2.0710;3.6248;-0.0485;0.0260;0.1288
0001820498;8.2791;1.9249;3.6727;-0.0572;0.0565;0.1557
0001820511;8.2193;1.7454;3.6823;-0.0510;0.0927;0.1769
0001820520;7.9799;1.6113;3.6033;-0.0413;0.1026;0.1816
0001820529;7.9152;1.7047;3.6727;-0.0218;0.1108;0.1785
0001820541;7.7668;1.8100;3.5961;-0.0168;0.1246;0.1779
0001820550;7.6734;1.8148;3.5817;-0.0131;0.1318;0.1681
0001820563;7.5034;1.8292;3.4357;-0.0129;0.1459;0.1548
0001820572;7.4819;1.8316;3.4213;-0.0289;0.1623;0.1494
0001820584;7.5513;1.9992;3.4548;-0.0364;0.1712;0.1427
0001820593;7.8171;2.1165;3.3782;-0.0534;0.1883;0.1486
0001820602;7.9033;2.1668;3.3399;-0.0648;0.1981;0.1450
0001820615;7.9464;2.0255;3.3399;-0.0746;0.2194;0.1536
0001820624;7.8171;1.9130;3.3208;-0.0662;0.2285;0.1640
0001820636;7.8219;1.9369;3.3974;-0.0272;0.2418;0.1708
0001820645;7.7931;2.1237;3.4357;-0.0055;0.2507;0.1835
0001820658;7.7237;2.1572;3.3615;0.0285;0.2615;0.1908
0001820667;7.8290;2.4852;3.4022;0.0406;0.2717;0.1851
0001820676;7.5154;2.0949;3.4285;0.0456;0.2799;0.1796
0001820688;7.5681;2.2984;3.5530;0.0504;0.2645;0.1611
0001820697;7.4412;2.3750;3.3375;0.0552;0.2601;0.1552
0001820766;7.3694;2.0590;2.8898;0.1336;0.0285;0.0745
0001820775;7.7309;2.0614;3.0765;0.1358;0.0157;0.0782
0001820787;8.0254;2.0734;3.1412;0.1392;0.0127;0.0837
0001820796;8.1666;2.1835;3.1436;0.1412;0.0237;0.0962
0001820805;8.6359;2.3272;3.0406;0.1394;0.0404;0.0965
0001820818;8.9807;2.6217;2.9951;0.1191;0.0641;0.1026
0001820827;9.0525;2.6312;3.1699;0.0926;0.0802;0.0981
0001820839;9.0860;2.5546;3.1101;0.0508;0.1138;0.1115
0001820848;9.0980;2.4565;3.3758;0.0272;0.1228;0.1226
0001820861;9.0142;2.4660;3.1675;0.0095;0.0981;0.1470
0001820870;8.2983;2.0231;3.1316;0.0089;0.0530;0.1683
0001820879;7.6710;1.7717;2.9928;0.0365;0.0013;0.1757
0001820891;6.9911;1.6712;2.6671;0.0810;-0.0795;0.1631
0001820900;6.6032;1.6759;2.6935;0.0863;-0.1423;0.1396
0001820913;6.3829;2.0207;2.7366;0.0649;-0.2502;0.0911
0001820922;5.9759;1.9632;2.8299;0.0389;-0.3198;0.0572
0001820934;6.3877;2.2386;2.9161;-0.0116;-0.4037;0.0308
0001820943;6.4189;1.8699;2.9688;-0.0413;-0.4526;0.0266
0001820952;6.6463;1.6448;2.8850;-0.0298;-0.5077;0.0246
0001820965;7.4005;1.4820;2.7054;0.0201;-0.5482;0.0456
0001820974;7.7788;1.6855;2.7246;0.0525;-0.5584;0.0727
0001820986;8.1499;1.7214;2.7414;0.0955;-0.5442;0.0881
0001820995;8.3677;1.9800;2.7390;0.1037;-0.5340;0.0842
0001821065;8.3103;1.8148;2.9449;0.1210;-0.2161;0.0625
0001821074;8.2959;1.9680;2.9736;0.1310;-0.1836;0.0621
0001821083;8.0924;1.9656;3.0071;0.1294;-0.1565;0.0669
0001821095;8.1427;2.2601;3.0143;0.1331;-0.1282;0.0702
0001821104;8.0637;2.5307;3.0813;0.1266;-0.1069;0.0794
0001821117;8.0924;2.7533;3.1125;0.1236;-0.0870;0.0930
0001821126;8.1068;2.9856;3.1915;0.1152;-0.0781;0.0966
0001821138;7.8889;2.9305;3.3519;0.0793;-0.0738;0.0995
0001821147;7.9200;3.1340;3.3040;0.0470;-0.0727;0.1088
0001821156;7.9033;3.1053;3.2992;0.0230;-0.0882;0.0990
0001821169;7.9033;3.1101;3.3232;-0.0156;-0.1078;0.0843
0001821178;7.7213;2.9281;3.2801;-0.0376;-0.1315;0.0589
0001821190;7.4388;2.5379;3.3136;-0.0496;-0.1525;0.0175
0001821199;7.5082;2.5091;3.3112;-0.0489;-0.1835;-0.0205
0001821212;7.7213;2.5450;3.2633;-0.0400;-0.2144;-0.0682
0001821221;7.6327;2.2194;3.0574;-0.0288;-0.2414;-0.1063
0001821233;7.3574;2.0542;2.9544;-0.0045;-0.2577;-0.1533
0001821242;7.3813;2.0877;2.8850;0.0181;-0.2663;-0.2006
0001821251;7.4962;2.1763;2.8778;0.0265;-0.2509;-0.2318
0001821264;7.6614;2.1524;2.7150;0.0433;-0.2197;-0.2771
0001821273;7.9080;2.0830;2.4493;0.0614;-0.1915;-0.3027
0001821285;8.2744;2.3200;2.4636;0.0771;-0.1360;-0.3124
0001821294;8.5593;2.1141;2.3511;0.0969;-0.1099;-0.3002
0001821362;7.9847;2.1548;2.5426;0.0320;0.0482;-0.2501
0001821371;7.7548;2.0255;2.5498;0.0663;0.0552;-0.2643
0001821380;7.5010;1.8483;2.4086;0.1043;0.0472;-0.2834
0001821392;7.8410;1.8771;2.2889;0.1308;0.0401;-0.2834
0001821401;8.2049;2.0375;2.3296;0.1496;0.0215;-0.3056
0001821414;8.1714;2.2649;2.4301;0.1426;0.0211;-0.3174
0001821423;7.8290;2.5091;2.6193;0.1342;0.0135;-0.3195
0001821435;7.9368;2.8467;2.6528;0.0929;0.0081;-0.3080
0001821444;7.6902;2.7031;2.6360;0.0554;0.0061;-0.2915
0001821453;7.8937;2.6001;2.6073;0.0272;0.0023;-0.2859
0001821466;7.7764;2.0949;2.3727;0.0056;0.0059;-0.2745
0001821475;7.8650;1.8172;2.2529;0.0163;0.0048;-0.2674
0001821487;8.0445;1.8651;2.1572;0.0440;0.0060;-0.2602
0001821496;8.2169;1.9010;2.0375;0.0747;0.0072;-0.2407
0001821509;8.0493;1.8771;2.2218;0.0919;0.0115;-0.2148
0001821518;8.1594;2.2529;2.0566;0.0973;0.0285;-0.1865
0001821527;8.0254;2.3008;2.1715;0.1051;0.0324;-0.1739
0001821539;7.9272;2.2434;2.3391;0.1057;0.0460;-0.1430
0001821548;8.0709;2.2697;2.3487;0.1065;0.0618;-0.1123
0001821561;7.8147;2.1069;2.4110;0.1252;0.0570;-0.0802
0001821570;7.8123;2.1787;2.4948;0.1395;0.0441;-0.0681
0001821582;7.4603;1.9656;2.4780;0.1471;0.0229;-0.0452
0001821591;7.4244;2.0901;2.4708;0.1545;0.0137;-0.0392
0001821600;7.2760;2.1620;2.4373;0.1533;0.0005;-0.0388
0001821670;7.0605;2.3008;2.4565;0.2471;-0.0978;-0.0184
0001821679;7.1754;2.3224;2.5546;0.2439;-0.1077;-0.0180
0001821691;7.2065;2.2242;2.4948;0.2218;-0.1122;-0.0252
0001821700;7.4555;2.2290;2.4708;0.2029;-0.0949;-0.0314
0001821713;7.3478;1.9680;2.3750;0.1921;-0.0667;-0.0530
0001821722;7.6088;1.9824;2.4421;0.1917;-0.0386;-0.0674
0001821734;7.6662;1.8387;2.5355;0.1915;-0.0072;-0.0722
0001821743;7.8913;1.9441;2.4924;0.1936;0.0196;-0.0632
0001821752;7.7069;1.9034;2.4397;0.1985;0.0305;-0.0662
0001821765;7.7165;2.0231;2.2314;0.1884;0.0400;-0.0749
0001821774;7.1922;1.6783;2.0949;0.1539;0.0530;-0.0797
0001821785;7.3694;1.7789;1.9106;0.1222;0.0537;-0.1066
0001821794;6.9599;1.4006;1.6735;0.0874;0.0645;-0.1077
0001821808;6.8881;1.4054;1.4389;0.0550;0.0666;-0.1179
0001821817;6.8522;1.4293;1.5060;0.0542;0.0613;-0.1107
0001821826;6.7493;1.4246;1.3623;0.0577;0.0533;-0.1062
0001821839;6.6559;1.9489;1.4892;0.0817;0.0360;-0.0847
0001821848;6.7684;2.4086;1.8723;0.0982;0.0157;-0.0658
0001821860;6.7612;2.9018;2.0423;0.0899;-0.0187;-0.0274
0001821869;6.6918;3.0742;2.1213;0.0614;-0.0493;-0.0107
0001821882;6.4596;3.0382;2.0470;-0.0057;-0.0799;0.0035
0001821891;6.6391;2.7294;1.8052;-0.0477;-0.0937;0.0036
0001821900;6.8331;2.3272;1.5658;-0.0813;-0.0811;-0.0051
0001821970;6.1244;2.4086;1.5395;0.0005;0.0358;0.0083
0001821979;5.9544;2.6959;1.3815;0.0236;0.0141;0.0187
0001821992;6.1842;2.6600;1.1636;0.0576;-0.0260;0.0497
0001822001;6.6774;2.7916;1.1971;0.0749;-0.0348;0.0850
0001822013;7.1323;3.1603;1.6616;0.0871;-0.0388;0.1282
0001822022;7.5824;3.6751;1.9561;0.0598;-0.0284;0.1488
0001822031;7.8051;3.7685;2.2122;0.0011;-0.0153;0.1535
0001822044;7.5800;3.0885;2.2170;-0.1077;0.0256;0.1158
0001822053;7.9320;2.6097;1.9201;-0.1500;0.0618;0.0597
0001822065;7.6662;1.6879;1.4389;-0.1390;0.1436;-0.0153
0001822074;7.7381;1.3168;0.9864;-0.0681;0.1941;-0.0336
0001822087;7.9751;1.4269;0.8643;0.0809;0.2783;0.0027
0001822096;7.9272;1.6640;1.1995;0.1689;0.3337;0.0605
0001822105;8.3558;2.7773;1.5131;0.2193;0.3687;0.1136
0001822117;8.2265;3.7302;2.1859;0.1584;0.4017;0.1692
0001822126;7.8673;3.6200;2.4493;0.0199;0.4170;0.1595
0001822139;7.3239;2.0973;2.3248;-0.1619;0.4435;0.0997
0001822148;6.9839;1.0678;1.8387;-0.1927;0.4654;0.0473
0001822160;6.8546;0.5219;1.6400;-0.1659;0.5239;-0.0482
0001822169;6.8354;0.5555;1.6520;-0.1420;0.5770;-0.1034
0001822178;6.6966;0.6369;1.8842;-0.1152;0.6109;-0.1403
0001822191;6.7708;1.1947;2.8323;-0.0938;0.6375;-0.1416
0001822200;6.6990;1.6305;3.4213;-0.0767;0.6422;-0.1308
0001822270;8.8705;6.2465;2.8659;0.5716;0.5852;-0.3969
0001822279;8.0302;6.3542;3.3854;0.3651;0.5609;-0.3363
0001822292;6.5146;5.1475;3.2968;0.0945;0.4875;-0.2049
0001822301;5.5067;4.2928;2.8922;0.0056;0.4195;-0.1434
0001822310;4.8076;3.3686;2.5235;0.0330;0.3812;-0.1234
0001822322;5.4779;3.5291;1.8172;0.2454;0.3635;-0.1968
0001822331;6.5888;4.3862;1.8292;0.4435;0.4046;-0.3122
0001822344;8.8394;6.1363;2.3248;0.5862;0.4537;-0.4535
0001822353;9.6917;7.1730;2.7845;0.5593;0.4553;-0.4632
0001822365;8.6766;7.9559;3.3782;0.4414;0.4146;-0.3841
0001822374;7.2472;7.7141;3.5027;0.2694;0.3499;-0.2357
0001822383;6.5601;6.9336;3.4117;0.0633;0.2795;-0.0865
0001822396;5.9185;5.4971;3.1340;-0.2238;0.1986;0.1002
0001822405;5.3917;4.3981;2.8156;-0.3565;0.1428;0.2042
0001822417;5.3989;3.5099;2.7031;-0.4247;0.0709;0.3030
0001822426;5.4827;3.1651;2.7988;-0.4371;0.0389;0.3481
0001822439;5.9544;2.2913;2.7509;-0.4058;-0.0064;0.3473
0001822448;6.6942;2.0087;2.9904;-0.3938;-0.0176;0.3309
0001822460;7.2161;1.6879;3.0023;-0.3832;-0.0278;0.2803
0001822469;7.5872;1.6520;3.0335;-0.3872;-0.0362;0.2298
0001822478;7.7979;1.8435;3.0933;-0.4158;-0.0350;0.1947
0001822491;7.9152;1.7071;2.9808;-0.4751;-0.0344;0.1362
0001822500;7.9152;1.6472;2.6719;-0.5101;-0.0192;0.0814
0001822570;5.8682;1.8483;2.2649;-0.2777;0.0326;-0.0993
0001822579;5.9927;2.2865;2.2098;-0.2661;-0.0107;-0.0957
0001822592;6.0501;2.6025;2.3296;-0.2870;-0.0785;-0.0990
0001822601;6.1818;2.7270;2.2673;-0.3211;-0.1248;-0.1022
0001822610;6.2608;2.8563;2.4708;-0.3603;-0.1796;-0.1077
0001822622;6.1914;2.8443;2.5019;-0.4001;-0.2547;-0.1324
0001822631;6.1986;2.7174;2.5283;-0.4313;-0.2878;-0.1512
0001822644;6.2896;2.4062;2.7126;-0.4361;-0.3107;-0.2034
0001822653;6.5074;2.2075;2.7749;-0.4089;-0.3128;-0.2246
0001822665;6.6535;2.0159;3.0526;-0.3493;-0.2779;-0.2257
0001822674;7.0509;2.1715;3.2657;-0.2936;-0.2439;-0.2204
0001822687;7.1635;2.0997;3.2561;-0.2050;-0.1981;-0.2014
0001822696;7.1706;2.2170;3.1867;-0.1524;-0.1671;-0.1787
0001822705;6.9911;2.2098;3.1843;-0.1128;-0.1522;-0.1442
0001822717;6.8666;2.3391;3.0167;-0.0799;-0.1637;-0.1066
0001822726;6.3614;2.2553;2.8898;-0.0729;-0.1797;-0.0745
0001822739;6.2177;2.6097;2.5331;-0.0388;-0.2313;-0.0494
0001822748;6.1028;2.3487;2.6240;-0.0366;-0.2754;-0.0426
0001822760;6.1196;2.4373;2.6456;-0.0141;-0.3297;-0.0517
0001822769;6.3231;2.7366;2.6264;-0.0020;-0.3617;-0.0574
0001822782;6.7564;2.6552;2.6264;-0.0043;-0.3856;-0.0839
0001822791;7.4603;3.0311;2.6073;-0.0104;-0.3836;-0.0941
0001822800;7.6231;3.0358;2.6576;-0.0309;-0.3605;-0.0986
0001822870;7.1012;2.1117;2.8778;-0.0612;-0.0886;-0.0008
0001822879;6.7469;2.0207;3.0047;-0.0434;-0.0978;0.0127
0001822892;6.5457;2.0231;3.1484;-0.0312;-0.1167;0.0422
0001822901;6.4524;2.1572;3.1508;-0.0278;-0.1242;0.0558
0001822913;6.5362;2.4301;3.0765;-0.0124;-0.1504;0.0500
0001822922;6.3375;2.4948;3.1508;-0.0269;-0.1552;0.0596
0001822935;6.6511;2.6624;2.9784;-0.0119;-0.1855;0.0448
0001822944;6.5793;2.5498;2.9880;-0.0250;-0.1905;0.0417
0001822953;6.6655;2.5618;2.9999;-0.0261;-0.2084;0.0192
0001822965;6.4715;2.5642;3.1101;-0.0332;-0.2189;0.0205
0001822974;6.6607;2.5618;2.9664;-0.0556;-0.2248;0.0144
0001822987;6.5505;2.3176;3.1316;-0.0646;-0.2393;0.0087
0001822996;6.7469;2.3822;3.0526;-0.0645;-0.2619;-0.0041
0001823008;6.5481;2.2146;3.0071;-0.0659;-0.2770;0.0032
0001823017;6.5098;2.0542;2.9161;-0.0678;-0.2859;0.0179
0001823030;6.7109;2.1524;2.8850;-0.0645;-0.2968;0.0218
0001823039;6.5529;2.1572;2.8635;-0.0465;-0.3108;0.0121
0001823048;6.4739;1.9704;2.8706;-0.0286;-0.3178;0.0031
0001823060;6.6224;2.1835;2.8084;-0.0080;-0.3251;-0.0382
0001823069;6.8642;2.3583;2.7892;-0.0053;-0.3068;-0.0560
0001823082;6.9743;2.6264;2.6719;-0.0159;-0.2912;-0.0923
0001823091;7.0701;2.7869;2.6791;-0.0332;-0.2781;-0.1063
0001823161;7.0174;2.6360;3.0167;-0.0425;-0.1519;-0.0145
0001823170;7.1347;2.5642;3.0670;-0.0361;-0.1609;0.0025
0001823179;6.8881;2.3966;3.0287;-0.0213;-0.1635;0.0191
0001823192;6.5936;2.3727;3.0742;0.0163;-0.1629;0.0446
0001823201;6.9528;2.5690;3.0119;0.0374;-0.1772;0.0542
0001823213;6.8450;2.7222;2.9736;0.0310;-0.1719;0.0722
0001823222;6.7157;2.6480;2.9233;0.0211;-0.1871;0.0689
0001823235;6.8714;2.7605;2.9544;-0.0072;-0.1892;0.0843
0001823244;7.0701;2.6743;2.9592;-0.0282;-0.1804;0.0911
0001823256;7.0773;2.2003;2.8874;-0.0317;-0.1740;0.0966
0001823265;7.2927;2.3056;2.7797;-0.0256;-0.1663;0.0939
0001823274;7.2592;2.2027;2.7509;-0.0112;-0.1620;0.0862
0001823288;7.1299;2.1165;2.7150;0.0149;-0.1515;0.0739
0001823297;7.2856;2.3320;2.5379;0.0260;-0.1463;0.0592
0001823310;7.3358;2.3727;2.5139;0.0317;-0.1491;0.0524
0001823319;7.3646;2.4948;2.6073;0.0332;-0.1424;0.0549
0001823331;7.3909;2.3679;2.5905;0.0276;-0.1462;0.0734
0001823340;7.3119;2.4181;2.4684;0.0289;-0.1428;0.0901
0001823349;7.2880;2.3703;2.5067;0.0532;-0.1443;0.1107
0001823362;7.3215;2.4157;2.4014;0.0781;-0.1415;0.1467
0001823371;7.5633;2.4493;2.3152;0.0969;-0.1315;0.1632
0001823383;7.3717;2.1572;2.3822;0.1188;-0.1190;0.1779
0001823392;7.7764;2.3655;2.4277;0.1328;-0.1088;0.1749
0001823461;7.6614;2.4541;2.3511;0.1443;-0.0580;0.1669
0001823470;7.5968;2.4828;2.4732;0.1158;-0.0561;0.1599
0001823479;7.6926;2.4948;2.5187;0.0815;-0.0490;0.1519
0001823491;7.9392;2.5019;2.5187;0.0586;-0.0353;0.1399
0001823500;7.8841;2.1572;2.5019;0.0440;-0.0252;0.1312
0001823513;8.0852;2.2889;2.4780;0.0314;0.0020;0.1318
0001823522;7.9104;2.1452;2.3894;0.0246;0.0193;0.1220
0001823534;8.0565;2.4277;2.4445;0.0029;0.0378;0.1112
0001823543;7.8889;2.3559;2.6073;-0.0296;0.0661;0.1124
0001823552;8.0828;2.5426;2.5809;-0.0573;0.0891;0.1062
0001823565;8.0158;2.3655;2.6983;-0.0877;0.1232;0.1091
0001823574;7.9631;2.3032;2.5474;-0.0982;0.1483;0.1266
0001823586;7.8626;1.9369;2.5067;-0.0889;0.1661;0.1455
0001823595;7.8051;1.8172;2.3008;-0.0775;0.1668;0.1557
0001823608;7.5130;1.8459;2.2122;-0.0620;0.1643;0.1621
0001823617;7.4675;2.1093;2.0853;-0.0620;0.1540;0.1597
0001823626;7.5010;2.3846;2.0901;-0.0765;0.1419;0.1436
0001823638;7.2784;2.4229;2.1045;-0.1184;0.1206;0.1196
0001823647;7.2018;2.5163;2.2434;-0.1438;0.0966;0.0915
0001823660;7.2592;2.6025;2.3343;-0.1828;0.0927;0.0568
0001823669;7.1994;2.5809;2.1524;-0.2037;0.0926;0.0290
0001823681;7.3813;2.7054;2.0063;-0.2248;0.0989;-0.0021
0001823690;7.7069;3.0574;1.9680;-0.2619;0.1179;-0.0068
0001823699;7.9224;3.0406;2.0710;-0.3379;0.1420;-0.0001
0001823769;7.7357;-0.2131;2.7461;-0.6528;0.3212;0.1884
0001823778;7.7405;-0.4142;2.5139;-0.5834;0.3167;0.1496
0001823790;7.0749;-1.0080;2.0638;-0.4708;0.2814;0.1058
0001823799;6.8546;-0.8045;1.9944;-0.3636;0.2312;0.0477
0001823812;6.6631;0.1652;2.3248;-0.2690;0.1816;-0.0597
0001823821;6.8929;0.8954;2.7198;-0.2567;0.1580;-0.1387
0001823830;7.1994;1.4748;2.9664;-0.2803;0.1428;-0.2112
0001823842;7.6112;1.5395;3.2106;-0.3168;0.1592;-0.2717
0001823851;8.4803;1.5443;3.0933;-0.3118;0.2041;-0.2806
0001823864;8.5497;1.3336;3.0454;-0.2663;0.2447;-0.2590
0001823873;8.2121;1.1947;3.0023;-0.2205;0.2734;-0.2306
0001823885;7.7381;1.1995;3.0071;-0.1466;0.2883;-0.1844
0001823894;7.5920;1.2713;3.1603;-0.1038;0.2870;-0.1388
0001823907;6.9911;1.8651;3.2537;-0.0727;0.2619;-0.0891
0001823916;7.1874;2.2386;3.2896;-0.0755;0.2350;-0.0624
0001823925;7.0102;2.4277;3.3615;-0.1025;0.2184;-0.0436
0001823937;7.0749;2.6624;3.5650;-0.1395;0.2032;-0.0268
0001823946;7.4675;2.2098;3.4093;-0.1620;0.1997;-0.0044
0001823959;8.2791;1.8387;3.3567;-0.1354;0.1819;0.0107
0001823968;8.5641;2.0231;3.3255;-0.0863;0.1743;0.0061
0001823980;8.4036;2.2338;3.5530;-0.0368;0.1785;-0.0369
0001823989;8.2217;2.3391;3.5602;-0.0305;0.1867;-0.0540
0001823998;8.0685;2.5953;3.6368;-0.0436;0.1957;-0.0628
0001824068;8.1163;2.1428;2.5809;0.0783;-0.0951;-0.0135
0001824077;8.1738;2.5570;3.0765;0.0008;-0.0440;-0.0405
0001824089;8.4922;2.7390;3.6631;-0.1767;0.0364;-0.0365
0001824098;8.3462;2.1620;3.9959;-0.2990;0.0719;0.0260
0001824111;8.0062;0.7207;4.1228;-0.2928;0.0638;0.1655
0001824120;7.7620;0.2849;3.7852;-0.1945;0.0233;0.2583
0001824132;6.6128;0.3735;3.2968;-0.0445;-0.0470;0.3325
0001824141;6.0430;0.8212;3.1891;0.0600;-0.0697;0.3212
0001824150;5.6743;1.5251;3.6488;0.1599;-0.0685;0.2707
0001824163;5.4205;2.9329;4.8171;0.1751;-0.0241;0.1342
0001824172;5.4923;3.4572;5.5091;0.0839;0.0169;0.0413
0001824184;5.6838;3.2322;5.6862;0.0169;0.0282;-0.0338
0001824193;6.3183;3.0718;5.4061;0.0528;-0.0121;-0.0506
0001824206;6.8977;2.7773;4.3718;0.1735;-0.1180;-0.0252
0001824215;7.2880;2.6647;3.7637;0.2706;-0.2052;-0.0015
0001824224;7.3406;2.6624;3.5626;0.3721;-0.2714;0.0236
0001824236;7.3789;3.1987;3.4836;0.4306;-0.2866;0.0446
0001824245;7.2185;3.8140;3.4141;0.4310;-0.3002;0.0197
0001824258;7.2425;4.5633;3.8571;0.3472;-0.2898;-0.0149
0001824267;7.1778;4.7118;4.4628;0.2513;-0.2890;-0.0376
0001824279;6.7924;4.9368;5.2313;0.1609;-0.3347;-0.0501
0001824288;6.5434;5.1499;5.5593;0.1709;-0.4073;-0.0448
0001824297;6.0310;5.3079;5.2768;0.2226;-0.4931;-0.0008
0001824366;8.8250;2.1931;3.5913;0.3102;-0.2891;-0.1139
0001824375;8.6838;2.2529;3.5051;0.2895;-0.2066;-0.1619
0001824387;7.8386;2.4373;3.3639;0.2381;-0.1230;-0.1964
0001824396;7.3717;2.5546;3.3255;0.1823;-0.0865;-0.2050
0001824409;6.7086;2.7845;3.4405;0.1007;-0.0773;-0.1715
0001824418;6.3542;2.8132;3.4740;0.0610;-0.0871;-0.1426
0001824430;6.3997;2.7270;3.3878;0.0308;-0.1250;-0.1094
0001824439;6.4859;2.4349;3.4620;0.0155;-0.1487;-0.0971
0001824448;6.5242;2.1524;3.4285;0.0028;-0.1731;-0.0883
0001824461;6.5410;2.0710;3.3303;0.0072;-0.2018;-0.1038
0001824470;6.8211;2.0327;3.2705;0.0004;-0.2065;-0.1120
0001824482;7.0222;1.8723;3.2825;0.0119;-0.2128;-0.1274
0001824491;6.8857;1.7238;3.1987;0.0273;-0.2142;-0.1396
0001824504;7.2616;1.8100;3.1939;0.0418;-0.1869;-0.1387
0001824513;7.4148;1.8459;3.1268;0.0617;-0.1747;-0.1311
0001824522;7.6830;1.8340;3.1149;0.0790;-0.1456;-0.1150
0001824534;8.0134;1.9465;3.1436;0.1082;-0.1057;-0.0829
0001824543;8.1618;2.0566;3.1412;0.1139;-0.0669;-0.0628
0001824556;8.4060;2.2817;3.1364;0.1005;-0.0163;-0.0410
0001824565;8.3797;2.4541;3.2872;0.0854;0.0141;-0.0329
0001824577;7.8721;2.3056;3.5745;0.0617;0.0541;-0.0023
0001824586;7.8027;2.2314;3.6847;0.0482;0.0693;0.0159
0001824595;7.5681;2.0542;3.6440;0.0345;0.0787;0.0290
0001824665;7.7117;2.6863;3.1244;0.0685;0.1037;0.0783
0001824674;7.6638;2.9592;3.2082;0.0430;0.0874;0.0837
0001824686;7.8458;2.9305;3.1603;0.0020;0.0750;0.0999
0001824695;7.8626;3.0023;3.0694;-0.0201;0.0722;0.0979
0001824708;7.8626;2.8754;3.1077;-0.0493;0.0666;0.0967
0001824717;7.6160;2.7198;3.1316;-0.0693;0.0661;0.0893
0001824726;7.5130;2.5618;3.2681;-0.0818;0.0645;0.0969
0001824738;7.7117;2.5187;3.3064;-0.0843;0.0581;0.1037
0001824747;7.6255;2.5618;3.3232;-0.0698;0.0529;0.1037
0001824760;7.4843;2.3679;3.1723;-0.0580;0.0550;0.0917
0001824769;7.6830;2.5642;3.2513;-0.0637;0.0659;0.0831
0001824781;7.7021;2.3990;3.0502;-0.0758;0.0865;0.0658
0001824790;7.7692;2.3343;3.0789;-0.0879;0.0943;0.0528
0001824799;7.5968;1.9992;3.0694;-0.0929;0.1085;0.0409
0001824813;7.3694;1.7573;2.9688;-0.0905;0.1220;0.0250
0001824822;7.2808;1.7765;2.8012;-0.0657;0.1230;0.0021
0001824835;6.9384;1.6640;2.6312;-0.0346;0.1148;-0.0156
0001824844;6.9576;2.0423;2.6983;-0.0304;0.1106;-0.0237
0001824856;7.0605;2.1979;2.6935;-0.0329;0.0850;-0.0396
0001824865;7.1060;2.3870;2.6959;-0.0533;0.0715;-0.0432
0001824874;6.9599;2.5426;2.7557;-0.0670;0.0534;-0.0421
0001824943;9.2991;2.0901;3.1029;-0.0568;0.2743;0.0723
0001824952;9.7348;2.0231;3.2920;-0.0211;0.3549;0.1018
0001824964;10.0509;1.8004;3.4931;0.0320;0.4553;0.1382
0001824973;10.0724;1.7741;3.5099;0.0718;0.5337;0.1599
0001824986;9.3829;1.5850;3.3088;0.1390;0.5981;0.1537
0001824995;8.5569;1.6352;3.0406;0.1724;0.6181;0.1418
0001825004;7.4364;1.5227;2.9305;0.1804;0.6089;0.1522
0001825016;6.2321;1.9417;2.8012;0.1821;0.5632;0.1793
0001825025;5.6527;1.8483;2.6193;0.1825;0.5061;0.1821
0001825038;5.1116;1.8244;2.3655;0.1752;0.3938;0.1540
0001825047;5.0589;1.9225;2.4205;0.1531;0.3348;0.1396
0001825059;5.3558;2.3607;2.1596;0.1547;0.2441;0.1069
0001825068;5.7078;2.5043;2.0494;0.1404;0.1799;0.0814
0001825077;5.9951;2.4373;2.1859;0.1255;0.1211;0.0659
0001825090;6.3782;2.5714;2.1859;0.1430;0.0333;0.0484
0001825099;6.6104;2.5450;2.1093;0.1460;0.0019;0.0444
0001825111;7.1826;2.8371;2.2146;0.1901;-0.0140;0.0542
0001825120;7.4484;2.5714;2.2649;0.2198;-0.0031;0.0689
0001825133;8.0325;2.7629;2.2027;0.2390;0.0262;0.0962
0001825142;8.2528;2.7390;2.2482;0.2550;0.0521;0.1094
0001825151;8.2552;2.5881;2.1524;0.2449;0.1014;0.1411
0001825163;8.1475;2.6025;2.1620;0.2418;0.1585;0.1573
0001825172;8.0709;2.5498;2.3367;0.2238;0.2164;0.1744
0001825241;6.6463;2.6456;2.4804;0.1701;0.2649;0.0925
0001825250;6.7014;2.7007;2.4062;0.1751;0.2411;0.0747
0001825262;6.9911;2.7438;2.3966;0.1663;0.1980;0.0648
0001825271;7.1371;2.7653;2.4325;0.1500;0.1820;0.0715
0001825280;7.2903;2.6312;2.4421;0.1344;0.1596;0.0709
0001825293;7.4723;2.6743;2.4181;0.1102;0.1298;0.0671
0001825302;7.5489;2.7390;2.5019;0.0843;0.1196;0.0845
0001825314;7.3909;2.7054;2.4828;0.0501;0.1010;0.0931
0001825323;7.2472;2.6552;2.6384;0.0246;0.0771;0.1075
0001825332;7.1012;2.5618;2.6647;0.0009;0.0425;0.1116
0001825345;6.7014;2.7102;2.9880;-0.0545;-0.0326;0.1226
0001825354;6.3782;2.3918;3.2082;-0.1062;-0.0901;0.1344
0001825366;6.0047;1.9776;3.0718;-0.1270;-0.1767;0.1246
0001825375;5.5641;1.4940;2.8132;-0.1342;-0.2238;0.1095
0001825388;5.5522;0.9601;2.5067;-0.0949;-0.2967;0.0626
0001825397;5.5306;0.7207;2.2003;-0.0468;-0.3525;0.0097
0001825409;6.0214;0.7159;2.2482;0.0128;-0.4120;-0.0576
0001825418;6.3422;0.8835;2.2984;0.0496;-0.4461;-0.0921
0001825427;6.6343;0.9361;2.5163;0.0730;-0.4807;-0.1158
0001825440;7.1563;1.3791;2.7988;0.0675;-0.4983;-0.1082
0001825449;7.8913;1.8124;2.8898;0.0478;-0.5111;-0.1057
0001825461;8.0302;2.0542;2.6288;0.0117;-0.5029;-0.1067
0001825470;8.2911;2.1548;2.3655;-0.0167;-0.4626;-0.1178
0001825540;7.3239;1.5467;1.9728;-0.1346;-0.1700;-0.1584
0001825549;7.7045;1.8459;1.8435;-0.1362;-0.1527;-0.1468
0001825558;7.5992;1.9896;1.9513;-0.1263;-0.1334;-0.1379
0001825570;8.7771;2.2697;1.9369;-0.1088;-0.0659;-0.0749
0001825579;8.0397;2.6911;2.2146;-0.0918;-0.0616;-0.0153
0001825592;7.4843;2.7725;2.4469;-0.1274;-0.0578;0.0264
0001825601;7.3167;2.7438;2.3894;-0.1545;-0.0601;0.0405
0001825613;7.2185;2.3200;2.4469;-0.1785;-0.0655;0.0570
0001825622;7.4077;2.1069;2.2410;-0.1864;-0.0633;0.0526
0001825635;7.4986;1.7502;2.0997;-0.1523;-0.0276;0.0397
0001825644;7.5250;1.7980;1.9082;-0.0775;0.0113;0.0183
0001825653;7.3741;2.0806;1.8507;-0.0065;0.0666;0.0161
0001825665;7.7165;2.5115;1.9656;0.0594;0.1270;0.0019
0001825674;7.9128;2.9425;2.0111;0.0612;0.1777;0.0052
0001825687;8.1163;3.2753;2.2122;0.0253;0.2210;0.0256
0001825696;8.0780;3.3471;2.1117;-0.0085;0.2481;0.0584
0001825708;7.9631;3.2178;1.9776;-0.0187;0.2950;0.1223
0001825717;7.9416;3.4381;1.9992;-0.0072;0.3223;0.1633
0001825726;7.6854;3.4357;2.1476;-0.0220;0.3563;0.1989
0001825739;7.3670;3.2968;2.1644;-0.0425;0.3780;0.2202
0001825748;7.2449;3.1173;2.1356;-0.0574;0.4073;0.2197
0001825760;6.8426;2.6169;1.9848;-0.0839;0.4638;0.1879
0001825769;6.8067;2.2889;1.6568;-0.0903;0.5149;0.1439
0001825838;7.5058;2.7916;2.5642;-0.0605;0.9226;0.2197
0001825847;7.2305;2.7007;2.6456;-0.0862;0.9359;0.2547
0001825856;6.9767;2.0183;2.5594;-0.1282;0.9430;0.2590
0001825868;6.4165;0.7374;2.2721;-0.1327;0.9367;0.2217
0001825877;6.3925;0.2682;1.9154;-0.0785;0.9193;0.1691
0001825890;6.1531;0.2586;2.0446;0.0278;0.8839;0.0922
0001825899;6.1675;0.9361;2.3439;0.0837;0.8480;0.0449
0001825911;6.7708;2.5833;3.3639;0.1005;0.7859;0.0132
0001825920;7.2377;3.5937;4.3958;0.0533;0.7448;0.0001
0001825929;7.7835;4.3694;5.2888;-0.0215;0.7151;-0.0309
0001825942;8.2983;4.2521;5.7676;-0.1199;0.6987;-0.0925
0001825951;8.2959;3.7493;5.5569;-0.1504;0.6927;-0.1194
0001825963;8.1139;2.7007;4.4987;-0.1226;0.6686;-0.1200
0001825972;7.8290;2.4660;3.7254;-0.0670;0.6340;-0.0905
0001825985;7.0150;2.5474;3.0478;0.0298;0.5594;0.0124
0001825994;6.5098;3.1101;3.3040;0.0794;0.4619;0.1171
0001826003;6.0190;3.4931;3.8954;0.0825;0.3555;0.2382
0001826015;5.7126;3.7637;4.4772;0.0265;0.2241;0.3641
0001826024;6.0885;3.6799;4.5705;-0.0152;0.1767;0.3858
0001826037;7.4077;3.6727;4.9273;-0.0236;0.1785;0.2598
0001826046;8.8298;3.7852;4.8147;0.0304;0.1871;0.1260
0001826058;9.6869;3.7996;4.8267;0.1073;0.2033;-0.0281
0001826067;9.5050;4.0079;4.8004;0.1279;0.2053;-0.1299
0001826076;9.0166;4.0031;4.7094;0.1300;0.2133;-0.1805
0001826145;7.7093;2.8802;3.7948;-0.0512;0.0967;0.2962
0001826154;7.5034;2.4660;3.5674;-0.0516;0.0957;0.3006
0001826166;7.8027;2.0901;3.5674;-0.0083;0.0899;0.2878
0001826175;7.8243;2.0877;3.5841;0.0191;0.0731;0.2916
0001826188;7.9487;2.1979;3.5913;0.0209;0.0580;0.3086
0001826197;8.0493;2.1620;3.6081;0.0071;0.0541;0.3151
0001826206;8.0613;1.9752;3.7517;-0.0091;0.0533;0.3166
0001826218;7.9272;1.6496;3.7326;-0.0268;0.0449;0.3196
0001826227;8.0038;1.4102;3.6488;-0.0345;0.0342;0.3199
0001826240;7.9080;1.1516;3.5051;-0.0305;0.0120;0.3055
0001826249;7.8793;1.0127;3.4453;-0.0266;-0.0047;0.2975
0001826261;7.6614;0.7278;3.1077;-0.0105;-0.0318;0.2761
0001826270;7.4292;0.6823;3.1173;-0.0004;-0.0529;0.2642
0001826279;7.3789;0.6871;3.1340;0.0176;-0.0737;0.2514
0001826293;7.3909;0.9002;2.8898;0.0225;-0.1086;0.2382
0001826302;7.3071;0.9553;2.8323;0.0189;-0.1334;0.2161
0001826315;7.1395;0.9697;2.8659;0.0088;-0.1568;0.1807
0001826324;7.0773;1.1468;2.9425;0.0169;-0.1915;0.1427
0001826336;7.1275;1.2594;3.1005;0.0426;-0.2507;0.0943
0001826345;7.3143;1.7286;3.2753;0.0809;-0.3050;0.0581
0001826354;7.2975;1.9321;3.3543;0.1053;-0.3637;-0.0036
0001826367;7.1874;2.4277;3.5171;0.1415;-0.4383;-0.1081
0001826376;7.2425;2.8419;3.4692;0.1446;-0.4886;-0.1843
0001826444;7.7261;2.0087;3.0071;0.0237;-0.5348;-0.2192
0001826453;7.9631;2.1691;3.0167;0.0342;-0.5208;-0.1980
0001826466;8.2001;2.4732;2.9784;0.0446;-0.4739;-0.1753
0001826475;8.2552;2.6767;2.8946;0.0510;-0.4370;-0.1840
0001826487;8.4180;3.2633;2.9185;0.0492;-0.3796;-0.2076
0001826496;8.4060;3.2561;2.9473;0.0304;-0.3407;-0.2293
0001826505;8.2528;3.3016;3.0095;-0.0027;-0.3055;-0.2451
0001826518;8.2768;3.4620;3.2178;-0.0588;-0.2579;-0.2563
0001826527;8.6574;3.5626;3.2585;-0.1058;-0.2336;-0.2519
0001826539;8.6095;3.0861;3.2322;-0.1657;-0.1962;-0.2364
0001826548;8.6024;2.7007;3.2801;-0.1860;-0.1805;-0.2188
0001826561;8.4491;2.1787;3.0454;-0.1948;-0.1506;-0.1753
0001826570;8.2576;1.8459;3.0502;-0.1728;-0.1292;-0.1378
0001826582;8.2217;1.6592;3.0071;-0.1336;-0.1134;-0.0910
0001826591;8.0230;1.4557;2.8060;-0.1074;-0.0993;-0.0517
0001826600;8.0397;1.7214;2.7749;-0.0783;-0.0967;-0.0228
0001826613;7.7117;1.7262;2.8060;-0.0518;-0.0911;0.0119
0001826622;7.4053;1.8292;2.8180;-0.0460;-0.0958;0.0188
0001826634;6.9240;2.0231;2.8587;-0.0516;-0.1124;0.0039
0001826643;6.7852;2.2362;3.0454;-0.0694;-0.1331;-0.0185
0001826656;6.8354;2.4660;3.1244;-0.1019;-0.1829;-0.0682
0001826665;6.9695;2.6695;3.2082;-0.1262;-0.2248;-0.1043
0001826674;6.8690;2.5546;3.2513;-0.1571;-0.2566;-0.1412
0001826744;7.5369;2.5163;3.3184;-0.1649;-0.4346;-0.3218
0001826753;7.4843;2.4205;3.2322;-0.1639;-0.4493;-0.3254
0001826766;7.7428;2.4253;3.0837;-0.1747;-0.4537;-0.3132
0001826775;7.6543;2.3415;3.0837;-0.1832;-0.4610;-0.3048
0001826787;7.4675;2.3152;3.1220;-0.2037;-0.4525;-0.2879
0001826796;7.7093;2.2817;3.1412;-0.2273;-0.4269;-0.2721
0001826809;8.0158;2.2577;3.0622;-0.2499;-0.3722;-0.2567
0001826818;8.3438;2.1452;3.0430;-0.2570;-0.3315;-0.2579
0001826827;8.6119;2.0111;3.1316;-0.2510;-0.2762;-0.2585
0001826839;8.8107;2.0063;3.0837;-0.2378;-0.1998;-0.2562
0001826848;8.9352;1.9872;2.9640;-0.2281;-0.1407;-0.2403
0001826861;8.7077;1.7119;2.9664;-0.1994;-0.0747;-0.2061
0001826870;8.3701;1.6089;2.9904;-0.1724;-0.0465;-0.1925
0001826882;8.1858;1.5060;3.0071;-0.1399;-0.0139;-0.1533
0001826891;8.0254;1.5467;3.0957;-0.1088;-0.0037;-0.1238
0001826904;7.7452;1.4317;2.9999;-0.0766;0.0076;-0.0838
0001826913;7.5250;1.2665;2.9640;-0.0566;0.0201;-0.0582
0001826922;7.5393;1.2929;3.0167;-0.0164;0.0171;-0.0448
0001826934;7.3765;1.3072;2.8898;0.0301;0.0228;-0.0364
0001826943;7.5010;1.4653;2.9090;0.0538;0.0172;-0.0318
0001826956;7.4603;1.6281;2.9736;0.0785;0.0160;-0.0254
0001826965;7.4986;1.5706;2.9233;0.0907;0.0032;-0.0232
0001827035;7.3023;1.9537;2.8252;0.0461;-0.0683;-0.0329
0001827044;7.3167;1.8244;2.8347;0.0490;-0.0890;-0.0370
0001827057;7.5106;2.0016;2.7102;0.0384;-0.1057;-0.0497
0001827066;7.4196;1.9513;2.8084;0.0281;-0.1078;-0.0576
0001827075;7.4005;2.0973;2.8802;0.0032;-0.1035;-0.0746
0001827087;7.5346;2.3583;3.1915;-0.0270;-0.0839;-0.1107
0001827096;7.3598;2.2936;3.2274;-0.0727;-0.0642;-0.1327
0001827109;7.4579;2.3367;3.3686;-0.1268;-0.0404;-0.1656
0001827118;7.0653;1.8124;3.3447;-0.1555;-0.0341;-0.1628
0001827130;7.2951;1.5778;3.2633;-0.1664;-0.0490;-0.1318
0001827139;7.1730;1.1708;3.0215;-0.1390;-0.1066;-0.1071
0001827152;7.0533;1.2905;2.9090;-0.0686;-0.1909;-0.0674
0001827161;6.6272;1.5131;2.8778;-0.0578;-0.2467;-0.0673
0001827170;6.5721;1.9728;3.1005;-0.0694;-0.2980;-0.0937
0001827182;6.6415;2.4373;3.4405;-0.1267;-0.3204;-0.1573
0001827191;7.2257;2.6073;3.4285;-0.1772;-0.3214;-0.2026
0001827204;7.7835;2.3415;3.3974;-0.2005;-0.2951;-0.2721
0001827213;7.9583;2.0662;3.2058;-0.1908;-0.2904;-0.3126
0001827225;7.4986;1.7454;3.1268;-0.1707;-0.3091;-0.3383
0001827234;7.8482;1.5538;2.9161;-0.1303;-0.3170;-0.3304
0001827247;7.6016;1.2905;3.0933;-0.0644;-0.3250;-0.3019
0001827256;7.2377;1.2186;3.0765;-0.0321;-0.3372;-0.2669
0001827265;6.9552;1.5371;3.0742;-0.0149;-0.3569;-0.2236
0001827335;7.3909;1.2139;2.6240;-0.0277;-0.5987;-0.1941
0001827344;7.4124;1.4724;2.5690;0.0032;-0.6186;-0.2185
0001827357;7.1778;1.1205;2.1955;0.0280;-0.6527;-0.2142
0001827366;7.0509;0.9026;1.8268;0.0470;-0.6995;-0.2134
0001827380;6.6607;0.9601;0.9625;0.1058;-0.8163;-0.2419
0001827389;6.4045;1.5706;0.6321;0.1436;-0.8884;-0.3248
0001827398;6.7373;2.5522;0.7135;0.1692;-0.9446;-0.4592
0001827411;6.5242;3.8978;1.3623;0.1140;-0.9842;-0.6897
0001827420;6.5481;4.4221;1.9465;0.0031;-0.9729;-0.8176
0001827432;6.6702;3.6033;2.6695;-0.1663;-0.9438;-0.8891
0001827441;7.0222;2.4756;3.1436;-0.2478;-0.9403;-0.8829
0001827454;7.6638;1.2139;2.9090;-0.2441;-0.9753;-0.7826
0001827463;7.8195;0.4046;2.5618;-0.1681;-1.0413;-0.6706
0001827475;7.6495;0.0862;1.7645;-0.0713;-1.1590;-0.5384
0001827484;7.6088;0.3831;1.5562;-0.0289;-1.2510;-0.4718
0001827493;6.9839;0.6680;1.3743;0.0059;-1.3307;-0.4726
0001827506;6.6463;2.1596;1.3743;0.0085;-1.4092;-0.5456
0001827515;6.0525;2.7270;1.6759;-0.0346;-1.4210;-0.5982
0001827527;6.2848;2.2266;1.5490;-0.1152;-1.4540;-0.6427
0001827536;6.1555;1.4461;1.3910;-0.1276;-1.4995;-0.6579
0001827606;5.6527;6.7133;3.9121;0.1919;-2.2850;-0.8001
0001827615;7.6471;6.2584;4.2737;0.1011;-2.2415;-0.7878
0001827627;9.7085;4.7214;4.5274;0.0001;-2.0688;-0.7372
0001827636;10.7021;3.3591;4.5131;-0.0153;-1.8636;-0.7015
0001827645;11.6693;2.5211;4.0510;0.0141;-1.6699;-0.6376
0001827658;11.8202;1.5921;3.6990;0.1529;-1.3254;-0.5132
0001827667;11.9279;1.7406;3.6679;0.2477;-1.0845;-0.3858
0001827679;11.1450;2.8228;3.9480;0.3128;-0.8218;-0.1896
0001827688;10.2328;3.8978;4.2641;0.3120;-0.6991;-0.0494
0001827701;8.0254;5.3439;4.9081;0.2285;-0.6142;0.1067
0001827710;6.6391;5.6767;5.0996;0.1232;-0.5942;0.1387
0001827722;4.9368;5.4995;4.4532;0.0300;-0.6528;0.0636
0001827731;4.5418;4.9249;4.1659;-0.0185;-0.7302;-0.0517
0001827740;4.5873;4.3551;3.9983;-0.0440;-0.8248;-0.1958
0001827753;4.8722;3.8618;3.8858;-0.0204;-0.9518;-0.4086
0001827762;5.2768;3.4620;3.8235;0.0005;-1.0340;-0.5221
0001827774;5.7126;3.3351;4.0773;0.0097;-1.1084;-0.6049
0001827783;6.1363;3.3471;4.0127;0.0244;-1.1478;-0.6350
0001827797;6.3662;3.2274;4.1084;0.0476;-1.2019;-0.6651
0001827806;6.2920;2.6193;3.9624;0.0500;-1.2249;-0.6963
0001827815;6.3375;2.4229;3.9025;0.0725;-1.2464;-0.7242
0001827885;6.9480;2.8922;2.5522;-0.0803;-1.3291;-0.7918
0001827894;7.0677;2.8228;2.5498;-0.1010;-1.3011;-0.7918
0001827906;7.2472;2.8730;2.7198;-0.1475;-1.2558;-0.7604
0001827915;7.2856;2.8539;2.8467;-0.1828;-1.2247;-0.7269
0001827928;6.9983;2.4469;2.7438;-0.1927;-1.1630;-0.6622
0001827937;6.9839;2.5283;2.6288;-0.1819;-1.1198;-0.6198
0001827949;6.9168;2.1739;2.5522;-0.1492;-1.0605;-0.5533
0001827958;7.2161;2.1907;2.5618;-0.1203;-1.0295;-0.5145
0001827967;7.3957;2.2553;2.5235;-0.1046;-0.9707;-0.4610
0001827980;7.4148;2.2505;2.4277;-0.0957;-0.9152;-0.3949
0001827989;7.3310;2.2170;2.3750;-0.1001;-0.8751;-0.3464
0001828001;7.2568;2.2697;2.3511;-0.0993;-0.8387;-0.2986
0001828010;7.2018;2.2889;2.1907;-0.1003;-0.8131;-0.2655
0001828023;6.9192;2.1668;2.3080;-0.0910;-0.7999;-0.2385
0001828032;6.9839;2.4876;2.2505;-0.0886;-0.8038;-0.2216
0001828044;6.9288;2.7485;2.2649;-0.1143;-0.8095;-0.2093
0001828053;6.6750;2.7988;2.4086;-0.1406;-0.8259;-0.2009
0001828062;6.5290;2.7869;2.5307;-0.1796;-0.8280;-0.1879
0001828075;6.2800;2.8323;2.5738;-0.2220;-0.8320;-0.1759
0001828084;6.1914;2.7007;2.4229;-0.2217;-0.8434;-0.1793
0001828096;6.2106;2.6384;2.4110;-0.2054;-0.8616;-0.1937
0001828105;6.0094;2.4660;2.2649;-0.1840;-0.8681;-0.1990
0001828174;6.2537;2.7557;2.4301;-0.0807;-0.9601;-0.2234
0001828183;6.5960;2.8156;2.3631;-0.0974;-0.9694;-0.2345
0001828195;6.6152;2.8970;2.1620;-0.1013;-0.9569;-0.2229
0001828204;6.6559;2.7007;2.2290;-0.1070;-0.9543;-0.2268
0001828213;6.6822;2.7869;2.1428;-0.1212;-0.9338;-0.2321
0001828226;6.6343;2.6288;2.1620;-0.1259;-0.8968;-0.2425
0001828235;6.8067;2.5857;2.2051;-0.1200;-0.8775;-0.2575
0001828247;6.5912;2.3990;2.2170;-0.1088;-0.8387;-0.2711
0001828256;6.6128;2.4565;2.2960;-0.0913;-0.8102;-0.2754
0001828269;6.4907;2.4588;2.3367;-0.0569;-0.7951;-0.2766
0001828278;6.5697;2.5642;2.3727;-0.0513;-0.7955;-0.2789
0001828290;6.2656;2.5618;2.5331;-0.0481;-0.7802;-0.2698
0001828299;6.3925;2.4157;2.5977;-0.0604;-0.7770;-0.2595
0001828312;6.4715;2.3870;2.5522;-0.0617;-0.7825;-0.2392
0001828321;6.4500;2.4732;2.5450;-0.0634;-0.7845;-0.2273
0001828330;6.5027;2.4876;2.4852;-0.0662;-0.7957;-0.2198
0001828342;6.1938;2.4014;2.3703;-0.0850;-0.8076;-0.2156
0001828351;6.4763;2.2529;2.3559;-0.0767;-0.8167;-0.2140
0001828364;6.4883;2.2338;2.3918;-0.0742;-0.8215;-0.2124
0001828373;6.2656;2.1524;2.4134;-0.0798;-0.8152;-0.2029
0001828385;6.4212;2.0949;2.3679;-0.0869;-0.8048;-0.2000
0001828394;6.4979;2.1811;2.2673;-0.0610;-0.8045;-0.2009
0001828463;6.2632;2.9616;2.3104;-0.2228;-0.8573;-0.1223
0001828472;5.9664;2.6073;2.2984;-0.2386;-0.8807;-0.1214
0001828481;6.1723;2.5019;2.3535;-0.2329;-0.9045;-0.1231
0001828493;6.4045;2.5067;2.3200;-0.2296;-0.9225;-0.1255
0001828502;6.4548;2.3583;2.3272;-0.2324;-0.9336;-0.1228
0001828515;6.9121;2.5187;2.7461;-0.1788;-0.9241;-0.1183
0001828524;7.2305;2.7892;2.6983;-0.1696;-0.9032;-0.1155
0001828536;7.3574;3.0909;3.0358;-0.1904;-0.8835;-0.1062
0001828545;7.5681;3.1723;3.1915;-0.2140;-0.8535;-0.1058
0001828558;7.5250;3.0598;3.4261;-0.2459;-0.8286;-0.1071
0001828567;7.4077;2.7414;3.3686;-0.2261;-0.8382;-0.1071
0001828576;7.2880;2.4277;3.2058;-0.1955;-0.8511;-0.0903
0001828588;6.7588;2.1045;2.9425;-0.1220;-0.8855;-0.0613
0001828597;6.4572;1.9225;2.7821;-0.0581;-0.9362;-0.0481
0001828610;6.0238;1.9680;2.5666;0.0085;-1.0195;-0.0176
0001828619;5.8155;1.9561;2.4684;0.0325;-1.0726;0.0007
0001828631;5.8682;2.2386;2.2553;0.0548;-1.1507;-0.0159
0001828640;6.0908;2.2218;2.1763;0.0597;-1.1879;-0.0329
0001828649;6.2441;2.2027;2.0279;0.0618;-1.2232;-0.0566
0001828662;6.6822;2.3918;2.0303;0.0484;-1.2205;-0.0950
0001828671;6.8546;2.3607;2.1476;0.0421;-1.1878;-0.1207
0001828683;7.2449;2.4397;2.2697;0.0329;-1.1146;-0.1553
0001828692;7.4172;2.4565;2.3056;0.0095;-1.0231;-0.1720
0001828761;7.7381;3.5051;2.8563;-0.0534;-0.5227;-0.1596
0001828770;7.0916;3.1556;2.7605;-0.1073;-0.5184;-0.1360
0001828782;7.0485;3.0550;2.9880;-0.1672;-0.5224;-0.1081
0001828791;6.8259;2.7485;3.0143;-0.1743;-0.5360;-0.1077
0001828800;6.7588;2.5163;3.0502;-0.1852;-0.5526;-0.1110
0001828813;6.5362;2.1069;2.9185;-0.1585;-0.5849;-0.1415
0001828822;6.5003;1.9752;2.9161;-0.1284;-0.5828;-0.1633
0001828834;6.7660;1.8938;2.7366;-0.0693;-0.5818;-0.2022
0001828843;6.7564;1.6927;2.8276;-0.0229;-0.5777;-0.2308
0001828856;7.0916;1.9201;2.7222;0.0280;-0.5712;-0.2549
0001828865;7.2137;2.0614;2.8036;0.0496;-0.5638;-0.2605
0001828877;7.2880;2.1811;2.8156;0.0532;-0.5614;-0.2669
0001828886;7.5944;2.3439;2.8850;0.0476;-0.5616;-0.2645
0001828895;7.5609;2.1668;2.9329;0.0232;-0.5448;-0.2558
0001828908;7.6279;2.2841;2.7605;-0.0165;-0.5445;-0.2530
0001828917;7.3382;2.0399;2.7390;-0.0325;-0.5550;-0.2514
0001828929;7.1108;1.8627;2.8587;-0.0556;-0.5833;-0.2401
0001828938;6.8570;1.7933;2.9856;-0.0636;-0.6306;-0.2427
0001828951;6.6152;1.8028;3.1173;-0.0589;-0.7067;-0.2582
0001828960;6.6224;1.9130;3.0382;-0.0652;-0.7486;-0.2751
0001828972;6.4979;1.9321;3.2322;-0.0810;-0.8320;-0.3281
0001828981;6.3925;1.8986;3.2585;-0.0839;-0.8761;-0.3592
0001828990;6.4476;1.9632;3.4141;-0.1042;-0.9407;-0.4062
0001829060;6.7325;2.2170;3.5578;-0.1623;-1.2993;-0.5981
0001829069;6.7756;2.1261;3.4644;-0.1712;-1.3478;-0.5943
0001829081;7.0940;2.5546;3.5602;-0.1980;-1.4202;-0.5830
0001829090;6.7636;2.5522;3.5937;-0.2310;-1.4568;-0.5680
0001829103;6.9887;2.5881;3.5530;-0.2625;-1.5103;-0.5536
0001829112;7.2042;2.5163;3.5027;-0.2835;-1.5533;-0.5548
0001829124;7.2903;2.6839;3.4333;-0.2982;-1.5944;-0.5540
0001829133;7.3478;2.6025;3.5123;-0.2968;-1.6358;-0.5648
0001829142;7.3071;2.6145;3.3495;-0.3087;-1.6523;-0.5561
0001829155;7.3694;2.6600;3.2010;-0.3127;-1.6950;-0.5608
0001829164;7.3406;2.6312;3.1580;-0.2939;-1.7249;-0.5564
0001829176;7.1802;2.5953;2.9544;-0.2805;-1.7664;-0.5349
0001829185;6.9480;2.3631;2.8898;-0.2590;-1.8190;-0.5135
0001829198;6.8738;2.1213;2.8778;-0.2361;-1.9053;-0.4736
0001829207;6.9025;1.9273;2.6097;-0.2208;-1.9099;-0.4482
0001829219;6.4548;1.7262;2.6145;-0.1849;-2.0126;-0.4291
0001829228;6.5098;1.4844;2.6121;-0.1572;-2.0727;-0.4285
0001829237;6.4380;1.4605;2.5402;-0.1400;-2.1232;-0.4430
0001829250;6.5410;1.4222;2.4972;-0.1376;-2.1428;-0.4930
0001829259;6.5721;1.6759;2.5546;-0.1450;-2.1264;-0.5484
0001829271;7.0701;2.2553;2.6887;-0.1724;-2.0408;-0.6145
0001829280;7.6471;2.8659;2.8060;-0.2106;-1.9488;-0.6530
0001829350;5.4684;3.6129;1.7382;-0.3142;-1.7197;-0.3082
0001829359;5.2098;3.3232;1.6568;-0.2810;-1.7926;-0.2730
0001829372;5.4013;3.1244;1.6640;-0.2442;-1.8965;-0.2356
0001829381;5.9975;3.1196;1.5778;-0.2469;-1.9398;-0.2345
0001829390;6.4979;3.0789;1.7238;-0.2655;-1.9640;-0.2770
0001829402;7.7261;3.2681;1.9992;-0.3308;-1.9580;-0.3260
0001829411;8.2983;3.2872;2.2458;-0.3966;-1.9493;-0.3613
0001829424;9.2392;3.3519;2.5714;-0.4974;-1.8856;-0.3968
0001829433;9.3015;2.8443;2.5139;-0.5480;-1.8461;-0.4105
0001829445;8.9950;2.3774;2.4373;-0.5834;-1.7451;-0.3892
0001829454;8.8274;1.9249;2.3894;-0.5656;-1.6786;-0.3692
0001829467;8.1570;1.4581;2.2098;-0.5121;-1.6057;-0.3420
0001829476;8.0637;1.2665;2.0973;-0.4481;-1.5848;-0.3383
0001829485;7.5226;1.3623;2.0734;-0.3889;-1.5659;-0.3356
0001829497;7.2113;1.4413;2.1045;-0.3405;-1.5619;-0.3464
0001829506;7.3287;1.5754;2.0830;-0.3259;-1.5512;-0.3476
0001829519;7.6112;2.1620;2.3224;-0.3277;-1.5320;-0.3613
0001829528;8.0110;2.3487;2.3056;-0.3396;-1.5166;-0.3687
0001829540;8.6287;2.6935;2.4038;-0.3449;-1.4694;-0.3681
0001829549;9.0453;2.7605;2.3367;-0.3592;-1.4198;-0.3549
0001829562;9.2727;2.5809;2.5618;-0.3575;-1.3532;-0.3437
0001829571;9.3565;2.5474;2.5402;-0.3531;-1.2903;-0.3190
0001829580;9.4140;2.5043;2.5139;-0.3407;-1.2347;-0.3028
0001829650;8.8322;2.9521;3.1029;-0.3908;-0.9021;-0.0919
0001829657;9.0166;3.0047;3.3255;-0.4203;-0.8972;-0.0759
0001829669;8.7915;2.7797;3.3950;-0.4481;-0.8896;-0.0420
0001829677;8.7125;2.5211;3.5338;-0.4570;-0.8816;-0.0209
0001829688;8.9687;2.3918;3.4405;-0.4450;-0.8516;0.0115
