time;acc_x;acc_y;acc_z;gyro_x;gyro_y;gyro_z
0002008724;6.8259;2.0877;3.2394;0.1367;0.1813;0.0841
0002008732;6.6248;2.0877;3.2681;0.1656;0.1549;0.0997
0002008739;6.6798;2.3583;3.2298;0.1767;0.1411;0.0790
0002008747;6.6750;2.3583;3.1268;0.1888;0.1164;0.0694
0002008756;6.6439;2.2960;3.2034;0.1768;0.1021;0.0809
0002008764;6.8666;2.2841;3.1508;0.1863;0.0818;0.0807
0002008772;6.9576;2.2601;3.1891;0.1877;0.0806;0.0782
0002008784;7.1347;2.2841;3.1220;0.1751;0.0730;0.0699
0002008792;7.3023;2.5953;3.1173;0.1608;0.0711;0.0730
0002008803;7.2712;2.6336;3.2968;0.1418;0.0726;0.0597
0002008811;7.3167;2.5929;3.2417;0.1284;0.0953;0.0622
0002008819;7.3215;2.4541;3.2585;0.1094;0.1078;0.0602
0002008831;7.3143;2.5546;3.2058;0.0965;0.1224;0.0657
0002008839;7.4843;2.6408;3.0742;0.1038;0.1280;0.0666
0002008850;7.1563;2.4038;3.0933;0.0917;0.1391;0.0806
0002008858;7.2880;2.5809;3.0239;0.0891;0.1458;0.0889
0002008927;7.1778;2.7557;2.9449;0.0834;0.1324;0.1081
0002008935;7.0078;2.5019;2.9688;0.0711;0.1310;0.1005
0002008943;7.2233;2.6193;2.9736;0.0438;0.1307;0.0947
0002008954;7.0413;2.1739;2.8970;0.0246;0.1199;0.0853
0002008962;7.2185;2.1380;2.9712;0.0265;0.1184;0.0911
0002008974;7.2616;1.8411;2.9185;0.0388;0.1199;0.0757
0002008982;7.2808;1.6664;2.8946;0.0432;0.1390;0.0446
0002008993;7.2712;1.8411;2.8611;0.0946;0.1380;0.0464
0002009001;7.0533;1.6257;2.8180;0.0998;0.1553;0.0456
0002009009;7.3191;2.0063;2.8706;0.1200;0.1705;0.0489
0002009021;7.3502;2.1691;2.8635;0.1291;0.1911;0.0353
0002009029;7.3263;2.2769;2.8922;0.1210;0.2060;0.0424
0002009040;7.2903;2.5235;2.9018;0.1298;0.2176;0.0606
0002009048;7.3574;2.7150;2.8012;0.1166;0.2354;0.0620
0002009060;7.1156;2.5019;2.8060;0.0867;0.2585;0.0714
0002009068;7.1850;2.5426;2.8826;0.0649;0.2670;0.0758
0002009076;7.0701;2.5570;2.9018;0.0853;0.2746;0.0622
0002009087;6.7924;2.4660;2.9305;0.0763;0.2822;0.0504
0002009095;6.9695;2.6552;2.8946;0.0564;0.2774;0.0465
0002009107;6.8235;2.2529;3.0933;0.0252;0.2571;0.0417
0002009115;6.7564;2.4229;2.8156;0.0160;0.2530;0.0394
0002009123;6.8546;2.5259;2.8850;0.0254;0.2422;0.0294
0002009134;6.9576;2.7150;2.9137;-0.0003;0.2392;0.0268
0002009142;6.8307;2.6336;2.9018;-0.0234;0.2305;0.0160
0002009211;6.8163;2.2098;2.7198;-0.0662;0.1960;0.0199
0002009219;6.8738;2.3703;2.7509;-0.0305;0.2000;0.0181
0002009230;6.8833;2.3559;2.7390;-0.0372;0.1853;0.0161
0002009238;6.8474;2.4469;2.8060;-0.0462;0.1805;0.0265
0002009246;7.0653;2.3439;2.6911;-0.0445;0.1829;0.0382
0002009258;6.9168;2.3559;2.7150;-0.0184;0.1709;0.0450
0002009266;6.7852;2.0997;2.7509;0.0025;0.1643;0.0533
0002009277;6.8953;2.2601;2.7845;0.0215;0.1599;0.0685
0002009285;6.9552;2.1883;2.7390;0.0410;0.1455;0.0709
0002009297;6.9815;2.3128;2.6336;0.0521;0.1327;0.0961
0002009305;6.9312;2.3032;2.7150;0.0593;0.1295;0.1111
0002009313;7.1180;2.3320;2.6863;0.0715;0.1220;0.1204
0002009324;6.8929;2.2529;2.5402;0.0710;0.1124;0.1404
0002009332;7.1132;2.2601;2.6528;0.0767;0.0997;0.1422
0002009344;7.2137;2.4636;2.7246;0.0817;0.0931;0.1502
0002009352;7.1922;2.4541;2.6863;0.0754;0.0806;0.1555
0002009363;7.1682;2.4349;2.8156;0.0831;0.0729;0.1560
0002009371;6.9264;2.2817;2.7629;0.0865;0.0576;0.1535
0002009379;7.0054;2.3008;2.8563;0.0826;0.0493;0.1581
0002009391;6.9815;2.1045;2.8180;0.0955;0.0289;0.1585
0002009399;6.8642;2.0806;2.7461;0.1104;0.0225;0.1561
0002009411;7.0629;2.2458;2.8204;0.1196;0.0143;0.1484
0002009419;6.8594;2.1117;2.9137;0.1363;-0.0021;0.1432
0002009488;7.0725;2.0853;2.7773;0.2534;-0.0562;0.1302
0002009496;6.9743;2.1883;2.7342;0.2361;-0.0655;0.1244
0002009504;7.0820;2.4493;2.7892;0.2152;-0.0723;0.1263
0002009515;7.0437;2.6432;2.8467;0.1752;-0.0925;0.1262
0002009523;7.0677;2.4756;2.8204;0.1568;-0.1130;0.1203
0002009535;6.9168;2.5379;2.7653;0.1402;-0.1486;0.1144
0002009543;7.0150;2.7366;2.8922;0.1372;-0.1759;0.1033
0002009554;7.0246;2.7366;2.9329;0.1292;-0.2133;0.0893
0002009562;7.0557;2.6408;2.8659;0.1160;-0.2314;0.0901
0002009570;7.3119;2.8850;2.9090;0.0942;-0.2513;0.0821
0002009582;7.4579;2.9090;2.9329;0.0667;-0.2711;0.0674
0002009590;7.6447;2.9329;2.8802;0.0413;-0.2891;0.0516
0002009601;7.4292;2.5666;2.8611;0.0043;-0.3020;0.0352
0002009609;7.5417;2.3176;2.7581;-0.0085;-0.3151;0.0145
0002009621;7.6854;2.2362;2.5570;-0.0325;-0.3273;-0.0083
0002009629;7.9033;2.2410;2.4086;-0.0337;-0.3396;-0.0254
0002009637;7.8530;2.2960;2.2098;-0.0234;-0.3427;-0.0489
0002009648;7.4819;2.1763;1.9513;0.0025;-0.3368;-0.0827
0002009656;7.6327;2.0566;2.1021;0.0233;-0.3280;-0.1017
0002009668;7.9272;2.3032;1.8986;0.0469;-0.3150;-0.1224
0002009676;8.1427;2.4325;1.9345;0.0681;-0.2924;-0.1240
0002009688;8.2217;2.7725;1.8794;0.0883;-0.2459;-0.1132
0002009696;8.5377;2.9137;1.8148;0.0897;-0.2089;-0.1079
0002009704;8.5808;2.6671;1.8794;0.0926;-0.1660;-0.0893
0002009773;8.5305;2.8060;2.2505;-0.0517;0.0930;0.0935
0002009781;8.4396;2.6911;2.1644;-0.0714;0.1045;0.0894
0002009792;8.4108;2.7318;2.2075;-0.1058;0.1167;0.0798
0002009800;8.1163;2.5977;2.1691;-0.1342;0.1176;0.0801
0002009812;8.0373;2.5235;2.2290;-0.1575;0.1092;0.0757
0002009820;7.6974;2.2984;2.2553;-0.1745;0.1136;0.0765
0002009831;7.7644;2.3200;2.2745;-0.1709;0.1054;0.0713
0002009839;7.4795;2.0806;2.2003;-0.1563;0.0911;0.0662
0002009847;7.4412;2.0279;2.1811;-0.1479;0.0810;0.0693
0002009859;7.7309;2.2003;2.1476;-0.1075;0.0638;0.0613
0002009867;7.5010;2.0135;2.1428;-0.0869;0.0602;0.0588
0002009878;7.5824;2.2841;2.1213;-0.0729;0.0450;0.0506
0002009886;7.8123;2.4469;2.0973;-0.0678;0.0481;0.0549
0002009898;7.7931;2.3487;2.0470;-0.0658;0.0412;0.0317
0002009906;8.0182;2.5019;2.2051;-0.0646;0.0382;0.0217
0002009914;7.9583;2.4349;2.1332;-0.0742;0.0456;0.0132
0002009925;8.0541;2.3870;2.0446;-0.0966;0.0522;0.0035
0002009933;8.1475;2.5618;2.0470;-0.1003;0.0568;-0.0072
0002009945;8.2337;2.3367;2.0303;-0.1067;0.0791;-0.0107
0002009953;8.2408;2.4445;2.0638;-0.0993;0.0815;-0.0156
0002009965;8.2576;2.3272;1.9465;-0.0893;0.1035;-0.0131
0002009973;8.2145;2.2505;2.0111;-0.0759;0.1148;-0.0117
0002009981;8.2169;2.3894;2.0303;-0.0701;0.1252;-0.0079
0002010049;8.2815;2.5881;1.7238;-0.0481;0.2489;0.0244
0002010057;8.1786;2.5570;1.8148;-0.0601;0.2642;0.0254
0002010068;8.3390;2.6959;1.7645;-0.1029;0.2894;0.0365
0002010076;8.2193;2.7198;1.6568;-0.1318;0.2979;0.0292
0002010088;8.1331;2.8443;1.7142;-0.1779;0.3114;0.0320
0002010096;7.9727;2.8419;1.6640;-0.1865;0.3132;0.0320
0002010104;8.1187;2.8180;1.5658;-0.1958;0.3183;0.0374
0002010115;7.9440;2.6863;1.5490;-0.1937;0.3184;0.0420
0002010123;8.1594;2.6073;1.5658;-0.1856;0.3210;0.0505
0002010135;7.8745;2.3750;1.4700;-0.1488;0.3336;0.0518
0002010143;7.8338;2.4038;1.5107;-0.1394;0.3397;0.0600
0002010155;8.1020;2.5474;1.6640;-0.1382;0.3473;0.0685
0002010163;7.8219;2.4301;1.7262;-0.1402;0.3491;0.0681
0002010171;7.7716;2.4397;1.6975;-0.1454;0.3520;0.0722
0002010182;7.7524;2.4565;1.7095;-0.1568;0.3576;0.0761
0002010190;7.4412;2.2098;1.7789;-0.1648;0.3633;0.0729
0002010202;7.4148;2.2290;1.8555;-0.1687;0.3568;0.0589
0002010210;7.4867;2.2458;1.8124;-0.1752;0.3488;0.0544
0002010221;7.2664;2.1332;1.9944;-0.1720;0.3254;0.0380
0002010229;7.2760;2.3535;2.1907;-0.1821;0.2934;0.0282
0002010237;7.1802;2.6624;2.5067;-0.2068;0.2651;0.0229
0002010249;7.0820;2.9281;3.1244;-0.2525;0.1817;-0.0001
0002010257;6.6487;3.2513;3.4237;-0.2721;0.1174;0.0005
0002010325;8.2935;1.8771;3.0239;-0.1685;-0.6993;0.1143
0002010333;8.9663;2.2194;2.8036;-0.1541;-0.7160;0.0721
0002010345;9.4451;2.7964;2.6217;-0.1805;-0.6815;-0.0117
0002010353;9.5481;2.8060;2.6217;-0.2361;-0.6153;-0.0705
0002010364;9.4547;2.8443;2.4780;-0.3473;-0.4866;-0.1284
0002010372;9.2153;2.6217;2.4086;-0.4257;-0.3809;-0.1514
0002010380;9.1626;2.4421;2.7198;-0.4940;-0.2886;-0.1648
0002010392;9.1937;1.9537;3.0167;-0.5273;-0.1711;-0.1400
0002010400;9.0309;1.8818;3.2537;-0.4960;-0.1140;-0.1022
0002010411;8.6718;2.1356;3.3279;-0.4397;-0.0482;-0.0450
0002010419;8.3007;2.2386;3.6392;-0.4198;-0.0200;-0.0025
0002010431;7.8554;2.5666;3.8092;-0.3826;-0.0172;0.0289
0002010439;7.3598;2.4780;3.8116;-0.3552;-0.0374;0.0442
0002010450;7.2137;2.4373;3.8283;-0.3321;-0.0923;0.0334
0002010458;7.1180;2.1380;3.9193;-0.3179;-0.1324;0.0081
0002010466;7.1682;2.0901;3.9169;-0.3038;-0.1659;-0.0217
0002010478;7.3310;1.7645;4.0534;-0.2598;-0.2210;-0.0838
0002010486;7.2257;1.2522;4.1946;-0.2168;-0.2567;-0.1175
0002010497;7.1970;1.2402;4.3383;-0.1527;-0.3102;-0.1631
0002010505;7.2113;1.2594;4.2162;-0.1318;-0.3435;-0.1935
0002010517;7.3837;1.5107;4.0127;-0.1088;-0.3535;-0.2316
0002010525;7.2760;1.6568;4.0151;-0.1041;-0.3435;-0.2606
0002010533;7.0820;1.4269;3.9121;-0.0986;-0.3262;-0.2828
0002010601;7.7452;1.0630;4.0558;-0.0009;0.0426;-0.3043
0002010609;8.2001;0.9098;4.0654;0.0137;0.1013;-0.2846
0002010621;8.3031;0.8691;4.1635;0.0622;0.1713;-0.2579
0002010629;8.0972;0.7374;4.0941;0.0989;0.2100;-0.2358
0002010640;8.1355;0.8212;3.9744;0.1392;0.2541;-0.1982
0002010648;7.8075;1.0104;3.7541;0.1627;0.2838;-0.1872
0002010660;7.6591;1.3527;3.5195;0.1873;0.3108;-0.1805
0002010668;7.3813;1.4916;3.4309;0.1701;0.3258;-0.1892
0002010676;7.4364;1.6352;3.3926;0.1450;0.3397;-0.1853
0002010687;7.5178;2.0614;3.5841;0.1306;0.3648;-0.1799
0002010695;7.5465;2.2434;3.7373;0.1271;0.3736;-0.1792
0002010707;7.3694;2.4924;3.9792;0.1384;0.3587;-0.1668
0002010715;7.0222;2.6336;4.1420;0.1362;0.3299;-0.1583
0002010726;6.3758;3.0239;4.3479;0.1447;0.2671;-0.1743
0002010734;6.4476;2.9544;4.4149;0.1402;0.2209;-0.1969
0002010742;6.2321;2.8108;4.3239;0.1250;0.1752;-0.2125
0002010754;6.0549;2.2865;4.3670;0.0955;0.0922;-0.2535
0002010762;6.5242;2.1596;4.2282;0.0826;0.0284;-0.3060
0002010773;6.0262;1.9417;4.2832;0.0762;-0.0308;-0.3501
0002010781;5.8993;2.0327;4.1396;0.0516;-0.0604;-0.3812
0002010793;6.0023;1.9154;3.8978;0.0124;-0.1062;-0.4073
0002010801;5.6767;2.1213;4.2282;-0.0093;-0.1164;-0.4195
0002010809;5.7533;2.2003;4.2114;-0.0171;-0.1407;-0.4389
0002010875;7.1108;1.9273;3.3471;-0.0072;-0.2078;-0.4151
0002010883;7.2257;1.9058;3.3279;-0.0053;-0.1865;-0.4094
0002010895;7.2496;1.9369;3.3806;0.0052;-0.1665;-0.3981
0002010903;6.9097;1.6999;3.4165;-0.0047;-0.1476;-0.3848
0002010914;6.8402;1.6065;3.4524;-0.0249;-0.1248;-0.3782
0002010922;6.5793;1.7047;3.4141;-0.0318;-0.1092;-0.3663
0002010934;6.3398;1.8842;3.5698;-0.0496;-0.1011;-0.3335
0002010942;6.0669;1.8052;3.5530;-0.0541;-0.1174;-0.3011
0002010950;5.8442;1.9225;3.7158;-0.0405;-0.1402;-0.2814
0002010961;5.9903;2.0303;3.6057;-0.0360;-0.1713;-0.2482
0002010969;5.9735;1.8818;3.6440;-0.0253;-0.1903;-0.2381
0002010981;6.1914;1.7861;3.5314;-0.0011;-0.2101;-0.2337
0002010989;6.4284;1.9968;3.6296;0.0156;-0.2234;-0.2253
0002011000;6.7205;2.0039;3.5267;0.0376;-0.2294;-0.2194
0002011008;6.6774;1.7933;3.4093;0.0461;-0.2310;-0.2154
0002011020;6.8857;1.5347;3.2202;0.0661;-0.2046;-0.2381
0002011028;7.0820;1.4892;3.0694;0.0947;-0.1757;-0.2475
0002011036;7.0342;1.1660;2.9425;0.1306;-0.1260;-0.2478
0002011047;7.1706;1.1708;2.7222;0.1976;-0.0775;-0.2541
0002011055;7.4388;1.3120;2.5618;0.2370;-0.0318;-0.2430
0002011067;7.4579;1.2546;2.4565;0.2954;0.0338;-0.2202
0002011075;7.5657;1.4341;2.4995;0.3216;0.0929;-0.1909
0002011143;7.0725;2.4110;2.4086;0.4766;0.4218;0.1130
0002011151;6.9815;2.2601;2.4852;0.5099;0.4333;0.1262
0002011159;7.0485;2.6288;2.4732;0.5045;0.4563;0.1474
0002011171;6.5027;2.7725;2.5043;0.4854;0.4631;0.1528
0002011179;6.3207;2.7557;2.6432;0.4539;0.4630;0.1541
0002011190;6.1148;2.6025;2.6480;0.4265;0.4534;0.1446
0002011198;6.0908;2.5881;2.5642;0.4056;0.4477;0.1474
0002011210;5.9903;2.4301;2.5283;0.3846;0.4159;0.1498
0002011218;6.0741;2.4636;2.5043;0.3841;0.3997;0.1531
0002011226;5.9735;2.6552;2.5211;0.3877;0.3732;0.1592
0002011237;5.8538;2.7629;2.6863;0.3691;0.3511;0.1781
0002011245;5.8826;2.9736;2.8132;0.3397;0.3368;0.1917
0002011257;5.9592;3.0430;2.8946;0.2919;0.2996;0.2138
0002011265;6.0190;2.9090;2.9736;0.2450;0.2783;0.2314
0002011273;6.0286;2.8204;2.9975;0.2137;0.2409;0.2368
0002011284;6.1627;2.3679;2.9113;0.1607;0.2046;0.2406
0002011292;6.2560;2.1811;2.6839;0.1439;0.1865;0.2277
0002011304;6.0334;1.5945;2.4301;0.1428;0.2014;0.1976
0002011312;6.2489;1.5371;2.3894;0.1596;0.2086;0.1749
0002011323;6.1651;1.5443;2.3631;0.1696;0.2212;0.1480
0002011331;6.4045;1.9824;2.3918;0.1635;0.2325;0.1434
0002011339;6.4021;2.2936;2.5379;0.1264;0.2462;0.1536
0002011351;6.2944;2.7174;2.7270;0.0473;0.2474;0.1847
0002011359;6.3614;3.0095;2.7294;-0.0261;0.2502;0.2220
0002011427;5.7844;0.1867;2.3990;-0.3361;0.3328;0.1351
0002011435;5.5809;0.3831;2.4062;-0.3329;0.3103;0.1330
0002011447;5.1787;0.3759;2.5881;-0.3027;0.2439;0.1299
0002011455;5.2433;0.4262;2.4421;-0.2705;0.1973;0.1379
0002011463;5.5881;0.7733;2.3942;-0.2249;0.1612;0.1555
0002011474;5.6168;0.9409;2.4924;-0.1563;0.1017;0.1843
0002011482;5.5450;1.3264;2.7150;-0.1062;0.0580;0.2029
0002011494;5.9065;1.8100;2.7366;-0.0683;0.0306;0.2389
0002011502;6.0166;1.9297;2.6049;-0.0456;0.0132;0.2494
0002011513;6.3375;1.8459;2.4086;-0.0297;0.0218;0.2372
0002011521;6.5362;1.5682;2.2003;0.0072;0.0300;0.2093
0002011529;6.4500;1.3144;2.2338;0.0390;0.0506;0.1873
0002011541;6.8211;1.5371;2.1021;0.1135;0.0849;0.1647
0002011549;6.7253;1.7669;2.3607;0.1671;0.0925;0.1560
0002011561;6.6535;3.0646;2.6911;0.1925;0.1103;0.1845
0002011569;6.3351;3.9193;2.9233;0.1665;0.1164;0.2028
0002011580;6.0166;4.6855;3.0167;0.0893;0.1100;0.2276
0002011588;5.9975;4.7645;2.6312;0.0153;0.1071;0.2316
0002011596;5.8802;4.3814;2.2075;-0.0608;0.1055;0.2109
0002011608;6.2345;3.7062;1.6305;-0.1431;0.1327;0.1677
0002011616;6.5050;3.2848;1.6041;-0.1536;0.1551;0.1571
0002011684;6.6080;2.4828;2.4828;-0.4446;0.0935;0.3521
0002011692;6.6822;1.4892;2.2745;-0.4066;0.1174;0.2686
0002011704;6.4811;0.6081;2.0662;-0.2835;0.1495;0.1761
0002011712;6.4332;0.8021;2.1356;-0.1982;0.1628;0.1597
0002011720;5.9592;1.1396;2.4421;-0.1174;0.1458;0.1829
0002011731;5.6719;2.4924;2.7198;-0.0830;0.1033;0.2815
0002011739;5.3008;3.0550;2.7892;-0.1100;0.0582;0.3672
0002011751;5.7916;3.2848;2.5642;-0.1939;-0.0017;0.4758
0002011759;6.1723;2.8683;2.5043;-0.2634;-0.0168;0.4946
0002011770;6.3015;1.4748;2.4804;-0.3669;-0.0055;0.4442
0002011778;6.4955;0.6177;2.1811;-0.3575;0.0071;0.3873
0002011786;6.4212;0.0551;1.8531;-0.2975;0.0224;0.2991
0002011798;6.6774;-0.3256;2.0782;-0.1561;0.0509;0.1800
0002011806;6.9121;0.2155;2.4277;-0.0809;0.0701;0.1442
0002011817;7.2113;1.7190;3.1915;-0.0504;0.0838;0.1691
0002011825;7.4364;2.6097;3.6536;-0.0826;0.1002;0.2038
0002011837;7.8745;4.0151;4.3167;-0.1661;0.1110;0.2414
0002011845;8.4084;3.9217;4.5633;-0.2805;0.1458;0.2250
0002011853;8.3701;3.1053;4.6495;-0.3599;0.2050;0.1771
0002011864;9.1889;2.1859;4.2234;-0.2971;0.2665;0.0754
0002011872;9.5146;1.4605;3.6775;-0.1885;0.3176;0.0273
0002011884;9.9766;1.8244;3.6009;0.0120;0.4206;-0.0285
0002011892;9.8545;2.6360;3.8427;0.1192;0.4979;-0.0565
0002011960;6.9192;2.5618;3.3471;0.0969;0.7445;0.1689
0002011968;7.0725;2.2410;3.2130;0.1491;0.6832;0.2024
0002011976;7.3430;2.0542;3.4069;0.1833;0.6173;0.2471
0002011988;7.4124;2.3703;3.4764;0.1986;0.5349;0.2960
0002011996;7.3789;2.8252;3.5554;0.1556;0.4984;0.3268
0002012007;7.3694;2.9090;3.7134;0.0297;0.4788;0.3721
0002012015;7.6447;3.0813;3.9265;-0.0573;0.4890;0.3569
0002012027;7.5681;2.2051;3.9935;-0.1324;0.5646;0.2394
0002012035;7.5369;1.9082;4.4053;-0.1182;0.5781;0.1573
0002012043;7.0916;1.9273;4.5250;-0.0867;0.5845;0.0942
0002012055;6.7612;2.0566;4.4891;-0.0516;0.5578;0.0322
0002012063;6.5625;2.0806;4.4197;-0.0314;0.5111;0.0089
0002012075;6.4045;2.1380;4.2234;-0.0290;0.4273;0.0053
0002012083;6.1268;1.9369;4.0486;-0.0306;0.3814;0.0204
0002012095;6.1651;1.8579;3.7828;0.0032;0.3108;0.0528
0002012103;6.2537;1.4078;3.5602;0.0108;0.2948;0.0839
0002012111;6.4907;1.2139;3.3327;0.0201;0.2875;0.1082
0002012123;6.9456;1.1516;3.0119;0.0626;0.3200;0.1216
0002012131;7.1371;1.2043;2.9497;0.0999;0.3547;0.1338
0002012142;7.3646;1.1253;2.8299;0.1484;0.4101;0.1432
0002012150;7.6878;1.3910;2.8299;0.1804;0.4619;0.1448
0002012162;8.1930;1.8172;2.9664;0.2250;0.5457;0.1306
0002012170;8.4013;2.1308;3.3184;0.2374;0.5943;0.1131
0002012178;8.2863;2.3774;3.3495;0.2301;0.6431;0.1038
0002012246;6.8331;2.8347;3.6679;0.2894;0.6071;0.1378
0002012254;6.8642;3.0574;3.8762;0.2777;0.5581;0.1446
0002012266;6.4165;3.0502;3.9097;0.2535;0.4944;0.1715
0002012274;6.3686;2.8994;3.9002;0.2262;0.4545;0.1869
0002012282;6.4284;2.8276;3.8906;0.2080;0.4215;0.2078
0002012294;6.3087;2.5355;3.8259;0.2000;0.3637;0.2370
0002012302;6.3997;2.4612;3.9456;0.1968;0.3265;0.2483
0002012314;6.4979;2.4062;3.7278;0.1797;0.2573;0.2715
0002012322;6.3925;2.1141;3.7661;0.1683;0.2060;0.2794
0002012333;6.2537;1.8052;3.6966;0.1515;0.1372;0.2871
0002012341;6.2632;1.6879;3.6368;0.1275;0.0934;0.2795
0002012349;6.4763;1.8531;3.5482;0.1184;0.0482;0.2597
0002012361;6.4356;1.6400;3.5721;0.1003;-0.0019;0.2140
0002012369;6.4763;1.7382;3.5578;0.0917;-0.0417;0.1788
0002012380;6.5074;1.7717;3.5243;0.0838;-0.0910;0.1276
0002012388;6.6367;1.7406;3.5554;0.0799;-0.1128;0.1038
0002012400;6.8235;2.0470;3.5769;0.0938;-0.1711;0.0895
0002012408;7.0533;1.8268;3.3303;0.0791;-0.1792;0.0754
0002012416;7.5561;1.9106;3.2417;0.0833;-0.1716;0.0406
0002012427;7.7381;1.9273;3.0885;0.1055;-0.1475;0.0187
0002012435;7.8434;2.2218;2.9640;0.1176;-0.1336;0.0023
0002012447;8.0230;2.6145;3.0167;0.1175;-0.0949;-0.0045
0002012455;7.7955;2.7988;3.0191;0.0985;-0.0697;-0.0108
0002012523;7.2712;2.4134;2.9497;-0.0691;0.0532;-0.0199
0002012531;7.1802;2.2505;2.9090;-0.0973;0.0691;-0.0402
0002012539;7.0557;2.2266;2.9113;-0.1223;0.0850;-0.0765
0002012551;7.0844;2.4732;2.9257;-0.1713;0.1132;-0.1375
0002012559;6.8690;2.5091;2.8611;-0.2036;0.1367;-0.1699
0002012570;6.6511;2.3918;2.7725;-0.2519;0.1523;-0.2149
0002012578;6.5386;2.4493;2.7701;-0.2844;0.1601;-0.2395
0002012590;6.3829;2.5522;2.8419;-0.3293;0.1632;-0.2737
0002012598;6.5457;2.6169;2.9592;-0.3560;0.1406;-0.2902
0002012609;6.6224;2.6360;2.9425;-0.3890;0.0978;-0.2835
0002012617;6.7086;2.7485;2.9090;-0.4068;0.0534;-0.2654
0002012625;6.8690;2.7892;3.0933;-0.4306;0.0048;-0.2546
0002012637;6.9911;2.9161;3.1340;-0.4658;-0.0568;-0.2423
0002012645;7.1251;2.8922;3.3255;-0.4974;-0.0813;-0.2334
0002012656;7.3741;2.4900;3.3447;-0.5327;-0.1131;-0.2118
0002012664;7.3861;2.2889;3.2753;-0.5546;-0.1291;-0.1957
0002012676;7.1994;1.4341;3.1723;-0.5231;-0.1543;-0.1295
0002012684;7.4101;1.2474;3.0406;-0.4561;-0.1737;-0.0826
0002012695;6.9552;0.7925;3.0047;-0.3391;-0.1998;-0.0193
0002012703;6.9576;1.3719;2.9090;-0.2475;-0.2109;0.0185
0002012711;6.7947;1.7526;2.7438;-0.1901;-0.2156;0.0048
0002012723;6.6607;2.0351;2.7007;-0.1436;-0.2256;-0.0238
0002012731;6.6343;2.3966;2.6049;-0.1239;-0.2441;-0.0340
0002012799;7.2185;0.9697;2.6049;-0.1613;-0.2749;-0.0015
0002012807;7.0342;0.6847;2.6935;-0.1144;-0.2787;0.0085
0002012819;7.2856;0.6728;2.7390;-0.0333;-0.2839;-0.0065
0002012827;7.4220;1.0175;2.8922;0.0292;-0.2827;-0.0462
0002012835;7.5872;1.2881;2.8347;0.0612;-0.2747;-0.0675
0002012847;7.4843;1.6520;2.8611;0.0903;-0.2657;-0.1081
0002012855;7.6471;1.6735;2.7007;0.1015;-0.2635;-0.1304
0002012867;7.8554;1.3312;2.6025;0.0934;-0.2970;-0.1175
0002012875;7.8961;1.0989;2.5881;0.1003;-0.3308;-0.0847
0002012887;7.6375;1.2833;2.6169;0.1516;-0.3744;-0.0462
0002012895;7.2377;1.2067;2.6815;0.1845;-0.3968;-0.0458
0002012907;7.1323;1.9225;2.8252;0.2204;-0.4073;-0.0875
0002012915;7.0701;2.1476;2.9377;0.2170;-0.4183;-0.1234
0002012923;7.2568;2.3559;2.9975;0.1905;-0.4106;-0.1535
0002012935;7.3263;2.3727;3.0071;0.1528;-0.4057;-0.1982
0002012943;7.2927;2.2817;2.8467;0.1278;-0.3950;-0.2085
0002012955;7.2401;1.8818;2.7078;0.1154;-0.3925;-0.2320
0002012963;7.3334;1.9369;2.7509;0.0937;-0.3813;-0.2381
0002012975;7.3694;2.1045;2.7845;0.0789;-0.3734;-0.2711
0002012983;7.3023;2.4134;2.9257;0.0565;-0.3551;-0.2875
0002012991;7.5537;2.7869;3.0550;0.0274;-0.3415;-0.3063
0002013003;7.5202;3.1651;3.3016;-0.0369;-0.3146;-0.3371
0002013011;7.5130;3.2633;3.5291;-0.0874;-0.3032;-0.3501
0002013080;7.4555;2.5809;3.1819;-0.0905;-0.3200;-0.3283
0002013088;7.7812;2.9113;3.3471;-0.1067;-0.3095;-0.3557
0002013100;8.1834;3.1101;3.5075;-0.1881;-0.2932;-0.3651
0002013108;7.9751;2.6839;3.5075;-0.2337;-0.2848;-0.3448
0002013120;7.9033;1.4653;3.1891;-0.2798;-0.3164;-0.2753
0002013128;7.7237;0.9146;3.0358;-0.2248;-0.3320;-0.2364
0002013136;7.2664;0.5076;3.0023;-0.1432;-0.3603;-0.2278
0002013148;6.4643;0.8188;2.7629;-0.0203;-0.3860;-0.2834
0002013156;6.5434;1.7909;2.7605;0.0464;-0.3868;-0.3829
0002013168;6.9240;3.2657;2.7581;0.0630;-0.3981;-0.5391
0002013176;7.0366;3.9768;2.8443;0.0048;-0.4133;-0.6134
0002013188;7.1012;4.0223;3.3806;-0.1828;-0.4314;-0.6303
0002013196;6.7181;3.4309;3.5458;-0.2978;-0.4530;-0.6074
0002013208;6.6894;2.0806;3.3926;-0.4128;-0.4866;-0.5057
0002013216;6.7109;0.9242;3.3495;-0.4357;-0.5417;-0.4235
0002013224;6.8857;0.0910;3.2417;-0.4203;-0.5995;-0.3357
0002013236;7.0749;-0.6752;2.8299;-0.3737;-0.6632;-0.2519
0002013244;7.4220;-0.4190;2.4086;-0.3174;-0.6663;-0.2553
0002013256;7.7596;0.1939;2.2577;-0.1913;-0.6257;-0.3693
0002013264;8.3199;1.0965;2.3176;-0.1264;-0.5868;-0.4283
0002013276;8.6766;2.2194;2.9449;-0.1356;-0.5037;-0.4902
0002013284;8.4515;2.5953;3.0789;-0.2002;-0.4517;-0.4799
0002013353;8.6814;1.1947;4.0103;-0.1470;-0.1772;-0.1745
0002013361;8.7029;2.1332;5.4061;-0.3331;-0.0814;-0.1921
0002013369;8.0948;2.7222;6.6439;-0.5580;-0.0222;-0.1935
0002013381;6.2848;2.7557;7.7859;-0.8079;-0.0334;-0.1148
0002013389;4.8818;2.2458;7.8051;-0.7811;-0.0853;-0.0358
0002013401;3.0143;1.3623;6.9743;-0.4366;-0.1739;0.0332
0002013409;2.6288;1.3599;6.1938;-0.1541;-0.2465;0.0434
0002013421;4.1827;2.7150;5.3702;0.2166;-0.3862;0.0152
0002013429;5.4157;3.6057;5.2816;0.3428;-0.4213;-0.0368
0002013441;6.8594;4.1875;4.9895;0.3287;-0.3794;-0.1160
0002013449;7.4220;4.1875;4.7716;0.2451;-0.2967;-0.1328
0002013457;7.7476;3.6344;4.5083;0.1616;-0.2029;-0.1374
0002013469;7.6184;2.6528;4.4293;0.1175;-0.0663;-0.1408
0002013477;7.3741;2.4205;4.2066;0.1306;0.0081;-0.1315
0002013489;6.4979;2.8778;4.2593;0.2244;0.0718;-0.1074
0002013497;6.1435;3.5434;4.1970;0.2887;0.0766;-0.0626
0002013509;5.3630;4.4724;4.4125;0.3301;0.0561;0.0016
0002013517;5.3822;5.3391;4.6424;0.3016;0.0380;0.0290
0002013525;5.2888;5.6336;4.6926;0.2148;0.0233;0.0436
0002013537;5.7126;5.7557;4.9057;0.0321;0.0051;0.0430
0002013545;5.5737;5.2289;5.0949;-0.0777;-0.0109;0.0328
0002013557;5.1356;4.5921;5.1188;-0.1380;-0.0326;-0.0035
0002013565;4.8602;4.0199;4.9368;-0.0922;-0.0572;-0.0378
0002013633;7.2784;2.4948;4.0438;0.2096;0.0682;-0.0855
0002013641;6.7852;2.5833;3.8810;0.1829;0.1183;-0.0722
0002013649;6.3638;2.7294;3.8068;0.1575;0.1653;-0.0561
0002013661;5.7006;3.0694;3.7852;0.1248;0.2124;-0.0581
0002013669;5.5809;3.0574;3.8259;0.0913;0.2333;-0.0545
0002013681;5.4851;2.8491;3.9959;0.0089;0.2415;-0.0809
0002013689;5.7030;2.4229;4.1013;-0.0504;0.2377;-0.0946
0002013701;5.6527;1.7166;4.0199;-0.1132;0.1988;-0.1532
0002013709;5.6671;1.4126;4.0247;-0.1383;0.1687;-0.1856
0002013721;5.6336;0.8787;3.8068;-0.1327;0.0947;-0.2465
0002013729;5.3989;0.6249;3.7804;-0.1112;0.0521;-0.2687
0002013738;5.4564;0.7518;3.7996;-0.0779;0.0031;-0.2923
0002013751;5.6120;1.1133;3.6416;-0.0104;-0.0617;-0.3020
0002013760;5.6336;1.1708;3.8044;0.0478;-0.1085;-0.2814
0002013773;5.9256;1.6233;3.9624;0.1122;-0.1314;-0.2316
0002013782;6.3494;2.0949;4.0606;0.1287;-0.1284;-0.1769
0002013795;6.3231;2.2553;4.0031;0.1355;-0.1148;-0.1005
0002013804;6.3015;2.0830;3.9863;0.1326;-0.1077;-0.0642
0002013813;6.4476;2.0111;3.8331;0.1216;-0.0857;-0.0225
0002013826;6.3973;1.8387;3.5913;0.1143;-0.0762;0.0209
0002013835;6.1890;1.7957;3.3639;0.1082;-0.0613;0.0448
0002013848;6.4667;1.9273;3.3016;0.1116;-0.0537;0.0746
0002013857;6.4787;2.3463;3.4285;0.0967;-0.0448;0.1039
0002013926;6.0741;2.0566;3.2465;-0.0056;0.0449;0.1347
0002013935;5.8083;1.8555;3.1699;-0.0108;0.0426;0.1235
0002013944;6.1268;2.0782;3.1987;-0.0092;0.0341;0.1160
0002013957;6.0765;1.9609;3.2441;-0.0217;0.0341;0.1234
0002013966;6.2010;1.9632;3.2537;-0.0461;0.0404;0.1360
0002013979;6.1148;1.8004;3.2848;-0.0436;0.0314;0.1419
0002013988;5.8107;1.7286;3.2633;-0.0340;0.0157;0.1428
0002014001;5.7988;1.7669;3.2920;-0.0116;0.0000;0.1150
0002014010;5.4061;1.4485;3.3351;-0.0051;-0.0168;0.0926
0002014019;5.4875;1.7645;3.1915;0.0187;-0.0554;0.0614
0002014032;5.0182;1.6137;3.2633;0.0442;-0.1053;0.0245
0002014041;5.2648;1.5443;3.2681;0.0516;-0.1536;0.0105
0002014054;5.3774;1.6712;3.3878;0.0620;-0.2132;-0.0207
0002014063;5.6216;1.7286;3.3878;0.0727;-0.2385;-0.0333
0002014076;5.6360;2.0566;3.2872;0.0783;-0.2586;-0.0449
0002014085;5.7988;2.0542;3.1532;0.0739;-0.2619;-0.0410
0002014098;6.0166;2.2122;3.0239;0.0691;-0.2669;-0.0408
0002014107;6.2752;2.4110;3.0598;0.0659;-0.2715;-0.0334
0002014116;6.1316;2.3750;3.1580;0.0719;-0.2807;-0.0337
0002014129;6.2034;2.6217;3.2154;0.0759;-0.2852;-0.0181
0002014138;6.1459;2.4948;3.2896;0.0789;-0.2832;-0.0109
0002014151;6.0621;2.3343;3.2729;0.1059;-0.2939;-0.0051
0002014160;6.0047;2.2194;3.0957;0.1366;-0.2988;-0.0027
0002014229;5.8155;2.5067;3.1077;0.2213;-0.4626;0.0886
0002014238;5.6958;2.2960;3.0454;0.2414;-0.5015;0.1099
0002014247;6.0693;2.1404;3.0239;0.2442;-0.5412;0.1371
0002014260;6.3758;1.9154;2.8994;0.2626;-0.5857;0.1712
0002014269;6.7804;2.1380;2.9329;0.2597;-0.5886;0.1827
0002014282;7.1491;2.3679;2.8802;0.2449;-0.5915;0.1732
0002014291;7.3909;2.6767;3.1244;0.2165;-0.5545;0.1656
0002014304;7.7021;2.8395;3.2178;0.1531;-0.4923;0.1386
0002014313;7.6207;2.7007;3.2633;0.1228;-0.4547;0.1224
0002014322;7.7285;2.8252;3.2681;0.0890;-0.4090;0.1120
0002014335;7.3239;2.5426;3.1795;0.0589;-0.3501;0.1026
0002014344;7.1299;2.2553;3.1915;0.0648;-0.3283;0.1007
0002014357;6.8043;2.4014;3.0215;0.0714;-0.2916;0.1155
0002014366;6.7109;2.2242;2.8946;0.0783;-0.2775;0.1175
0002014379;6.8570;2.3918;2.8467;0.0703;-0.2494;0.1314
0002014388;6.8809;2.3104;2.8683;0.0586;-0.2314;0.1403
0002014397;7.1275;2.4876;2.7390;0.0806;-0.2264;0.1458
0002014413;7.1275;2.5642;2.8036;0.0737;-0.1947;0.1424
0002014422;7.2113;2.6264;2.8898;0.0723;-0.1788;0.1312
0002014492;6.8259;1.4676;2.4612;0.0863;-0.1515;-0.0020
0002014501;6.7445;1.2378;2.4277;0.1049;-0.1340;-0.0201
0002014513;6.7636;1.3048;2.2889;0.1251;-0.1136;-0.0389
0002014522;6.8307;1.2450;2.2769;0.1532;-0.1071;-0.0444
0002014535;6.8139;1.5802;2.6935;0.1436;-0.1183;-0.0163
0002014544;7.0677;2.0470;2.8252;0.0875;-0.1464;0.0278
0002014553;6.9264;2.0830;2.8132;0.0229;-0.1679;0.0608
0002014565;7.0605;2.0111;2.6360;-0.0685;-0.1723;0.0846
0002014574;6.7756;1.2785;2.4565;-0.1037;-0.1632;0.0711
0002014587;6.5457;0.3759;2.1931;-0.1211;-0.1371;0.0564
0002014596;6.5098;0.3615;2.3463;-0.0975;-0.1414;0.0600
0002014608;6.3327;0.6871;2.4732;-0.0470;-0.1785;0.0957
0002014617;5.9855;1.0367;2.6671;-0.0396;-0.2042;0.1404
0002014626;6.3159;1.9154;3.1364;-0.0697;-0.2567;0.1755
0002014639;6.3470;2.0399;2.9544;-0.1191;-0.2900;0.2092
0002014648;6.1962;1.8100;2.6073;-0.1314;-0.2875;0.2136
0002014660;6.5218;1.2282;2.2362;-0.1403;-0.2248;0.1876
0002014669;6.8738;0.9553;2.1117;-0.1146;-0.1819;0.1628
0002014682;7.5729;1.2833;2.1907;-0.0620;-0.1351;0.1740
0002014691;7.6734;1.6855;2.5426;-0.0272;-0.1187;0.2080
0002014700;7.8482;2.3128;2.5929;-0.0234;-0.0867;0.2501
0002014712;7.8913;3.0143;2.5331;-0.0528;-0.0442;0.2944
0002014721;7.6399;3.0646;2.3966;-0.0670;-0.0246;0.3216
0002014791;7.2496;2.7318;2.1739;-0.0187;0.2798;0.2050
0002014800;6.7540;3.0263;2.0638;-0.0490;0.2791;0.1667
0002014812;6.4069;2.9137;2.1428;-0.0453;0.2581;0.1693
0002014821;6.4739;3.2130;2.3846;-0.0220;0.2398;0.2042
0002014834;6.5888;3.2322;2.8108;0.0088;0.1897;0.2750
0002014843;6.9552;3.4237;3.1699;-0.0015;0.1648;0.3176
0002014852;6.9312;3.1699;3.2633;-0.0544;0.1522;0.3277
0002014864;6.5529;2.4732;2.7701;-0.1423;0.1522;0.2649
0002014873;6.1746;1.8124;2.2769;-0.1632;0.1597;0.1711
0002014886;5.9376;1.2091;1.6257;-0.1238;0.1683;0.0228
0002014895;5.9568;0.7757;1.3431;-0.0734;0.1709;-0.0448
0002014907;6.1723;1.0199;1.5347;0.0468;0.1432;-0.0765
0002014916;6.4356;1.6759;2.0949;0.1278;0.0915;-0.0625
0002014925;6.3638;2.3367;2.9018;0.1535;0.0338;-0.0302
0002014938;6.3494;3.1891;4.0318;0.0504;-0.0233;0.0111
0002014947;6.1124;2.8204;4.2760;-0.0737;-0.0429;-0.0472
0002014959;6.0310;1.9297;3.6583;-0.1599;-0.0352;-0.2302
0002014968;6.1459;1.0870;3.0263;-0.1163;-0.0389;-0.4233
0002014981;6.5003;0.0742;2.5881;-0.0141;-0.0193;-0.6804
0002014990;7.2712;0.1413;2.4205;0.0372;-0.0230;-0.8021
0002014999;7.9966;0.7087;2.7342;0.0859;-0.0473;-0.8687
0002015011;8.3582;1.7717;3.4165;0.0945;-0.1155;-0.8519
0002015020;8.5042;3.0191;4.0582;0.0598;-0.1789;-0.7677
0002015089;8.5329;2.1572;3.7804;-0.0179;-0.3768;-0.1965
0002015098;8.9926;2.1691;3.9504;0.0687;-0.3349;-0.1739
0002015110;9.6510;3.1532;3.9744;0.1603;-0.2316;-0.1864
0002015119;9.9575;4.1731;4.0534;0.2045;-0.1475;-0.2260
0002015132;9.8258;5.3630;4.3527;0.2777;-0.0525;-0.2915
0002015141;9.2727;5.5019;4.2138;0.3412;-0.0314;-0.3008
0002015150;8.1738;5.6623;4.0749;0.4080;-0.0633;-0.2505
0002015162;6.5841;5.3678;3.5626;0.4377;-0.1235;-0.1515
0002015171;5.8251;4.5729;3.2992;0.4305;-0.1709;-0.0737
0002015184;5.7868;3.7757;2.9329;0.3837;-0.2392;0.0401
0002015193;6.2058;3.1723;2.7701;0.3284;-0.2694;0.1022
0002015205;7.1371;3.0670;2.4588;0.2726;-0.3087;0.1732
0002015214;7.6902;2.8252;2.5043;0.2136;-0.3103;0.2053
0002015223;8.3127;2.8539;2.7557;0.1619;-0.3015;0.2189
0002015236;9.2967;3.1173;2.7102;0.1021;-0.2403;0.2038
0002015245;9.2967;3.0311;2.8874;0.0458;-0.1745;0.1860
0002015257;9.2991;2.9281;2.9592;-0.0064;-0.0794;0.1671
0002015266;9.0501;2.9640;2.9664;-0.0353;-0.0149;0.1671
0002015279;8.8107;3.1603;3.0502;-0.0769;0.0578;0.1632
0002015288;8.5593;3.0167;3.2250;-0.1058;0.0922;0.1583
0002015297;8.1475;2.9066;3.1436;-0.1334;0.1118;0.1472
0002015309;7.4268;2.4301;3.2681;-0.1565;0.1262;0.1287
0002015318;6.9408;2.0901;3.2298;-0.1712;0.1286;0.1254
0002015387;7.0653;2.0351;3.0502;-0.0221;-0.1360;0.0978
0002015396;7.3310;2.0590;2.9137;-0.0257;-0.1428;0.1057
0002015408;7.5872;1.9178;2.8012;-0.0136;-0.1543;0.0987
0002015417;7.6758;1.7980;2.6863;-0.0081;-0.1549;0.1046
0002015430;8.1690;2.0183;2.6911;0.0274;-0.1657;0.1051
0002015439;8.0685;2.0183;2.8228;0.0476;-0.1724;0.1017
0002015448;7.7189;1.8962;2.8371;0.0749;-0.1812;0.0863
0002015460;7.5417;1.9249;2.7581;0.0811;-0.1868;0.0687
0002015469;7.2880;1.8124;2.7102;0.0797;-0.1860;0.0529
0002015482;7.3837;1.8747;2.7270;0.0866;-0.1893;0.0329
0002015491;7.2712;1.7334;2.6384;0.1055;-0.2017;0.0128
0002015503;7.0533;1.6209;2.4756;0.1083;-0.1993;0.0003
0002015512;7.2018;1.8579;2.3487;0.1107;-0.2005;-0.0153
0002015521;7.2137;1.8794;2.3607;0.1092;-0.2060;-0.0257
0002015534;7.2065;1.9058;2.3966;0.1055;-0.2081;-0.0586
0002015543;7.4747;2.2242;2.4469;0.0967;-0.2129;-0.0849
0002015555;7.6184;2.4588;2.5235;0.0902;-0.2249;-0.1195
0002015564;7.4220;2.5355;2.4948;0.0917;-0.2392;-0.1406
0002015577;7.3502;2.6432;2.4636;0.0911;-0.2539;-0.1567
0002015586;7.3382;2.8299;2.4229;0.0890;-0.2657;-0.1656
0002015595;7.4508;2.8539;2.3343;0.0973;-0.2886;-0.1732
0002015607;7.6614;3.1125;2.3343;0.0810;-0.2863;-0.1627
0002015616;7.8841;3.2777;2.2960;0.0713;-0.2817;-0.1462
0002015684;8.0517;2.3631;2.0423;0.1231;-0.0298;0.0486
0002015693;7.7093;2.2434;2.0877;0.1326;-0.0145;0.0500
0002015705;7.7045;2.4493;2.2027;0.1388;-0.0124;0.0590
0002015714;7.5681;2.6025;2.2266;0.1319;-0.0133;0.0572
0002015723;7.5274;2.7102;2.1620;0.1250;-0.0199;0.0584
0002015736;7.6375;2.7150;2.2817;0.1152;-0.0253;0.0454
0002015745;7.6399;2.5762;2.2889;0.1011;-0.0229;0.0349
0002015757;7.6950;2.5857;2.2075;0.0917;-0.0334;0.0157
0002015766;7.7381;2.5426;2.1931;0.0786;-0.0366;0.0011
0002015779;7.7835;2.5355;2.1237;0.0609;-0.0329;-0.0233
0002015788;7.5705;2.5067;2.0590;0.0556;-0.0380;-0.0433
0002015797;7.4939;2.4469;2.1380;0.0385;-0.0358;-0.0534
0002015809;7.4029;2.6240;2.2194;0.0244;-0.0406;-0.0881
0002015818;7.2329;2.3894;2.3870;0.0047;-0.0457;-0.1063
0002015831;7.2425;2.3822;2.2960;-0.0005;-0.0540;-0.1218
0002015840;7.3741;2.4229;2.3176;0.0029;-0.0598;-0.1312
0002015852;7.4651;2.3583;2.1452;0.0133;-0.0707;-0.1284
0002015861;7.3263;2.3008;2.0446;0.0173;-0.0809;-0.1279
0002015874;7.5561;2.1763;2.0734;0.0108;-0.0889;-0.1331
0002015883;7.6495;2.2793;2.0518;0.0055;-0.0899;-0.1326
0002015892;7.5705;2.2817;2.1452;-0.0051;-0.0823;-0.1343
0002015904;7.6734;2.4014;2.2529;-0.0240;-0.0706;-0.1248
0002015913;7.4819;2.3128;2.1859;-0.0338;-0.0657;-0.1106
0002015983;7.5322;2.4014;1.7597;0.0222;-0.0934;-0.0317
0002015992;7.6184;2.3296;1.7286;0.0181;-0.0973;-0.0330
0002016005;7.7333;2.4134;1.6903;0.0036;-0.0818;-0.0373
0002016014;7.6136;2.4110;1.7190;-0.0008;-0.0718;-0.0617
0002016026;7.6447;2.7629;1.7334;-0.0448;-0.0481;-0.0823
0002016035;7.4867;2.7342;1.7765;-0.0706;-0.0437;-0.1057
0002016044;7.2903;2.5402;1.9201;-0.1086;-0.0284;-0.1112
0002016057;7.4005;2.3990;2.0566;-0.1408;-0.0386;-0.1156
0002016066;7.2185;2.1045;1.9752;-0.1444;-0.0513;-0.1030
0002016078;7.2712;1.9393;2.0494;-0.1424;-0.0810;-0.0809
0002016087;7.1874;1.6496;1.8220;-0.1334;-0.1114;-0.0718
0002016100;7.0557;1.9872;1.8579;-0.1236;-0.1475;-0.0831
0002016109;6.7828;1.9489;1.9632;-0.1490;-0.1625;-0.1053
0002016121;6.8474;2.1644;2.1596;-0.1885;-0.1911;-0.1524
0002016130;6.7205;2.1356;2.2745;-0.2316;-0.2074;-0.1821
0002016139;6.8857;2.1763;2.2218;-0.2891;-0.2338;-0.2162
0002016152;6.8115;2.0231;2.1021;-0.3480;-0.2709;-0.2344
0002016161;6.8785;1.9393;2.0231;-0.3734;-0.2934;-0.2360
0002016173;6.6319;1.8364;1.9130;-0.3766;-0.3230;-0.2326
0002016182;6.6272;1.9968;1.7717;-0.3604;-0.3385;-0.2410
0002016195;6.6583;2.3822;1.9728;-0.3419;-0.3516;-0.2502
0002016204;6.9049;2.6911;2.1380;-0.3481;-0.3480;-0.2562
0002016274;7.2065;2.3224;1.9034;-0.2787;-0.2455;-0.2786
0002016283;7.6207;2.9521;2.1739;-0.2638;-0.2054;-0.2991
0002016292;7.6614;3.3423;2.4086;-0.2777;-0.1668;-0.3179
0002016305;7.7189;3.4309;2.5714;-0.3487;-0.1218;-0.2900
0002016314;7.6471;3.1939;2.4828;-0.4166;-0.1135;-0.2459
0002016326;7.5226;2.1955;2.0853;-0.4792;-0.1314;-0.1568
0002016335;6.9432;1.7885;1.8411;-0.4699;-0.1589;-0.1071
0002016348;6.5218;1.8316;2.1452;-0.4006;-0.1607;-0.0973
0002016357;6.1962;2.5857;2.4157;-0.3260;-0.1404;-0.1552
0002016369;7.1635;3.7086;3.0909;-0.3158;-0.0954;-0.2164
0002016378;7.5154;4.2928;3.4117;-0.3861;-0.0466;-0.2361
0002016387;7.7524;4.1324;3.5745;-0.5232;-0.0153;-0.2237
0002016400;7.8817;2.9688;2.9880;-0.7476;-0.0057;-0.1223
0002016409;7.6471;1.5874;2.4181;-0.8495;-0.0208;-0.0306
0002016421;7.3406;0.2466;2.0207;-0.8765;-0.0496;0.0504
0002016430;6.9935;-0.4166;1.8699;-0.8006;-0.0669;0.0830
0002016443;6.4715;0.0742;2.4493;-0.6760;-0.0294;-0.0237
0002016452;6.9528;1.2665;2.7533;-0.5693;0.0212;-0.1238
0002016464;7.4603;3.1101;3.2896;-0.4794;0.1082;-0.2160
0002016473;7.9080;4.2162;4.0654;-0.5244;0.1460;-0.2365
0002016482;7.9655;4.3120;4.4532;-0.6719;0.1585;-0.1707
0002016495;7.5130;2.9018;4.1515;-0.8813;0.1128;0.0276
0002016504;7.2281;1.5323;3.8523;-0.9478;0.0530;0.1888
0002016574;7.5633;4.2282;5.2505;-0.1047;-0.0270;0.1475
0002016583;7.7859;3.7733;5.3439;-0.2294;-0.0885;0.2430
0002016596;7.1730;1.8914;4.7333;-0.2357;-0.1920;0.3865
0002016605;6.6750;0.8787;4.0366;-0.1202;-0.2459;0.4550
0002016614;6.5505;0.0192;3.2729;0.0292;-0.2918;0.4667
0002016626;6.6990;-0.5531;2.5666;0.2350;-0.3280;0.4251
0002016635;7.3143;0.0982;2.9592;0.3576;-0.3291;0.3487
0002016648;8.1834;1.7406;4.2760;0.3604;-0.2751;0.2230
0002016657;7.8985;2.5043;5.1404;0.2280;-0.2575;0.2036
0002016669;7.3023;2.9018;5.6168;0.0253;-0.3076;0.2451
0002016678;7.0725;2.7653;5.3965;-0.0225;-0.3824;0.3188
0002016687;6.8785;2.7318;5.0063;0.0388;-0.4803;0.3713
0002016700;6.5721;2.3343;4.3910;0.2162;-0.6158;0.4001
0002016709;6.7564;2.3966;4.1970;0.3191;-0.6893;0.3874
0002016721;7.1850;2.8012;4.2904;0.4274;-0.7310;0.2988
0002016730;7.9631;3.4716;4.5897;0.4098;-0.7060;0.2225
0002016743;8.5162;3.5386;4.6759;0.3163;-0.6439;0.0830
0002016752;8.3438;3.0454;4.5226;0.2380;-0.5938;-0.0013
0002016764;8.5521;2.7773;4.5322;0.1500;-0.5277;-0.0761
0002016773;8.4563;2.6791;4.9273;0.1002;-0.4856;-0.1135
0002016782;8.2839;2.7869;5.3774;0.0666;-0.4297;-0.1108
0002016795;8.1307;3.8283;5.7054;0.0699;-0.4108;-0.0450
0002016804;7.6519;4.0606;5.7748;0.1022;-0.4331;0.0302
0002016874;9.1961;1.0654;3.4237;0.3239;-0.3563;-0.1769
0002016883;9.2201;1.2067;3.3208;0.3142;-0.3167;-0.2134
0002016896;9.2009;1.2402;3.1747;0.2707;-0.2419;-0.2216
0002016905;8.8202;1.2067;3.3016;0.2523;-0.1931;-0.2166
0002016914;8.6550;1.1588;3.1580;0.2365;-0.1511;-0.1880
0002016926;8.4683;1.1444;2.9712;0.2164;-0.1063;-0.1294
0002016935;8.4539;1.1061;3.0335;0.1997;-0.0877;-0.1003
0002016948;8.3797;1.0367;3.2274;0.1919;-0.0629;-0.0589
0002016957;8.4467;1.2163;3.2130;0.1797;-0.0385;-0.0266
0002016969;8.6814;1.3144;3.4740;0.1748;-0.0141;0.0095
0002016978;8.8107;1.4557;3.8499;0.1671;-0.0025;0.0277
0002016987;8.6742;1.6951;4.2090;0.1487;0.0041;0.0546
0002017000;8.4467;2.0614;4.5250;0.1303;-0.0218;0.0785
0002017009;7.7668;2.1548;4.7405;0.1302;-0.0542;0.0895
0002017021;7.5082;2.5067;4.4365;0.1696;-0.1119;0.0875
0002017030;7.0413;2.2745;4.1444;0.2376;-0.1597;0.0699
0002017043;7.5178;2.0303;3.4189;0.3613;-0.1936;0.0533
0002017052;8.0493;1.6520;3.1412;0.4482;-0.2026;0.0538
0002017061;8.9016;1.7047;2.8036;0.5348;-0.1843;0.0358
0002017073;9.7540;2.1811;2.6600;0.5902;-0.1147;0.0051
0002017082;9.8330;2.5019;2.5809;0.5718;-0.0300;-0.0007
0002017095;9.8138;2.8204;2.4181;0.4838;0.0967;-0.0160
0002017104;9.3805;2.9904;2.4493;0.3976;0.1917;-0.0073
0002017174;6.1938;2.8443;2.9856;0.0477;0.1916;-0.0389
0002017183;6.4811;2.5881;2.9712;0.0348;0.1196;-0.0699
0002017196;6.6559;1.9513;2.8132;0.0564;0.0269;-0.1082
0002017205;6.9192;1.7957;2.7892;0.0878;-0.0233;-0.1410
0002017214;7.3813;1.7813;2.6528;0.1279;-0.0657;-0.1673
0002017226;7.4867;1.6927;2.4780;0.1945;-0.1003;-0.1992
0002017235;7.8602;1.9609;2.4565;0.2337;-0.1100;-0.2269
0002017248;7.8769;2.3439;2.5857;0.2553;-0.1007;-0.2320
0002017257;7.9272;2.6647;2.5450;0.2360;-0.0895;-0.2345
0002017269;7.7979;2.7677;2.5953;0.1924;-0.0678;-0.2301
0002017278;7.8458;2.8252;2.5379;0.1372;-0.0478;-0.2152
0002017287;7.6327;2.6504;2.5115;0.1037;-0.0377;-0.2029
0002017300;7.8673;2.7605;2.5211;0.0789;-0.0193;-0.1555
0002017309;7.6878;2.4780;2.3415;0.0893;-0.0083;-0.1158
0002017321;7.8913;2.5905;2.3320;0.1127;-0.0021;-0.0614
0002017330;7.9631;2.4756;2.3439;0.1258;0.0069;-0.0212
0002017343;8.0278;2.2553;2.4062;0.1391;0.0215;0.0055
0002017352;7.8075;2.2625;2.4469;0.1299;0.0312;0.0165
0002017361;7.6998;2.3583;2.4972;0.1284;0.0408;0.0232
0002017373;7.7548;2.4924;2.4588;0.1314;0.0418;0.0297
0002017382;7.5346;2.4541;2.4397;0.1240;0.0409;0.0432
0002017396;7.4124;2.5355;2.3415;0.1061;0.0215;0.0484
0002017405;7.3622;2.6025;2.2793;0.1079;0.0091;0.0484
0002017475;7.7428;2.6959;1.9393;0.0609;-0.0274;-0.0157
0002017484;7.9009;2.6432;1.9082;0.0589;-0.0116;-0.0092
0002017493;7.8554;2.5857;1.7693;0.0782;0.0093;-0.0117
0002017505;8.0158;2.3966;1.6592;0.0774;0.0533;-0.0032
0002017514;8.2648;2.6624;1.7142;0.0862;0.0914;0.0011
0002017527;8.1738;2.5953;1.6831;0.1096;0.1366;0.0040
0002017536;8.0780;2.4780;1.6735;0.1208;0.1723;0.0033
0002017548;7.8482;2.5379;1.6161;0.1280;0.2101;0.0172
0002017557;7.8697;2.5355;1.7502;0.1251;0.2356;0.0304
0002017566;7.8195;2.6169;1.6233;0.1090;0.2665;0.0425
0002017579;7.9966;2.7964;1.6640;0.0974;0.2971;0.0777
0002017588;7.9392;2.8826;1.6975;0.0753;0.3281;0.1058
0002017600;7.7668;2.8491;1.6281;0.0562;0.3595;0.1330
0002017609;7.9966;2.8347;1.6783;0.0536;0.3693;0.1328
0002017622;7.7093;2.4205;1.6520;0.0344;0.3732;0.1316
0002017631;7.7069;2.5307;1.6233;0.0502;0.3702;0.1219
0002017640;7.6878;2.4373;1.6137;0.0718;0.3576;0.1059
0002017652;7.3239;2.4636;1.6616;0.0939;0.3236;0.0883
0002017661;7.2113;2.5067;1.7885;0.1130;0.2890;0.0727
0002017674;7.0006;2.6217;1.8052;0.1184;0.2348;0.0482
0002017683;7.0342;2.6121;1.9680;0.1054;0.1965;0.0416
0002017692;6.7708;2.6432;2.0997;0.1001;0.1403;0.0276
0002017704;6.6990;2.6528;2.0423;0.0866;0.0706;0.0177
0002017713;6.8738;2.6815;2.0375;0.0677;0.0237;0.0312
0002017783;8.0996;2.5666;1.6664;-0.0192;-0.2242;0.0397
0002017792;8.1570;2.6983;1.6688;-0.0449;-0.2361;0.0624
0002017804;8.1211;2.6360;1.6400;-0.0801;-0.2499;0.0913
0002017813;8.2911;2.6624;1.3599;-0.1049;-0.2313;0.1199
0002017822;8.4108;2.6552;1.2426;-0.1174;-0.2225;0.1363
0002017835;8.4898;2.7725;1.0870;-0.1358;-0.2013;0.1768
0002017844;8.7460;2.7916;1.2067;-0.1496;-0.1777;0.2077
0002017856;8.8585;2.7414;1.2761;-0.1724;-0.1495;0.2300
0002017865;8.8897;2.5762;1.4724;-0.2102;-0.1190;0.2511
0002017878;8.6550;2.0590;1.6281;-0.2278;-0.0851;0.2730
0002017887;8.2672;1.5347;1.5562;-0.2321;-0.0506;0.3006
0002017899;8.0421;1.0104;1.5467;-0.1893;-0.0397;0.3155
0002017908;8.2504;1.0511;1.5778;-0.1406;-0.0340;0.3219
0002017917;8.1618;0.8547;1.6472;-0.0806;-0.0466;0.3243
0002017930;8.1954;1.0678;1.8747;0.0113;-0.0907;0.3344
0002017939;8.2121;1.2905;1.9513;0.0556;-0.1015;0.3391
0002017951;7.7716;1.4006;2.0734;0.0929;-0.1018;0.3409
0002017960;7.6591;1.4533;2.1715;0.1063;-0.1061;0.3273
0002017973;7.9871;1.8818;2.1691;0.1152;-0.1183;0.3056
0002017982;8.0685;1.8459;2.2314;0.1180;-0.1176;0.2940
0002017991;8.0349;1.9752;2.2362;0.1284;-0.1266;0.2641
0002018003;8.2720;2.3200;2.5450;0.1192;-0.1355;0.2254
0002018012;8.2384;2.3966;2.6240;0.0971;-0.1402;0.1940
0002018082;9.1698;1.2785;2.0853;-0.1663;0.0484;0.0977
0002018091;9.4092;1.5562;2.1811;-0.1330;0.0869;0.1166
0002018103;8.6910;1.9321;2.5570;-0.0943;0.1452;0.1250
0002018112;8.5449;2.1691;2.7485;-0.0830;0.1635;0.1468
0002018121;8.3821;2.3942;2.6480;-0.0905;0.1677;0.1631
0002018134;8.3127;2.2649;2.7366;-0.1300;0.1529;0.1712
0002018143;8.4060;2.0877;2.5211;-0.1462;0.1565;0.1652
0002018155;8.4372;1.7573;2.3535;-0.1399;0.1617;0.1222
0002018164;8.4707;1.5538;2.1476;-0.1390;0.1917;0.1090
0002018177;8.6024;1.4150;2.0039;-0.1046;0.2459;0.0923
0002018186;9.0836;1.5850;2.0877;-0.0869;0.2979;0.0955
0002018195;9.3398;1.7861;2.1117;-0.0991;0.3617;0.1142
0002018207;9.6726;2.2098;2.2122;-0.1219;0.4175;0.1402
0002018216;9.2823;2.2194;2.2841;-0.1683;0.4628;0.1637
0002018229;8.8178;1.9704;2.0159;-0.2021;0.5143;0.1849
0002018238;8.8370;1.9561;1.9034;-0.2120;0.5372;0.1844
0002018250;8.3199;1.7478;2.1021;-0.2096;0.5468;0.1745
0002018259;8.3007;1.8627;2.3200;-0.1981;0.5315;0.1673
0002018268;8.1283;2.0494;2.5809;-0.1751;0.5013;0.1941
0002018281;7.9009;2.3559;2.9257;-0.1548;0.4401;0.2609
0002018290;7.9248;2.7797;2.9928;-0.1511;0.3946;0.2979
0002018302;7.8099;2.5786;2.5953;-0.1609;0.3541;0.3178
0002018311;7.8841;2.4708;2.1883;-0.1431;0.3333;0.2891
0002018380;7.5872;1.9249;2.7246;-0.4627;0.3563;0.1844
0002018389;7.3789;1.0534;2.0949;-0.4486;0.3359;0.1018
0002018398;6.9935;0.1939;1.6161;-0.3776;0.3084;0.0241
0002018410;6.9097;-0.1915;1.6807;-0.2431;0.2650;-0.0448
0002018419;7.1012;0.2562;2.1548;-0.0923;0.2089;-0.0717
0002018432;7.3334;1.5826;2.6600;0.0885;0.1378;-0.0529
0002018441;7.3837;2.2936;2.9904;0.1284;0.1042;-0.0510
0002018453;7.3526;2.7102;2.9975;0.0442;0.0769;-0.1022
0002018462;7.3861;2.1117;2.5786;-0.0626;0.0767;-0.1809
0002018475;7.1658;0.5794;2.0877;-0.1451;0.1168;-0.3216
0002018484;7.3071;-0.1748;1.7717;-0.1332;0.1713;-0.4158
0002018493;7.5753;-0.6919;1.6448;-0.0810;0.2533;-0.4854
0002018505;8.4372;-0.3472;2.1524;0.0211;0.3439;-0.5315
0002018514;8.7987;0.5171;2.8730;0.1318;0.3796;-0.5292
0002018527;9.4595;2.7892;4.4341;0.2401;0.3902;-0.4796
0002018536;9.7205;4.1659;5.4708;0.2170;0.3928;-0.4383
0002018548;9.6486;4.9967;5.9472;0.1200;0.3980;-0.4584
0002018557;9.3972;4.5203;6.0166;0.0105;0.4005;-0.4932
0002018566;9.2680;3.7565;6.0214;-0.0795;0.3825;-0.5529
0002018579;8.0685;2.3607;6.0837;-0.1122;0.2962;-0.6153
0002018588;7.2951;2.0877;6.0478;-0.0654;0.1901;-0.6534
0002018600;5.5881;2.0877;6.2728;0.0514;-0.0218;-0.6901
0002018609;4.5610;2.8850;6.0765;0.0995;-0.2093;-0.7101
0002018679;9.3206;3.7278;3.4884;-0.3742;-0.8985;-0.5724
0002018688;10.1083;3.7373;3.0981;-0.3604;-0.8515;-0.5256
0002018700;10.7715;3.4764;2.8563;-0.3844;-0.7757;-0.4433
0002018709;10.7380;3.3136;2.8850;-0.4066;-0.6775;-0.3595
0002018718;10.7452;3.2513;2.9568;-0.4010;-0.5766;-0.3018
0002018731;9.9527;3.0502;3.0382;-0.3944;-0.4439;-0.2086
0002018740;9.5026;2.9305;3.2202;-0.3813;-0.3822;-0.1597
0002018752;8.4563;2.5953;3.1436;-0.3333;-0.3492;-0.1248
0002018761;7.6184;2.3583;3.0430;-0.2944;-0.3515;-0.1186
0002018774;6.9312;2.1332;3.1747;-0.2439;-0.4128;-0.1142
0002018783;6.3470;1.7549;2.9568;-0.2046;-0.4822;-0.1396
0002018795;5.7604;1.4557;3.0742;-0.1451;-0.5840;-0.1929
0002018804;5.8371;1.7454;2.9233;-0.1025;-0.6598;-0.2403
0002018813;6.0813;1.8555;2.8730;-0.0839;-0.7370;-0.3026
0002018826;6.5481;1.9321;2.9616;-0.1095;-0.8162;-0.3902
0002018835;6.8809;1.7669;2.9712;-0.1328;-0.8479;-0.4474
0002018847;7.0916;1.8076;3.0358;-0.1220;-0.8567;-0.5213
0002018856;7.6040;1.6185;2.8491;-0.1525;-0.8462;-0.5477
0002018869;7.9918;1.5179;2.9592;-0.1470;-0.8059;-0.5709
0002018878;8.1092;1.4485;2.9329;-0.1191;-0.7747;-0.5830
0002018890;8.3007;1.2402;2.8012;-0.0905;-0.6989;-0.5681
0002018899;8.3127;1.1349;2.7174;-0.0538;-0.6435;-0.5433
0002018908;8.4851;1.1684;2.7749;-0.0429;-0.5970;-0.4986
0002018978;8.0014;2.5666;3.2226;-0.0345;-0.2631;-0.4920
0002018987;8.0709;2.5666;3.3327;-0.0424;-0.2368;-0.5025
0002019000;8.2313;2.6576;3.4381;-0.0549;-0.1768;-0.5004
0002019009;8.2337;2.6264;3.5410;-0.0576;-0.1323;-0.4698
0002019021;8.3629;2.6097;3.6176;-0.0512;-0.0691;-0.4353
0002019030;8.3270;2.6624;3.4979;-0.0476;-0.0093;-0.3948
0002019043;8.3486;2.4134;3.4309;-0.0381;0.0648;-0.3215
0002019052;8.4084;2.4301;3.4213;-0.0292;0.1202;-0.2679
0002019061;8.4803;2.5402;3.3136;-0.0116;0.1685;-0.2214
0002019073;8.4276;2.4421;3.1915;0.0085;0.2338;-0.1609
0002019082;8.2097;2.5187;3.1388;0.0241;0.2813;-0.1198
0002019095;7.8865;2.4229;3.1220;0.0253;0.3373;-0.0815
0002019104;7.8697;2.5666;3.1436;0.0281;0.3591;-0.0674
0002019116;7.5992;2.5618;3.1244;0.0112;0.3890;-0.0569
0002019125;7.5178;2.6504;3.1029;-0.0008;0.4084;-0.0632
0002019134;7.2113;2.3559;3.0358;-0.0105;0.4219;-0.0634
0002019147;7.3885;2.4110;3.1460;-0.0230;0.4285;-0.0755
0002019156;7.1204;2.3487;3.1675;-0.0428;0.4329;-0.0759
0002019168;7.0749;2.1596;3.3351;-0.0679;0.4302;-0.0987
0002019177;7.0054;2.1404;3.3639;-0.0775;0.4253;-0.1077
0002019247;5.9927;1.9249;3.4596;-0.0621;0.3246;-0.2032
0002019256;6.2560;2.1524;3.4189;-0.0553;0.3024;-0.2073
0002019268;6.0094;2.3128;3.6320;-0.0617;0.2729;-0.1990
0002019277;6.1004;2.3152;3.6775;-0.0524;0.2402;-0.1916
0002019286;5.9711;2.4038;3.7493;-0.0418;0.2180;-0.1803
0002019299;5.8347;2.3463;3.6559;-0.0048;0.1629;-0.1667
0002019308;5.6886;2.3439;3.6655;0.0300;0.1267;-0.1584
0002019320;5.7700;2.2721;3.5578;0.0536;0.0909;-0.1414
0002019329;5.8562;2.3343;3.4668;0.0769;0.0613;-0.1196
0002019342;5.6886;2.2913;3.6224;0.0882;0.0236;-0.0958
0002019351;5.8203;2.1883;3.4357;0.0897;0.0059;-0.0682
0002019360;6.0166;2.3152;3.3471;0.1038;-0.0204;-0.0596
0002019372;6.2058;2.2673;3.3495;0.1099;-0.0421;-0.0297
0002019381;6.0885;2.0087;3.2298;0.1057;-0.0472;-0.0195
0002019394;6.4452;2.1739;3.2417;0.1120;-0.0500;-0.0059
0002019403;6.1866;2.0973;3.2322;0.1162;-0.0564;-0.0051
0002019415;6.4979;2.3439;3.2058;0.1170;-0.0526;0.0013
0002019424;6.3877;2.2458;3.2130;0.1275;-0.0517;0.0069
0002019433;6.5050;2.3032;3.1149;0.1248;-0.0444;0.0205
0002019446;6.1459;2.3176;3.1316;0.1212;-0.0492;0.0322
0002019455;6.0956;2.3080;3.1244;0.1271;-0.0604;0.0312
0002019467;5.9759;2.2003;3.1196;0.1263;-0.0616;0.0362
0002019476;6.0597;2.1787;3.1484;0.1190;-0.0513;0.0425
0002019545;6.2106;2.3272;2.6217;0.1236;-0.0218;0.0778
0002019554;6.1028;2.3870;2.6719;0.1307;-0.0151;0.0881
0002019563;5.9999;2.3272;2.6336;0.1438;-0.0209;0.0902
0002019575;5.9711;2.3727;2.5355;0.1492;-0.0195;0.1079
0002019584;5.9185;2.2984;2.4301;0.1555;-0.0181;0.1159
0002019597;5.8442;2.2913;2.5379;0.1732;-0.0185;0.1202
0002019606;5.9185;2.5163;2.4588;0.1840;-0.0179;0.1148
0002019618;6.0166;2.4445;2.5115;0.1831;-0.0112;0.1139
0002019627;5.9879;2.3559;2.4804;0.1695;0.0040;0.1090
0002019636;6.0501;2.4517;2.3894;0.1723;0.0095;0.0993
0002019649;6.2656;2.4780;2.4588;0.1507;0.0329;0.0999
0002019658;6.2584;2.4469;2.5115;0.1356;0.0518;0.0971
0002019670;6.2537;2.3296;2.5977;0.1175;0.0722;0.0922
0002019679;6.2010;2.3942;2.7773;0.0995;0.0806;0.0857
0002019692;6.1890;2.2122;2.7916;0.0839;0.0919;0.0983
0002019701;5.9855;2.0279;2.7438;0.1091;0.0797;0.0938
0002019710;5.7150;1.6352;2.8036;0.1188;0.0761;0.1155
0002019722;5.8538;1.5155;2.6983;0.1619;0.0514;0.1423
0002019731;5.9256;1.6041;2.4780;0.1982;0.0270;0.1619
0002019744;6.0454;1.6664;2.5474;0.2321;-0.0156;0.1917
0002019753;6.1387;1.8340;2.3272;0.2435;-0.0474;0.2072
0002019765;6.4212;2.2529;2.3727;0.2361;-0.0859;0.2144
0002019774;6.1076;2.5714;2.4301;0.2172;-0.1219;0.1857
0002019783;5.9903;2.7461;2.3511;0.1723;-0.1355;0.1623
0002019853;6.6942;3.4668;2.7916;-0.0958;-0.1071;-0.0789
0002019862;6.7301;3.4213;2.8778;-0.1318;-0.1135;-0.0588
0002019874;6.3686;3.0765;2.9257;-0.1812;-0.1234;-0.0242
0002019883;6.7349;2.7222;2.8730;-0.2100;-0.1335;-0.0005
0002019896;6.3039;2.0159;2.8180;-0.2121;-0.1303;0.0441
0002019905;6.3470;1.6927;2.7629;-0.1873;-0.1352;0.0723
0002019914;6.3279;1.7358;2.5618;-0.1478;-0.1363;0.0995
0002019926;6.3375;1.5921;2.6959;-0.0973;-0.1274;0.1288
0002019935;6.4620;1.8603;2.8659;-0.0646;-0.1174;0.1303
0002019948;6.5721;1.8340;3.1412;-0.0454;-0.0761;0.1282
0002019957;6.4979;1.6807;3.1891;-0.0466;-0.0540;0.1270
0002019969;6.9647;1.6161;3.1843;-0.0325;-0.0413;0.1300
0002019978;7.0940;1.4653;3.0574;-0.0237;-0.0353;0.1350
0002019991;7.1802;1.4820;2.8419;0.0151;-0.0400;0.1495
0002020000;7.2257;1.7382;2.6695;0.0184;-0.0509;0.1529
0002020009;6.7660;1.7310;2.7126;-0.0069;-0.0602;0.1523
0002020021;6.5577;1.8268;2.7461;-0.0432;-0.0685;0.1215
0002020030;6.5673;2.0710;2.7869;-0.0593;-0.0938;0.0961
0002020043;6.4859;2.1883;2.7007;-0.0809;-0.1282;0.0553
0002020052;6.2297;2.3846;2.8443;-0.0781;-0.1423;0.0244
0002020064;5.8610;2.2003;2.8276;-0.0666;-0.1792;-0.0390
0002020073;5.8586;2.3224;2.8012;-0.0866;-0.1876;-0.0719
0002020082;6.0717;2.4469;2.7653;-0.1037;-0.1927;-0.1212
0002020151;6.6248;2.2984;2.6504;-0.1828;-0.2439;-0.1716
0002020160;6.6319;2.2649;2.5881;-0.1993;-0.2249;-0.1488
0002020172;7.0174;2.0279;2.4014;-0.2149;-0.2016;-0.1027
0002020181;7.7357;2.1332;2.2458;-0.2153;-0.1719;-0.0802
0002020194;7.8769;2.0710;2.2146;-0.1965;-0.1144;-0.0763
0002020203;7.9152;2.2003;2.3655;-0.1937;-0.0691;-0.0846
0002020215;7.6519;2.5522;2.5833;-0.2154;-0.0163;-0.1087
0002020224;7.5513;2.5402;2.6815;-0.2380;0.0195;-0.1171
0002020233;7.4747;2.5067;2.7342;-0.2671;0.0553;-0.0929
0002020246;7.0820;1.6807;2.7031;-0.2762;0.0693;-0.0553
0002020255;7.1635;1.3958;2.5379;-0.2374;0.0577;-0.0156
0002020267;7.1132;0.8691;2.2242;-0.1787;0.0298;0.0265
0002020276;6.6511;0.8523;2.1668;-0.1152;-0.0024;0.0136
0002020289;6.3231;1.4246;2.1476;-0.0682;-0.0165;-0.0618
0002020298;6.0908;1.7430;2.1596;-0.0402;-0.0159;-0.1572
0002020310;6.4691;2.4134;2.5857;-0.0397;0.0055;-0.2783
0002020319;6.7181;2.9688;2.8347;-0.0492;0.0226;-0.3621
0002020328;7.1467;3.1963;3.0311;-0.0951;0.0502;-0.3932
0002020341;7.1132;2.7031;2.8754;-0.1807;0.0345;-0.3717
0002020350;6.9288;2.0925;2.5163;-0.2220;-0.0025;-0.3062
0002020362;6.4284;1.3312;2.1787;-0.2361;-0.0959;-0.2170
0002020371;6.2632;1.1923;2.0638;-0.2342;-0.1715;-0.1709
0002020441;7.9176;0.0048;2.5019;-0.3708;-0.4104;0.0025
0002020450;8.1211;-0.5531;2.2984;-0.2931;-0.4349;0.0496
0002020463;8.0397;-1.2019;2.3990;-0.1749;-0.4790;0.1142
0002020472;7.6160;-1.2282;2.6983;-0.0990;-0.5184;0.1569
0002020481;7.0054;-1.0008;2.7725;-0.0410;-0.5393;0.2074
0002020493;5.2385;0.0622;3.6057;0.0513;-0.6099;0.2922
0002020502;3.9768;1.4533;4.5633;0.1248;-0.7229;0.3784
0002020515;1.7334;3.7996;5.8586;0.2009;-0.9537;0.5345
0002020524;0.4669;5.5641;6.3015;0.2657;-1.1738;0.6327
0002020536;0.5602;6.7828;5.8993;0.2940;-1.4595;0.7068
0002020545;2.6791;5.6312;4.6615;0.2479;-1.5956;0.6650
0002020554;6.2632;3.6392;3.7421;0.3376;-1.6513;0.5597
0002020567;10.1754;1.7597;3.3591;0.5441;-1.5084;0.3512
0002020576;12.2799;1.3551;3.3040;0.6423;-1.3372;0.1962
0002020588;13.5536;1.5921;3.1843;0.6374;-1.0619;0.0637
0002020597;13.7116;1.9178;3.0813;0.5649;-0.8588;0.0232
0002020610;11.8417;2.3463;3.0454;0.4381;-0.5825;0.0803
0002020619;9.3134;2.7414;3.0358;0.3850;-0.4129;0.1228
0002020628;7.3670;3.5410;3.1627;0.3637;-0.3148;0.1873
0002020640;5.9424;4.8698;3.4836;0.4005;-0.2758;0.2627
0002020649;5.5091;5.9903;3.4644;0.4413;-0.3034;0.2918
0002020662;5.1811;6.5314;3.3926;0.4430;-0.3896;0.2662
0002020671;5.8873;6.4069;3.3734;0.3657;-0.4583;0.2109
0002020741;9.1889;2.8898;4.0414;-0.0132;-0.5144;-0.1322
0002020750;9.4020;2.6456;3.9672;0.0485;-0.4297;-0.1327
0002020763;9.8641;2.6288;3.6607;0.1058;-0.2886;-0.0807
0002020772;9.8665;2.5905;3.5506;0.1085;-0.1952;-0.0517
0002020781;9.7516;2.5953;3.5243;0.0947;-0.1152;-0.0350
0002020793;9.1171;2.2266;3.1795;0.0641;-0.0199;-0.0304
0002020802;8.6957;2.0087;2.8323;0.0580;0.0338;-0.0474
0002020815;7.8482;1.5490;2.4588;0.0657;0.0803;-0.0723
0002020824;7.5681;1.4676;2.3583;0.0710;0.1021;-0.0826
0002020836;7.5848;1.5874;2.2075;0.1035;0.0937;-0.0979
0002020845;7.3478;1.6568;2.2984;0.1104;0.0814;-0.0795
0002020854;7.4986;2.2529;2.4972;0.1061;0.0617;-0.0425
0002020867;7.3717;2.4684;2.5690;0.1049;0.0456;0.0238
0002020876;7.5034;2.7294;2.2697;0.1126;0.0396;0.0593
0002020888;7.5561;2.3822;2.1787;0.1320;0.0636;0.1075
0002020897;7.6806;2.1955;2.1763;0.1632;0.0891;0.1267
0002020910;8.0038;2.0135;2.0039;0.2194;0.1428;0.1455
0002020919;8.3175;1.9824;2.0973;0.2537;0.1828;0.1645
0002020928;8.3246;2.1069;2.1524;0.2691;0.2301;0.1876
0002020940;8.6119;2.2625;2.2960;0.2749;0.2823;0.2218
0002020949;8.4611;2.3942;2.3511;0.2709;0.3052;0.2511
0002020963;8.2983;2.4541;2.2865;0.2254;0.3335;0.2749
0002020972;8.2432;2.3894;2.3703;0.2025;0.3447;0.2761
0002020981;8.1858;2.3727;2.1237;0.1849;0.3397;0.2571
0002021050;8.4276;2.5283;2.6121;0.1394;0.4383;0.1439
0002021059;8.2672;2.3727;2.7294;0.1537;0.4718;0.1579
0002021072;8.3270;2.6360;2.7701;0.1681;0.4932;0.1815
0002021081;7.8123;2.1955;2.6767;0.1631;0.4980;0.1957
0002021093;7.8865;2.1955;2.5833;0.1700;0.4958;0.2174
0002021102;7.6567;2.0590;2.4948;0.1657;0.4830;0.2324
0002021111;7.5968;2.0351;2.3080;0.1743;0.4602;0.2373
0002021124;7.3119;2.0853;2.3822;0.1725;0.4167;0.2421
0002021133;7.6303;2.4565;2.2601;0.1837;0.3789;0.2337
0002021145;7.4579;2.5235;2.2817;0.1684;0.3259;0.2208
0002021154;7.4891;2.7964;2.2027;0.1464;0.2995;0.2082
0002021167;7.6782;2.9353;2.1620;0.1007;0.2609;0.1755
0002021176;8.0325;3.0789;2.1835;0.0699;0.2505;0.1581
0002021185;8.1547;2.9640;2.1189;0.0374;0.2376;0.1358
0002021197;8.4731;2.7581;2.1620;0.0040;0.2385;0.1304
0002021206;8.4755;2.4636;1.9273;0.0005;0.2439;0.1326
0002021219;8.7580;2.2697;1.7861;0.0318;0.2713;0.1536
0002021228;8.9016;2.2410;1.8340;0.0592;0.2991;0.1749
0002021240;9.2177;2.4541;1.6376;0.0834;0.3433;0.2165
0002021249;9.3996;2.5618;1.5945;0.0679;0.3920;0.2563
0002021258;9.7133;2.7677;1.6305;0.0422;0.4547;0.2958
0002021271;10.1658;2.8635;1.6688;-0.0136;0.5688;0.3441
0002021280;9.9311;2.7821;1.7166;-0.0549;0.6470;0.3603
0002021349;7.9487;1.8914;2.0877;-0.0112;0.7516;0.2821
0002021358;7.8075;1.8723;2.1165;0.0184;0.6979;0.2597
0002021367;7.9464;2.1596;2.1476;0.0458;0.6522;0.2453
0002021380;7.8937;2.3583;2.2122;0.0659;0.5762;0.2117
0002021389;8.0804;2.5786;2.2529;0.0683;0.5224;0.1940
0002021401;8.2600;2.7869;2.3320;0.0533;0.4555;0.1442
0002021410;8.2432;2.9760;2.2913;0.0377;0.4241;0.1022
0002021423;8.4467;2.9880;2.3463;-0.0019;0.3776;0.0473
0002021432;8.4013;2.8659;2.2960;-0.0272;0.3341;0.0053
0002021441;8.0254;2.6073;2.2051;-0.0485;0.3092;-0.0215
0002021453;8.2768;2.5857;2.0806;-0.0669;0.2741;-0.0542
0002021462;8.6431;2.6504;2.0901;-0.0903;0.2529;-0.0750
0002021475;8.6646;2.5067;2.0925;-0.1210;0.2317;-0.0905
0002021484;8.5880;2.3415;2.1165;-0.1343;0.2126;-0.1022
0002021496;8.6167;2.2936;2.1404;-0.1500;0.2098;-0.1025
0002021505;8.7891;2.1261;2.1189;-0.1549;0.2014;-0.0945
0002021518;8.6167;1.7166;2.1021;-0.1372;0.1966;-0.0886
0002021527;8.6742;1.6664;1.9920;-0.1007;0.1809;-0.0827
0002021536;8.4827;1.4389;2.1093;-0.0584;0.1744;-0.0601
0002021548;8.5377;1.4748;2.0997;-0.0077;0.1705;-0.0326
0002021557;8.6766;1.5778;2.0830;0.0245;0.1669;0.0000
0002021570;8.7460;1.8076;2.0638;0.0702;0.1641;0.0349
0002021579;8.5904;1.8004;2.0853;0.0777;0.1711;0.0697
0002021646;8.3246;2.7438;2.3607;0.0425;0.1202;0.1214
0002021655;8.2025;2.5809;2.4804;0.0332;0.1120;0.1138
0002021664;8.2744;2.8156;2.5690;0.0209;0.1037;0.1073
0002021677;7.8937;2.6264;2.5881;0.0061;0.0665;0.1022
0002021686;8.0230;2.6839;2.4205;-0.0011;0.0325;0.1013
0002021698;7.9009;2.6145;2.1763;-0.0282;0.0039;0.1021
0002021707;7.8003;2.5738;1.9944;-0.0641;-0.0089;0.1050
0002021720;7.8482;2.4900;1.9273;-0.1002;-0.0321;0.0914
0002021729;8.2001;2.4517;1.8316;-0.1138;-0.0442;0.0861
0002021738;8.2001;2.3607;1.8555;-0.1367;-0.0392;0.0933
0002021752;8.4683;2.5283;2.0039;-0.1561;-0.0489;0.1006
0002021761;8.4084;2.3774;1.9704;-0.1648;-0.0506;0.1156
0002021774;8.1570;2.0327;2.0470;-0.1584;-0.0715;0.1419
0002021783;8.2768;2.1117;1.9513;-0.1495;-0.0939;0.1603
0002021795;8.1858;1.9872;2.1620;-0.1446;-0.1283;0.1864
0002021804;8.0685;2.0279;2.2577;-0.1519;-0.1599;0.1920
0002021813;8.1211;2.1093;2.4397;-0.1647;-0.1978;0.1893
0002021826;8.2193;2.0159;2.5450;-0.1868;-0.2511;0.1709
0002021835;8.3103;1.9010;2.6145;-0.2093;-0.2803;0.1548
0002021847;8.5569;1.6903;2.8323;-0.2078;-0.3369;0.1234
0002021856;8.7077;1.5083;2.9975;-0.1719;-0.3753;0.1042
0002021922;8.3917;1.7406;2.5690;0.1039;-0.4967;-0.0313
0002021931;8.2504;1.8555;2.3990;0.0775;-0.4760;-0.0862
0002021943;8.3294;1.9345;2.1021;0.0394;-0.4239;-0.1725
0002021952;8.6000;1.8747;2.3918;-0.0173;-0.3765;-0.2361
0002021961;8.9711;2.1979;2.5786;-0.1216;-0.3024;-0.2763
0002021975;9.0764;2.0806;2.5067;-0.2955;-0.1693;-0.3341
0002021984;8.9040;1.4700;2.2482;-0.4179;-0.0605;-0.3397
0002021997;8.5832;0.3879;1.6185;-0.5404;0.0602;-0.3188
0002022006;8.7436;-0.1125;1.4246;-0.5686;0.1314;-0.2870
0002022018;9.4403;-0.3112;1.3767;-0.5468;0.1747;-0.2425
0002022027;9.5361;-0.0694;1.7573;-0.5129;0.2021;-0.2021
0002022040;9.4739;0.9864;2.2410;-0.4646;0.2365;-0.1174
0002022049;9.0501;1.6616;2.6408;-0.4545;0.2342;-0.0317
0002022058;8.5473;2.3487;2.8874;-0.4591;0.2206;0.0638
0002022070;7.6950;2.2697;2.8228;-0.4714;0.1747;0.1683
0002022079;7.4675;2.2601;2.5115;-0.4461;0.1379;0.2222
0002022092;7.0342;1.5778;2.5067;-0.3400;0.0693;0.2538
0002022101;7.3406;0.9792;2.4708;-0.2210;0.0264;0.2501
0002022113;7.7788;0.9625;2.3990;-0.0524;-0.0179;0.2474
0002022122;8.2504;1.3288;2.5738;0.0382;-0.0301;0.2534
0002022131;8.5832;1.6113;2.5283;0.0945;-0.0310;0.2554
0002022197;6.9456;2.0279;2.5019;0.0205;0.0401;0.0695
0002022206;7.0964;2.9688;2.6671;0.0015;0.0124;0.0902
0002022218;6.6463;3.1939;2.6528;-0.0654;-0.0474;0.1013
0002022227;6.6655;3.0789;2.3320;-0.1250;-0.1051;0.0895
0002022240;6.8642;2.2913;2.0327;-0.1684;-0.1936;0.0488
0002022249;7.0509;1.8028;2.1428;-0.1491;-0.2589;0.0159
0002022258;7.2449;1.6448;2.2003;-0.0803;-0.3308;0.0139
0002022270;7.4915;2.0375;2.4110;0.0421;-0.4137;0.0573
0002022279;7.7069;2.4062;2.4277;0.1152;-0.4463;0.0887
0002022292;8.0206;2.5379;2.4828;0.1647;-0.4542;0.0917
0002022301;8.1283;2.4517;2.3846;0.1516;-0.4271;0.0364
0002022313;8.0086;1.7765;2.1117;0.1096;-0.3493;-0.0934
0002022322;8.2456;1.0606;1.7119;0.1140;-0.2844;-0.2098
0002022331;8.2815;0.8499;1.6041;0.1192;-0.2148;-0.3042
0002022344;8.6574;1.1372;1.8890;0.1176;-0.1300;-0.3801
0002022353;8.9807;1.9010;2.3942;0.0719;-0.0670;-0.3940
0002022365;9.1746;2.6935;2.9592;-0.0326;-0.0199;-0.3982
0002022374;9.3781;3.1484;3.5889;-0.1737;0.0152;-0.4054
0002022387;9.0166;2.9329;4.0247;-0.3929;0.0568;-0.5216
0002022396;8.4396;2.1787;4.2210;-0.4772;0.0806;-0.6326
0002022408;8.8633;1.7262;4.3814;-0.5189;0.1300;-0.7726
0002022417;9.1674;1.6041;4.9105;-0.5125;0.1705;-0.8302
0002022426;9.5792;1.8794;5.3702;-0.4900;0.1879;-0.8555
0002022492;6.1172;1.6113;5.5952;-0.3094;-0.2499;-0.6519
0002022501;5.9687;1.9800;5.3439;-0.2741;-0.3248;-0.6663
0002022513;6.4883;3.4907;4.7333;-0.2170;-0.4271;-0.7596
0002022522;6.8594;4.3311;4.6448;-0.1989;-0.5069;-0.8958
0002022535;7.5034;5.2050;4.2306;-0.2330;-0.6022;-1.0946
0002022544;7.7812;5.1547;4.1348;-0.2513;-0.6324;-1.2284
0002022556;7.5346;4.2569;3.8523;-0.2719;-0.6548;-1.3378
0002022565;7.3909;3.4764;3.9073;-0.2883;-0.6508;-1.3151
0002022574;7.5848;2.9904;3.6727;-0.2675;-0.6436;-1.2626
0002022587;7.7835;2.6121;3.6679;-0.2208;-0.5998;-1.1189
0002022596;8.1451;2.6743;3.4117;-0.1970;-0.5453;-0.9734
0002022608;8.4707;2.5881;3.3088;-0.1468;-0.4700;-0.7538
0002022617;8.6694;2.7054;3.1244;-0.0974;-0.4041;-0.5817
0002022630;9.2225;2.4780;3.0502;-0.0007;-0.2915;-0.3405
0002022639;9.3757;2.2625;2.8419;0.0993;-0.2233;-0.1859
0002022651;9.0309;2.1021;2.8371;0.2277;-0.1140;-0.0253
0002022660;8.4563;2.0494;2.9928;0.3136;-0.0600;0.0492
0002022669;8.3725;2.1691;2.9113;0.3764;-0.0205;0.0977
0002022682;8.0302;2.4086;2.8706;0.4218;0.0107;0.1192
0002022691;7.9918;2.6360;2.9018;0.4183;0.0286;0.1073
0002022703;7.6902;2.8659;2.9425;0.3850;0.0468;0.0677
0002022712;7.4244;2.8706;3.1484;0.3480;0.0458;0.0230
0002022779;7.3885;2.0830;3.7948;-0.0588;0.0814;-0.0320
0002022788;7.2903;1.9010;3.8068;-0.0565;0.0802;-0.0191
0002022797;7.0485;1.6065;3.6871;-0.0473;0.0982;-0.0015
0002022809;7.1802;1.4916;3.5817;0.0111;0.1248;0.0059
0002022818;7.3047;1.5155;3.5291;0.0617;0.1518;0.0151
0002022831;7.7405;1.8172;3.5721;0.1270;0.1869;0.0197
0002022840;8.0445;2.0662;3.5314;0.1548;0.2084;0.0229
0002022852;7.7405;2.0016;3.5506;0.1765;0.2342;0.0292
0002022861;7.9224;2.2553;3.4477;0.1788;0.2622;0.0461
0002022870;7.6854;2.1165;3.3375;0.2004;0.2754;0.0556
0002022883;7.4651;1.8603;3.1843;0.2217;0.2960;0.0829
0002022892;7.3837;1.9321;3.1101;0.2390;0.3100;0.0929
0002022904;7.1180;1.9656;3.1843;0.2642;0.3128;0.0946
0002022913;6.9767;2.0614;3.1603;0.2703;0.3159;0.0931
0002022922;6.7995;2.2673;3.1771;0.2630;0.3116;0.0942
0002022935;6.5649;2.3822;3.2250;0.2354;0.2920;0.0834
0002022944;6.8354;2.4852;3.2226;0.2134;0.2791;0.0798
0002022956;7.1635;2.6312;3.1987;0.1881;0.2579;0.0738
0002022965;7.1060;2.5139;3.1915;0.1852;0.2466;0.0702
0002022978;7.2999;2.3750;3.2681;0.1925;0.2459;0.0773
0002022987;7.4005;2.3224;3.1651;0.2234;0.2569;0.0693
0002022996;7.5106;2.3990;3.1340;0.2462;0.2742;0.0863
0002023008;7.4603;2.5498;3.2465;0.2785;0.2958;0.1051
0002023017;7.3358;2.6049;3.2561;0.2891;0.3135;0.1247
0002023084;6.1818;2.2027;3.1627;0.1155;0.2499;0.1266
0002023093;6.1459;1.9417;3.1436;0.1394;0.2384;0.1088
0002023105;6.4260;2.0614;3.0311;0.1672;0.2410;0.0997
0002023114;6.6750;2.1356;2.9808;0.1796;0.2473;0.0941
0002023123;6.8307;2.4541;2.8419;0.1819;0.2599;0.0827
0002023136;6.8474;2.6671;2.8491;0.1466;0.2839;0.0779
0002023145;6.8187;2.7390;2.9425;0.1150;0.3010;0.0781
0002023157;6.5027;2.4373;2.8946;0.1019;0.2968;0.0741
0002023166;6.6319;2.3894;2.8108;0.0857;0.2880;0.0689
0002023175;6.8833;2.3727;2.7294;0.0761;0.2868;0.0606
0002023188;7.1156;2.2362;2.6049;0.0675;0.3003;0.0522
0002023197;7.1347;2.1069;2.4828;0.0679;0.3292;0.0501
0002023209;7.5848;2.0925;2.3727;0.0934;0.3613;0.0340
0002023218;7.4723;1.9920;2.3655;0.1134;0.3813;0.0132
0002023231;7.6734;2.2960;2.4205;0.1239;0.4159;0.0120
0002023240;7.5896;2.3367;2.4517;0.1214;0.4338;0.0176
0002023249;7.5130;2.1739;2.5043;0.1183;0.4526;0.0213
0002023261;7.4579;2.2146;2.4588;0.1219;0.4662;0.0326
0002023270;7.1970;2.1428;2.5139;0.1323;0.4648;0.0313
0002023283;7.3263;2.4541;2.3343;0.1504;0.4668;0.0402
0002023292;7.0054;2.3966;2.4708;0.1639;0.4632;0.0514
0002023304;7.1563;2.5570;2.3679;0.1675;0.4551;0.0609
0002023313;7.0916;2.6288;2.3750;0.1733;0.4415;0.0673
0002023322;7.2903;2.9257;2.2936;0.1793;0.4338;0.0767
0002023389;7.1778;2.9856;2.0782;0.2433;0.4086;0.1984
0002023398;7.1419;3.0789;1.9944;0.2446;0.4005;0.2152
0002023410;6.9647;3.1867;2.0279;0.2358;0.3948;0.2342
0002023419;7.0509;3.4836;2.0901;0.2288;0.3655;0.2542
0002023428;6.6080;3.3519;2.1500;0.2097;0.3404;0.2602
0002023441;6.4165;3.2082;2.0758;0.1720;0.2995;0.2735
0002023450;6.3638;3.0670;2.1213;0.1512;0.2646;0.2682
0002023461;6.1483;2.9951;2.2793;0.1210;0.2274;0.2607
0002023470;6.1699;2.8036;2.1644;0.0983;0.1897;0.2485
0002023484;6.1148;2.6025;2.1644;0.0699;0.1355;0.2138
0002023493;6.0406;2.4349;2.2505;0.0605;0.0974;0.1873
0002023502;6.1699;2.3463;2.1644;0.0469;0.0658;0.1657
0002023515;6.3303;2.3679;2.0662;0.0192;0.0281;0.1344
0002023524;6.4260;2.2769;2.2051;0.0095;0.0057;0.1075
0002023536;6.3303;2.0423;2.2936;-0.0027;-0.0072;0.0687
0002023545;6.8354;2.2482;2.0470;0.0109;-0.0322;0.0450
0002023558;7.1347;2.3822;1.9609;0.0262;-0.0605;0.0208
0002023567;6.8953;2.1715;2.0686;0.0229;-0.0757;-0.0039
0002023576;6.6798;2.2721;1.9968;0.0140;-0.0902;-0.0173
0002023588;6.8426;2.5762;2.0159;0.0013;-0.1116;-0.0254
0002023597;6.7684;2.5762;1.9273;0.0008;-0.1335;-0.0314
0002023610;6.9815;2.5211;1.8723;-0.0188;-0.1575;-0.0240
0002023619;6.9599;2.6025;1.8459;-0.0248;-0.1828;-0.0261
0002023687;7.5417;2.5905;1.8100;-0.0085;-0.1601;-0.0297
0002023696;7.5896;2.5067;1.7526;0.0023;-0.1482;-0.0264
0002023709;7.5226;2.5762;1.6927;0.0095;-0.1312;-0.0033
0002023718;7.4555;2.4588;1.7885;0.0172;-0.1031;0.0147
0002023727;7.4986;2.2936;1.7861;0.0394;-0.0817;0.0305
0002023739;7.7620;2.3224;1.5969;0.0753;-0.0489;0.0553
0002023748;7.9033;2.3822;1.5634;0.1116;-0.0282;0.0833
0002023761;8.2456;2.3343;1.3527;0.1801;-0.0017;0.1104
0002023770;8.2528;2.3990;1.1708;0.2113;0.0257;0.1295
0002023782;8.2217;2.6647;1.0582;0.2342;0.0654;0.1438
0002023791;8.2672;3.0071;0.9816;0.2126;0.1042;0.1560
0002023800;8.2815;3.1771;1.0702;0.1745;0.1342;0.1561
0002023813;8.1092;3.4620;1.2091;0.0915;0.1908;0.1704
0002023822;7.7883;3.5338;1.2402;0.0313;0.2146;0.1705
0002023834;7.6231;3.4860;1.5467;-0.0441;0.2443;0.1700
0002023843;7.4364;3.3232;1.7310;-0.0799;0.2547;0.1664
0002023856;7.3933;2.7701;1.9752;-0.1067;0.2741;0.1757
0002023865;7.3933;2.3367;1.9704;-0.0949;0.2719;0.1889
0002023874;7.2472;1.7310;1.9776;-0.0697;0.2731;0.1992
0002023886;7.1994;1.3120;1.8747;-0.0045;0.2498;0.2064
0002023895;7.3861;1.1708;1.7645;0.0384;0.2308;0.2197
0002023908;7.0677;1.0654;1.6951;0.0931;0.1828;0.2349
0002023917;6.9145;1.0654;1.5874;0.1180;0.1383;0.2201
0002023926;6.6774;1.3336;1.7238;0.1171;0.1061;0.2064
0002023995;6.9264;1.5443;1.8914;-0.0536;-0.1350;-0.0794
0002024004;6.7109;1.4557;1.7238;-0.0384;-0.2070;-0.1164
0002024017;6.6702;1.8268;1.5083;-0.0278;-0.3075;-0.1713
0002024026;6.2728;2.0830;1.5514;-0.0377;-0.3620;-0.2174
0002024038;6.1244;2.7222;1.8435;-0.0645;-0.4151;-0.3232
0002024047;6.0621;2.9281;2.1189;-0.1223;-0.4318;-0.3905
0002024060;6.9192;3.3567;2.2721;-0.2216;-0.4355;-0.4795
0002024069;7.0988;3.1556;2.3511;-0.2710;-0.4466;-0.5336
0002024078;7.4986;2.7198;2.2266;-0.3079;-0.4434;-0.5444
0002024090;7.8650;2.3798;2.0949;-0.3204;-0.4572;-0.5444
0002024099;7.9272;2.1452;1.9680;-0.3212;-0.4550;-0.5180
0002024112;8.0373;1.8627;1.5419;-0.3006;-0.4639;-0.4663
0002024121;7.7955;1.6352;1.5682;-0.2883;-0.4704;-0.4270
0002024133;7.7740;1.6017;1.6424;-0.2781;-0.4542;-0.3695
0002024142;7.6064;1.5538;1.5395;-0.2711;-0.4383;-0.3238
0002024155;7.4843;1.5419;1.4174;-0.2459;-0.4012;-0.2782
0002024164;7.2664;1.4820;1.3838;-0.2118;-0.3872;-0.2629
0002024173;7.4124;1.8627;1.4126;-0.1904;-0.3532;-0.2569
0002024185;7.7764;2.3607;1.5395;-0.1725;-0.3208;-0.2499
0002024194;7.7165;2.2577;1.6257;-0.1777;-0.2860;-0.2465
0002024207;8.0445;2.3990;1.7693;-0.1832;-0.2233;-0.2505
0002024216;8.2504;2.2146;1.8627;-0.1925;-0.1807;-0.2398
0002024286;6.6415;3.0502;1.9656;-0.1366;-0.2634;-0.2817
0002024295;6.9576;3.3591;2.5019;-0.2148;-0.2341;-0.3060
0002024308;7.8147;3.3255;2.9209;-0.3265;-0.1917;-0.2955
0002024317;8.0972;2.6001;2.4349;-0.3826;-0.1847;-0.2407
0002024326;8.0756;1.6209;1.9082;-0.4001;-0.2050;-0.1601
0002024338;7.8027;0.5890;1.3431;-0.4026;-0.2274;-0.0445
0002024347;7.7620;-0.0120;1.0582;-0.3556;-0.2499;0.0200
0002024360;7.5369;-0.0527;0.8212;-0.2679;-0.2312;0.0746
0002024369;7.4579;0.3879;1.1349;-0.2166;-0.2178;0.0857
0002024381;7.1563;1.4748;1.8794;-0.1792;-0.1915;0.1292
0002024390;7.1132;2.4804;2.6217;-0.1966;-0.1768;0.1735
0002024403;6.7564;3.3303;3.9409;-0.2407;-0.1841;0.2530
0002024412;6.7157;3.9887;4.7190;-0.2742;-0.2032;0.3170
0002024421;6.2417;4.0845;5.2170;-0.2910;-0.2397;0.3702
0002024433;5.7533;3.8714;5.3223;-0.2836;-0.2918;0.3922
0002024442;5.6336;3.2705;5.3367;-0.2465;-0.3158;0.3846
0002024455;6.2968;2.1907;4.9895;-0.1090;-0.3004;0.3357
0002024464;7.0342;1.5826;4.6448;0.0416;-0.2551;0.2936
0002024476;8.4372;1.1779;4.0630;0.2754;-0.1553;0.2449
0002024485;9.1387;1.3001;3.5626;0.4438;-0.0642;0.2057
0002024494;9.4427;1.6161;3.0574;0.5684;0.0460;0.1484
0002024507;9.6462;2.6504;2.9616;0.5670;0.2033;0.0946
0002024516;9.3206;3.3519;3.0478;0.4666;0.3044;0.0978
0002024586;5.3103;6.0334;4.7477;-0.0314;0.1498;0.3275
0002024595;5.1547;5.9975;4.6687;-0.0101;0.0446;0.2947
0002024608;5.0015;5.4277;4.2210;0.0530;-0.0962;0.2597
0002024617;5.2744;4.5753;3.8834;0.0991;-0.1745;0.2188
0002024626;5.7054;3.8379;3.4309;0.1555;-0.2443;0.1600
0002024638;7.1204;2.8132;2.8539;0.2301;-0.3048;0.0923
0002024647;8.1570;2.4995;2.6480;0.2926;-0.2790;0.0049
0002024660;8.6335;2.1979;2.5307;0.3412;-0.1960;-0.1339
0002024669;8.8825;2.3966;2.4277;0.3380;-0.1207;-0.2089
0002024681;8.5665;2.5211;2.2098;0.2794;-0.0033;-0.2935
0002024690;8.3677;3.0526;2.3391;0.1982;0.0862;-0.3195
0002024703;7.8362;3.7469;2.7869;0.0538;0.1832;-0.3182
0002024712;7.3119;4.0558;3.0622;-0.0673;0.2280;-0.2693
0002024721;7.1467;4.2210;3.4333;-0.1896;0.2625;-0.1888
0002024733;6.7325;3.7757;3.6344;-0.3276;0.2694;-0.0807
0002024742;6.5769;3.5291;3.7278;-0.3904;0.2689;-0.0392
0002024755;6.3710;2.3798;3.5745;-0.4226;0.2669;-0.0143
0002024764;6.4811;2.0159;3.4213;-0.4149;0.2673;-0.0156
0002024776;6.2441;1.1109;3.3136;-0.3628;0.2479;-0.0520
0002024785;6.3422;0.7805;3.1532;-0.3046;0.2395;-0.0730
0002024794;6.0861;0.5148;3.0023;-0.2266;0.2141;-0.1049
0002024807;6.2920;0.7518;3.0311;-0.1214;0.1709;-0.1380
0002024816;6.2465;0.8811;2.8922;-0.0653;0.1371;-0.1300
0002024886;7.3598;2.5259;2.4277;0.1302;0.0079;0.0241
0002024895;7.5274;2.6408;2.4157;0.1030;0.0365;0.0368
0002024908;7.5944;2.9688;2.5690;0.0719;0.0642;0.0480
0002024917;7.4101;2.8635;2.6336;0.0296;0.0993;0.0698
0002024926;7.1419;2.8156;2.7557;0.0009;0.1124;0.0846
0002024938;6.9264;2.7222;2.8132;-0.0386;0.1318;0.1091
0002024947;6.5769;2.3559;2.8299;-0.0430;0.1259;0.1200
0002024961;6.7157;2.3727;2.7102;-0.0314;0.1090;0.1302
0002024970;6.6200;2.4038;2.7054;-0.0168;0.1002;0.1302
0002024983;6.7493;2.3032;2.6671;0.0101;0.0767;0.1310
0002024992;7.0557;2.4110;2.5809;0.0173;0.0666;0.1272
0002025001;7.2449;2.5474;2.6025;0.0185;0.0709;0.1172
0002025013;7.0461;2.5881;2.8108;0.0179;0.0859;0.1116
0002025022;6.9719;2.3846;2.6695;0.0144;0.0775;0.1011
0002025035;7.1850;2.2482;2.6887;-0.0218;0.0762;0.0911
0002025044;7.1347;2.3128;2.6169;-0.0244;0.0738;0.0898
0002025056;6.8833;2.4732;2.4181;0.0208;0.0666;0.0786
0002025065;6.9504;2.3439;2.4062;0.0237;0.0626;0.0775
0002025074;7.0222;2.7102;2.4995;0.0296;0.0476;0.0689
0002025087;7.2257;2.8826;2.4157;0.0254;0.0484;0.0689
0002025096;7.4124;2.8108;2.4445;0.0036;0.0576;0.0773
0002025108;7.3239;2.8443;2.4756;-0.0175;0.0456;0.0766
0002025117;7.1946;2.6504;2.3870;-0.0546;0.0524;0.0854
0002025186;6.9456;1.9704;2.5091;0.0466;-0.1200;0.0033
0002025195;7.1730;2.1979;2.5091;0.0628;-0.1370;-0.0032
0002025204;7.3502;2.0327;2.5618;0.0815;-0.1536;-0.0059
0002025216;7.7428;2.1524;2.4588;0.1067;-0.1553;-0.0136
0002025225;7.7069;2.0949;2.3439;0.1196;-0.1490;-0.0105
0002025238;7.7524;2.1739;2.1907;0.1406;-0.1387;-0.0113
0002025247;7.8410;2.2482;2.1811;0.1528;-0.1383;-0.0096
0002025259;7.3933;2.1476;2.2027;0.1434;-0.1246;0.0033
0002025268;7.4699;2.5307;2.0925;0.1451;-0.1296;0.0069
0002025277;7.4867;2.7366;2.0734;0.1292;-0.1154;0.0153
0002025290;7.1730;2.6863;2.1644;0.1123;-0.1203;0.0272
0002025299;6.8929;2.5762;2.2266;0.0969;-0.1344;0.0382
0002025311;6.8666;2.6025;2.2434;0.0862;-0.1561;0.0452
0002025320;6.8283;2.7892;2.0375;0.0782;-0.1797;0.0502
0002025333;7.0246;2.7892;1.9824;0.0585;-0.2138;0.0482
0002025342;7.1419;2.8994;1.9896;0.0486;-0.2322;0.0509
0002025351;7.3095;2.7150;1.9393;0.0465;-0.2437;0.0486
0002025363;7.4268;2.6552;2.0039;0.0454;-0.2482;0.0517
0002025372;7.6303;2.8228;1.9609;0.0433;-0.2465;0.0444
0002025385;7.7500;2.8036;2.0686;0.0272;-0.2533;0.0345
0002025394;7.5776;2.7078;2.2146;0.0171;-0.2522;0.0325
0002025406;7.2927;2.7605;2.1476;-0.0024;-0.2581;0.0234
0002025415;7.2257;2.7749;2.0566;-0.0072;-0.2690;0.0099
0002025424;7.1874;2.6671;1.9944;-0.0060;-0.2765;0.0055
0002025493;7.8195;3.0885;1.7980;0.0048;-0.2653;-0.0069
0002025502;7.9200;3.1388;1.8220;-0.0282;-0.2509;-0.0108
0002025514;8.2528;3.1412;1.6616;-0.0516;-0.2305;-0.0100
0002025523;8.2049;3.0023;1.6807;-0.0671;-0.2240;-0.0135
0002025536;8.3629;2.8706;1.7119;-0.0810;-0.1982;-0.0191
0002025545;8.3414;2.6887;1.8220;-0.0957;-0.1807;-0.0203
0002025557;8.2384;2.3990;1.9561;-0.0985;-0.1460;-0.0296
0002025566;8.2073;2.3415;1.9417;-0.0913;-0.1246;-0.0421
0002025575;8.1187;2.2673;1.9273;-0.0770;-0.1041;-0.0384
0002025588;7.8386;1.7406;1.8962;-0.0405;-0.0821;-0.0302
0002025597;7.8362;1.6544;1.8651;0.0000;-0.0735;-0.0242
0002025609;7.8171;1.6305;1.6041;0.0478;-0.0662;-0.0063
0002025618;7.6710;1.6376;1.6281;0.0829;-0.0626;0.0067
0002025631;7.7979;2.0135;1.6233;0.1038;-0.0545;0.0310
0002025640;7.9080;2.1332;1.6951;0.0922;-0.0485;0.0537
0002025652;7.6088;2.1620;1.8004;0.0721;-0.0408;0.0655
0002025661;7.7333;2.3224;1.8411;0.0501;-0.0313;0.0694
0002025670;7.5681;2.3631;1.8794;0.0394;-0.0262;0.0767
0002025683;7.4077;2.2913;1.8028;0.0225;-0.0261;0.0739
0002025692;7.2712;2.3367;1.7406;0.0234;-0.0289;0.0662
0002025704;7.0461;2.3415;1.8316;0.0016;-0.0422;0.0601
0002025713;7.1850;2.4804;1.8244;-0.0141;-0.0592;0.0494
0002025783;6.8474;1.6113;2.0686;0.0007;-0.2344;-0.0593
0002025792;6.7516;1.5299;2.0997;0.0048;-0.2631;-0.0861
0002025801;6.8666;1.6951;2.1452;0.0015;-0.2835;-0.1003
0002025813;6.7086;1.8148;2.0853;-0.0248;-0.3048;-0.1238
0002025822;6.7181;1.9417;2.0734;-0.0628;-0.3110;-0.1300
0002025835;6.6008;1.6783;2.0566;-0.0897;-0.3092;-0.1504
0002025844;6.8809;1.5969;1.8172;-0.0922;-0.3087;-0.1636
0002025856;6.8283;1.2067;1.6712;-0.0713;-0.3067;-0.1728
0002025865;7.2472;1.3312;1.5802;-0.0492;-0.2947;-0.1520
0002025878;7.5441;1.3862;1.4700;0.0056;-0.2821;-0.0963
0002025887;8.0062;1.8507;1.7430;0.0340;-0.2593;-0.0453
0002025896;8.2193;2.4277;1.9201;0.0500;-0.2399;0.0085
0002025908;8.3486;3.0933;1.8842;0.0294;-0.1688;0.0811
0002025917;8.4922;3.1388;1.9489;0.0028;-0.0969;0.1128
0002025930;8.7340;3.0646;1.7262;-0.0576;0.0260;0.1346
0002025939;8.8633;2.8922;1.6113;-0.0837;0.1078;0.1652
0002025951;8.8394;2.8060;1.8244;-0.1001;0.1905;0.1917
0002025960;8.7053;2.7964;1.9034;-0.1134;0.2395;0.2073
0002025969;8.3941;2.7581;2.1572;-0.1391;0.2970;0.2201
0002025982;7.8362;2.4277;2.1691;-0.1691;0.3456;0.2092
0002025991;7.4579;2.1691;1.9082;-0.1783;0.3714;0.1955
0002026003;7.2999;1.9225;1.4700;-0.1740;0.3905;0.1719
0002026012;7.3382;1.5754;1.4485;-0.1561;0.4052;0.1677
0002026081;6.7373;2.3894;2.1524;-0.5153;0.4676;0.1663
0002026090;7.2688;2.0255;1.8771;-0.5011;0.4507;0.1788
0002026099;7.6112;1.7071;1.7717;-0.4389;0.4307;0.2024
0002026111;7.9703;1.7861;2.0853;-0.3453;0.4309;0.2625
0002026120;7.9751;2.1332;2.5115;-0.2666;0.4339;0.3102
0002026133;7.4843;3.0119;2.8252;-0.2262;0.4594;0.3568
0002026142;7.3741;3.3184;2.8635;-0.2733;0.4756;0.3441
0002026154;6.9168;2.6671;2.4804;-0.3571;0.4928;0.2970
0002026163;6.7301;1.9249;2.0303;-0.3798;0.5017;0.2437
0002026172;6.3015;0.9290;1.7214;-0.3437;0.4992;0.1875
0002026185;6.3159;0.1293;1.5347;-0.2691;0.4936;0.1151
0002026194;6.4212;0.3663;1.7406;-0.2264;0.4866;0.0926
0002026206;6.2872;1.2354;2.6863;-0.2161;0.4710;0.0600
0002026215;6.2297;1.9417;3.1843;-0.2646;0.4559;0.0268
0002026228;5.8945;2.0327;3.4740;-0.3235;0.4245;-0.1058
0002026237;5.5354;1.6041;3.4596;-0.3111;0.4000;-0.2150
0002026246;5.8035;0.9912;3.3375;-0.2398;0.3856;-0.3138
0002026258;6.6152;1.0606;2.8970;-0.1055;0.3655;-0.4109
0002026267;7.3382;1.6712;3.0981;-0.0173;0.3317;-0.4411
0002026280;8.3222;3.2082;3.9433;0.0541;0.2630;-0.4058
0002026289;8.3677;4.5538;4.6304;0.0949;0.2134;-0.3431
0002026301;7.8913;5.8802;5.4300;0.0957;0.1414;-0.2579
0002026310;7.3239;5.9185;5.6383;0.0605;0.0934;-0.1885
0002026319;6.6798;5.3630;5.7197;0.0361;0.0290;-0.1619
0002026388;7.4915;3.9313;3.3758;0.3031;-0.4482;-0.2377
0002026397;7.7452;3.9887;3.2298;0.2619;-0.4791;-0.2173
0002026409;8.3151;4.1611;3.1987;0.1969;-0.5002;-0.1744
0002026418;8.6862;4.0151;3.1268;0.1320;-0.4783;-0.1296
0002026431;9.0621;3.6775;2.9832;0.0685;-0.4270;-0.0644
0002026440;9.1243;3.1508;2.9401;0.0562;-0.3753;-0.0203
0002026452;9.5409;2.7270;2.8563;0.0618;-0.2911;0.0416
0002026461;9.5768;2.5833;2.8180;0.0685;-0.2136;0.0893
0002026470;9.4068;2.2673;2.9233;0.0801;-0.1446;0.1123
0002026484;9.0022;2.6576;3.0933;0.1140;-0.0448;0.1336
0002026493;8.5641;2.9113;3.1196;0.1094;0.0083;0.1363
0002026506;7.6710;2.9473;3.3279;0.0533;0.0425;0.1204
0002026515;7.5226;3.1747;3.4788;0.0207;0.0358;0.1009
0002026527;6.9911;2.8683;3.7014;-0.0188;-0.0163;0.0553
0002026536;6.9623;2.7414;3.6775;-0.0472;-0.0624;0.0100
0002026545;6.8163;2.4517;3.7517;-0.0785;-0.1220;-0.0361
0002026558;7.0006;2.3990;3.8379;-0.1254;-0.2196;-0.0807
0002026567;7.1012;2.4181;3.7876;-0.1418;-0.2789;-0.1251
0002026579;7.0150;2.0279;3.6512;-0.1741;-0.3536;-0.1518
0002026588;7.2401;1.9441;3.6440;-0.1881;-0.3953;-0.1688
0002026655;8.7580;0.9146;2.5043;0.0037;-0.2459;0.0649
0002026664;8.9423;0.9792;2.3487;0.0665;-0.2013;0.0697
0002026673;8.8394;1.3455;2.3248;0.1239;-0.1411;0.0689
0002026685;8.4348;1.6831;2.3439;0.1861;-0.0765;0.0481
0002026694;8.1235;1.9872;2.3798;0.2120;-0.0624;0.0277
0002026707;7.7716;1.9393;2.4780;0.2128;-0.0494;0.0069
0002026716;7.7069;2.1189;2.5714;0.2060;-0.0454;-0.0181
0002026728;7.8099;2.2505;2.6624;0.1796;-0.0504;-0.0621
0002026737;7.9392;2.2793;2.7892;0.1577;-0.0536;-0.0950
0002026746;7.7812;2.1021;2.7725;0.1502;-0.0662;-0.1288
0002026759;7.7428;1.9968;2.6719;0.1515;-0.0610;-0.1571
0002026768;7.8410;2.0614;2.5953;0.1633;-0.0650;-0.1732
0002026780;7.7500;1.9537;2.6025;0.1720;-0.0538;-0.1773
0002026789;7.6351;2.1093;2.5881;0.1859;-0.0526;-0.1732
0002026802;7.7572;2.2984;2.5977;0.1752;-0.0472;-0.1527
0002026811;7.6375;2.3894;2.6145;0.1608;-0.0449;-0.1380
0002026823;7.7237;2.7892;2.6552;0.1348;-0.0605;-0.1251
0002026832;7.6495;2.8347;2.7461;0.1212;-0.0781;-0.1176
0002026841;7.6040;2.9018;2.8539;0.1046;-0.0847;-0.1058
0002026854;7.7093;3.0502;2.8036;0.0911;-0.1118;-0.1006
0002026863;7.5872;2.9784;2.7916;0.0950;-0.1284;-0.1018
0002026875;7.7428;2.8252;2.7078;0.0914;-0.1326;-0.1025
0002026884;7.8314;2.7366;2.6480;0.0915;-0.1287;-0.1045
0002026951;7.9823;2.1572;2.2769;0.1395;0.0187;0.0596
0002026960;7.7788;2.1428;2.3583;0.1516;0.0209;0.0723
0002026969;7.6184;2.3607;2.3631;0.1577;0.0199;0.0834
0002026981;7.5130;2.7773;2.4828;0.1458;0.0120;0.0747
0002026990;7.2832;2.9090;2.6288;0.1120;0.0053;0.0666
0002027003;7.3310;3.0789;2.8635;0.0703;-0.0137;0.0465
0002027012;7.2113;2.8994;2.8156;0.0577;-0.0305;0.0326
0002027024;7.3263;2.5762;2.7701;0.0550;-0.0465;0.0139
0002027033;7.2784;2.4517;2.6528;0.0540;-0.0474;0.0043
0002027042;7.3191;2.2075;2.7390;0.0679;-0.0590;-0.0165
0002027055;7.4029;2.2505;2.5379;0.0863;-0.0766;-0.0205
0002027064;7.1228;2.0877;2.4421;0.0971;-0.1054;-0.0232
0002027076;7.0653;2.3942;2.5115;0.0803;-0.1339;-0.0208
0002027085;6.7157;2.2865;2.5402;0.0616;-0.1712;-0.0269
0002027098;6.6631;2.5642;2.6576;0.0135;-0.2262;-0.0292
0002027107;6.5074;2.4517;2.7653;-0.0109;-0.2707;-0.0368
0002027119;6.5314;2.3008;2.7461;-0.0329;-0.3210;-0.0492
0002027128;6.7229;2.3966;2.7725;-0.0325;-0.3460;-0.0777
0002027137;6.9719;2.4924;2.6863;-0.0330;-0.3472;-0.0962
0002027150;7.3215;2.4086;2.6384;-0.0200;-0.3247;-0.1303
0002027159;7.5705;2.6600;2.2146;-0.0125;-0.3139;-0.1625
0002027171;7.8817;3.1891;2.0327;-0.0436;-0.3154;-0.1745
0002027180;7.9320;3.2920;1.9944;-0.0978;-0.3083;-0.1668
0002027247;7.9775;1.9082;1.9704;0.0498;-0.1132;-0.0686
0002027256;7.9942;1.9393;2.0566;0.0814;-0.1100;-0.0961
0002027268;8.0565;2.2410;2.1979;0.0726;-0.0985;-0.1310
0002027277;8.0852;2.3966;2.2673;0.0450;-0.0887;-0.1608
0002027286;7.8362;2.2242;2.4062;0.0228;-0.0767;-0.1816
0002027299;7.7716;2.0662;2.4038;0.0064;-0.0589;-0.1884
0002027308;7.5417;2.0207;2.3320;0.0155;-0.0526;-0.1941
0002027320;7.5106;1.7741;2.2553;0.0472;-0.0313;-0.1820
0002027329;7.5274;1.8196;2.2075;0.0863;-0.0300;-0.1819
0002027342;7.5154;1.5227;2.1644;0.1348;-0.0104;-0.1588
0002027351;7.7381;1.5921;2.0806;0.1665;-0.0061;-0.1475
0002027360;7.7237;1.6879;2.0758;0.1960;0.0197;-0.1271
0002027372;7.9272;1.9225;2.0135;0.2443;0.0401;-0.1211
0002027381;7.7548;1.8148;2.0279;0.2695;0.0757;-0.1090
0002027394;7.7716;1.7214;1.8747;0.3042;0.1088;-0.1041
0002027403;7.9535;1.9321;1.7933;0.3148;0.1327;-0.0927
0002027415;7.8362;2.0375;1.5227;0.3311;0.1506;-0.0829
0002027424;7.7285;2.1644;1.4174;0.3344;0.1608;-0.0755
0002027433;7.6902;2.0806;1.4389;0.3102;0.1788;-0.0553
0002027446;7.5776;2.0901;1.4892;0.2654;0.2210;-0.0516
0002027455;7.7740;2.1859;1.4676;0.2253;0.2602;-0.0566
0002027467;7.6830;2.1596;1.4772;0.1768;0.3003;-0.0871
0002027476;7.6758;2.0159;1.5131;0.1486;0.3291;-0.1228
0002027543;6.5170;2.6312;1.8771;-0.0713;0.2898;-0.1403
0002027552;6.2800;2.5714;1.7214;-0.1049;0.2249;-0.1468
0002027561;6.1268;2.5043;1.9632;-0.1206;0.1555;-0.1512
0002027573;5.7365;2.5857;1.7861;-0.1188;0.0574;-0.1905
0002027582;5.4995;2.6025;1.8818;-0.1122;-0.0119;-0.2418
0002027595;5.2218;2.7773;2.0159;-0.1192;-0.0921;-0.3106
0002027604;5.5665;3.0239;2.3176;-0.1298;-0.1282;-0.3401
0002027616;6.0501;3.0526;2.5714;-0.1376;-0.1708;-0.3589
0002027625;6.4787;2.7845;2.5905;-0.1588;-0.1875;-0.3305
0002027638;7.1395;2.7964;2.3822;-0.1523;-0.2032;-0.3046
0002027647;7.3933;2.8419;2.2362;-0.1407;-0.1945;-0.2948
0002027656;7.5633;2.8467;2.0686;-0.1471;-0.1797;-0.2759
0002027668;7.5776;2.7031;1.9249;-0.1713;-0.1452;-0.2451
0002027677;7.6998;2.8563;2.0614;-0.1904;-0.1115;-0.2165
0002027690;7.7979;2.7964;1.9537;-0.2229;-0.0673;-0.1592
0002027699;7.7572;2.7126;1.7813;-0.2401;-0.0489;-0.1254
0002027711;7.3717;2.3703;1.7310;-0.2470;-0.0450;-0.0923
0002027720;7.0844;2.0183;1.6807;-0.2506;-0.0258;-0.0869
0002027733;7.0988;1.6951;1.4940;-0.2292;-0.0457;-0.0967
0002027742;7.0797;1.9154;1.4844;-0.1932;-0.0618;-0.1096
0002027751;7.2018;2.2434;1.3072;-0.1585;-0.0958;-0.1231
0002027763;7.3765;2.6169;1.4676;-0.1435;-0.0951;-0.1239
0002027772;7.7524;2.9113;1.8028;-0.1452;-0.0625;-0.1124
0002027839;6.2968;2.7964;0.6967;0.0476;-0.0838;0.0108
0002027848;6.1387;3.3662;1.4772;-0.0032;-0.0885;0.0116
0002027860;6.3375;3.9816;2.7174;-0.1667;-0.0671;0.0185
0002027869;7.1347;3.7876;3.3734;-0.3106;-0.0171;0.0466
0002027882;7.7692;2.9329;3.5195;-0.4812;0.0661;0.1139
0002027891;8.1547;2.3296;3.2202;-0.5364;0.0975;0.1436
0002027900;8.3558;1.8962;2.7126;-0.5315;0.1447;0.1661
0002027912;8.7700;1.0774;2.3343;-0.5088;0.2874;0.1577
0002027921;8.7700;0.1556;2.1524;-0.4902;0.4363;0.1639
0002027935;8.7987;-0.7398;1.9010;-0.4338;0.6398;0.2066
0002027944;8.5186;-1.2426;1.9034;-0.3848;0.7181;0.2703
0002027957;7.8554;-0.8667;1.8794;-0.2936;0.7416;0.4167
0002027966;6.8570;0.1556;1.9896;-0.2005;0.6971;0.5121
0002027975;5.6862;1.8076;2.3846;-0.0793;0.6281;0.5906
0002027987;3.8786;4.1970;3.1149;0.0781;0.4955;0.6450
0002027996;3.3710;5.7341;4.0318;0.1455;0.3922;0.6201
0002028009;3.8355;6.7708;5.2194;0.1066;0.2630;0.4862
0002028018;4.6495;6.0741;5.4061;-0.0209;0.1900;0.4163
0002028030;6.1699;4.0366;4.8722;-0.1502;0.0877;0.3708
0002028039;6.5290;2.3750;4.4245;-0.1227;0.0139;0.3507
0002028048;7.2520;1.5538;3.9097;-0.0389;-0.0048;0.3401
0002028061;8.3390;1.5155;3.5003;0.0858;0.0261;0.3174
0002028070;8.6191;1.7190;3.1987;0.1049;0.1065;0.3158
0002028138;6.4715;4.6591;4.8698;-0.3122;0.3908;0.4530
0002028147;5.7604;5.4540;5.7054;-0.3882;0.3178;0.4596
0002028160;4.3862;7.1180;6.3805;-0.3765;0.1420;0.4918
0002028169;3.3662;7.9440;6.0956;-0.2928;0.0064;0.5525
0002028178;3.0143;7.0677;5.2289;-0.2443;-0.1500;0.6322
0002028190;4.4101;4.0773;4.1970;-0.1675;-0.3122;0.6833
0002028199;6.1076;1.9465;3.8188;-0.0541;-0.3611;0.5891
0002028212;8.0756;0.3903;2.9736;0.1383;-0.3508;0.3493
0002028221;8.7604;0.0263;2.6600;0.2445;-0.3104;0.1909
0002028233;9.3637;0.4142;2.4588;0.3281;-0.2337;0.0388
0002028242;9.3972;1.2234;2.4804;0.3188;-0.1350;-0.0382
0002028251;8.9663;1.9585;2.3655;0.2422;-0.0569;-0.0869
0002028264;8.0972;3.2274;2.6312;0.0358;0.0469;-0.0750
0002028273;7.5202;3.7230;2.8730;-0.1038;0.0737;-0.0192
0002028285;6.9815;4.2042;3.0933;-0.2634;0.0553;0.0870
0002028294;6.5457;4.0965;3.2465;-0.3437;0.0286;0.1700
0002028307;6.4572;3.7254;3.1987;-0.3746;-0.0401;0.2332
0002028316;6.2201;3.2202;3.3423;-0.3305;-0.0982;0.2670
0002028328;6.1196;2.4636;3.1244;-0.2754;-0.1703;0.2354
0002028337;6.2106;1.8459;3.0574;-0.2156;-0.2148;0.1767
0002028346;6.7325;1.3479;3.1077;-0.1243;-0.2577;0.1087
0002028359;7.2832;0.9409;2.9784;0.0464;-0.3139;0.0521
0002028368;7.7405;0.8308;3.0670;0.1307;-0.3260;0.0288
0002028436;8.8921;1.4581;2.4038;0.3064;-0.1881;0.0490
0002028445;8.9998;1.8459;2.5857;0.2991;-0.1761;0.0761
0002028458;8.4539;2.0925;2.8060;0.2617;-0.1625;0.1168
0002028467;8.1954;2.2505;2.8515;0.2325;-0.1627;0.1407
0002028476;8.0110;2.4876;2.9592;0.2134;-0.1628;0.1583
0002028488;7.6040;2.4397;2.7892;0.1865;-0.1680;0.1772
0002028497;7.2975;2.5235;2.7150;0.1727;-0.1808;0.1807
0002028510;7.5441;2.7150;2.7366;0.1680;-0.2042;0.1753
0002028519;7.5968;2.6217;2.6743;0.1487;-0.2230;0.1685
0002028531;7.9128;2.7773;2.8850;0.1300;-0.2285;0.1536
0002028540;8.2169;2.8395;2.8706;0.0966;-0.2214;0.1507
0002028549;8.3031;2.8730;2.7438;0.0652;-0.2149;0.1383
0002028562;8.7388;2.9832;2.6767;0.0135;-0.1851;0.1107
0002028571;8.9902;3.0358;2.6384;-0.0284;-0.1621;0.0925
0002028583;8.9591;2.8515;2.3846;-0.0810;-0.1127;0.0821
0002028592;9.1171;2.8491;2.4924;-0.1224;-0.0666;0.0855
0002028605;9.7013;2.9664;2.4995;-0.1847;0.0189;0.1073
0002028614;9.6989;2.7054;2.5953;-0.2024;0.0877;0.1298
0002028623;9.7827;2.5067;2.7102;-0.2202;0.1616;0.1577
0002028635;9.4475;2.1141;2.8778;-0.2294;0.2545;0.1973
0002028644;9.3087;2.0063;2.8563;-0.2240;0.3074;0.2249
0002028657;8.6933;1.8483;2.9999;-0.2116;0.3663;0.2352
0002028666;8.1738;1.6712;3.0742;-0.1921;0.3750;0.2349
0002028734;6.9192;1.8244;3.2226;-0.0999;-0.0969;0.0131
0002028743;7.1491;1.9728;3.0167;-0.0815;-0.1751;-0.0312
0002028752;7.3430;1.7526;3.1556;-0.0550;-0.2410;-0.0754
0002028765;7.8961;2.0375;3.0335;-0.0141;-0.3120;-0.1263
0002028774;8.1092;2.0518;3.0311;0.0069;-0.3463;-0.1476
0002028786;8.3438;2.1141;2.9257;0.0280;-0.3675;-0.1583
0002028795;8.4515;1.8196;2.9592;0.0481;-0.3718;-0.1528
0002028808;8.5521;1.6903;2.9161;0.0757;-0.3765;-0.1418
0002028817;8.5784;1.5155;2.9185;0.0941;-0.3773;-0.1302
0002028829;8.5449;1.5514;2.8323;0.1139;-0.3830;-0.1154
0002028838;8.3127;1.7095;2.5786;0.1290;-0.4024;-0.1078
0002028847;8.2576;1.7717;2.5738;0.1498;-0.4189;-0.0894
0002028860;8.1690;1.8723;2.2936;0.1712;-0.4461;-0.0757
0002028869;8.3199;2.1308;2.2051;0.1753;-0.4590;-0.0851
0002028881;8.6263;2.6408;2.1165;0.1844;-0.4687;-0.0994
0002028890;8.6790;2.8587;2.0446;0.1801;-0.4646;-0.1203
0002028903;9.0932;2.9880;2.0877;0.1484;-0.4342;-0.1442
0002028912;9.0261;3.0622;2.2529;0.1001;-0.4053;-0.1551
0002028921;9.2751;3.2010;2.1883;0.0604;-0.3762;-0.1620
0002028933;8.8945;2.9425;2.1284;0.0069;-0.3475;-0.1679
0002028942;8.4156;2.5043;2.0997;-0.0320;-0.3332;-0.1661
0002028955;8.1882;2.2505;1.9441;-0.0731;-0.3207;-0.1755
0002028964;7.9631;2.1165;1.8866;-0.0854;-0.3147;-0.1839
0002029036;9.0764;3.1292;1.8603;-0.0482;-0.3090;-0.0990
0002029045;9.1147;3.2130;1.7813;-0.0835;-0.2785;-0.0669
0002029058;9.0549;3.2130;1.7358;-0.1187;-0.2370;-0.0438
0002029067;9.1099;3.0167;1.7909;-0.1335;-0.2072;-0.0289
0002029076;9.0118;2.8180;1.9130;-0.1359;-0.1819;-0.0135
0002029088;9.1243;2.5283;1.8124;-0.1350;-0.1454;0.0055
0002029097;9.1554;2.2865;1.8292;-0.1059;-0.1216;0.0193
0002029110;9.0022;1.8842;1.8771;-0.0723;-0.0962;0.0364
0002029119;9.0668;1.8938;2.0590;-0.0505;-0.0909;0.0456
0002029131;8.8178;1.9728;2.0590;-0.0354;-0.0827;0.0578
0002029140;8.5521;2.0686;2.1237;-0.0450;-0.0811;0.0701
0002029153;8.2025;2.1979;2.3320;-0.0669;-0.0910;0.0632
0002029162;8.0996;2.3727;2.3822;-0.0918;-0.0971;0.0529
0002029171;7.7381;2.1308;2.3894;-0.0985;-0.1228;0.0290
0002029183;7.7476;2.2410;2.3870;-0.1142;-0.1468;0.0019
0002029192;7.9248;2.1620;2.4325;-0.1146;-0.1640;-0.0192
0002029205;7.8961;1.9034;2.5187;-0.1158;-0.1927;-0.0436
0002029214;8.1882;1.9273;2.5762;-0.1119;-0.2212;-0.0518
0002029226;8.2145;1.9369;2.5594;-0.1150;-0.2411;-0.0446
0002029235;7.9344;1.8842;2.5953;-0.1075;-0.2665;-0.0430
0002029305;7.0773;1.8268;2.6983;-0.0052;-0.5562;-0.1763
0002029314;7.2520;1.8723;2.7869;0.0063;-0.5931;-0.2058
0002029323;7.1802;1.6520;2.6145;0.0167;-0.6257;-0.2332
0002029335;7.2616;1.4078;2.6217;0.0318;-0.6675;-0.2573
0002029344;7.3574;1.3671;2.4277;0.0329;-0.6887;-0.2594
0002029357;7.5202;1.3791;2.3583;0.0464;-0.7242;-0.2555
0002029366;7.7093;1.5443;2.3798;0.0457;-0.7356;-0.2403
0002029378;7.7668;1.6376;2.2482;0.0481;-0.7396;-0.2308
0002029387;7.8697;1.5467;2.1620;0.0532;-0.7300;-0.2350
0002029396;7.9799;1.4916;2.0399;0.0617;-0.7088;-0.2270
0002029409;7.9272;1.4940;1.9704;0.0726;-0.6708;-0.2344
0002029418;8.1475;1.5658;1.7693;0.0913;-0.6635;-0.2399
0002029430;8.5281;1.7549;1.6855;0.1124;-0.6435;-0.2382
0002029439;8.4515;1.7142;1.6305;0.1236;-0.6297;-0.2276
0002029453;8.3486;1.7526;1.7190;0.1416;-0.6014;-0.1949
0002029462;8.3558;1.8794;1.6328;0.1350;-0.5840;-0.1675
0002029475;8.5042;1.9201;1.3479;0.1442;-0.5397;-0.1260
0002029484;8.5736;1.7957;1.1396;0.1565;-0.4958;-0.1075
0002029493;8.6742;1.6233;1.1301;0.1579;-0.4175;-0.0846
0002029505;9.1387;1.6927;1.0750;0.1711;-0.3156;-0.0613
0002029514;9.3350;1.8028;1.2426;0.1775;-0.2478;-0.0296
0002029583;8.1451;3.0933;1.9297;-0.2783;0.1399;0.2062
0002029592;7.9033;2.7845;2.0351;-0.3325;0.1236;0.1960
0002029604;7.7524;2.3942;2.5762;-0.3856;0.0853;0.1873
0002029613;7.2137;2.2314;2.8419;-0.4134;0.0465;0.1581
0002029622;6.7564;1.8387;2.8012;-0.4282;0.0016;0.1112
0002029635;6.0262;1.2234;2.1620;-0.4554;-0.0650;0.0045
0002029644;5.8107;0.9864;1.6113;-0.4738;-0.1203;-0.1017
0002029656;6.0382;0.4214;1.1325;-0.4680;-0.1881;-0.2288
0002029665;6.4404;0.3017;0.9361;-0.4370;-0.2381;-0.3095
0002029678;7.1228;0.3591;1.5874;-0.3421;-0.3214;-0.3651
0002029687;7.3789;0.6369;2.1763;-0.2850;-0.3691;-0.3623
0002029699;7.0557;1.1372;2.5762;-0.2288;-0.4406;-0.3841
0002029708;6.6128;1.3719;2.3128;-0.2161;-0.4834;-0.4070
0002029717;6.2369;1.3503;1.9752;-0.2102;-0.5183;-0.4389
0002029730;6.5601;1.1396;1.6640;-0.1872;-0.5657;-0.4930
0002029739;6.9623;1.0080;1.8076;-0.1575;-0.5533;-0.4975
0002029751;7.5274;1.0606;2.2817;-0.0983;-0.5421;-0.4932
0002029760;7.6734;1.2617;2.7438;-0.0777;-0.5281;-0.4878
0002029773;7.9799;1.9465;3.3639;-0.0899;-0.4963;-0.5113
0002029782;8.1499;2.4014;3.4884;-0.0903;-0.4678;-0.5907
0002029794;8.4204;2.7342;3.5195;-0.0814;-0.4077;-0.7325
0002029803;9.0022;3.0263;3.4093;-0.0281;-0.3726;-0.8675
0002029812;9.5002;3.2274;3.2513;0.0465;-0.3254;-0.9694
0002029882;7.8889;3.8523;2.8180;0.2682;-0.3118;-0.3150
0002029891;7.5226;4.0462;2.8898;0.2277;-0.3456;-0.2944
0002029903;7.2401;4.1420;2.9688;0.2045;-0.3988;-0.3155
0002029912;7.2640;4.1659;3.2202;0.2002;-0.4477;-0.3684
0002029925;7.6710;4.4508;3.4165;0.2008;-0.5145;-0.4469
0002029934;7.9990;4.6519;3.4046;0.2374;-0.5584;-0.5008
0002029943;8.2241;4.9752;3.4740;0.2936;-0.6031;-0.5481
0002029955;8.3342;5.4827;3.2705;0.3353;-0.6630;-0.5708
0002029964;8.3845;5.4205;3.0526;0.3289;-0.7124;-0.5594
0002029977;8.1930;5.3534;2.7869;0.2601;-0.7663;-0.4938
0002029986;7.8290;4.8554;2.6240;0.1929;-0.7965;-0.4361
0002029998;7.6543;4.2880;2.4277;0.1031;-0.8075;-0.3537
0002030007;7.9368;3.9648;2.4900;0.0417;-0.8035;-0.2783
0002030020;8.1738;3.3734;2.5905;0.0052;-0.7769;-0.1676
0002030029;8.5234;3.1436;2.3798;0.0177;-0.7618;-0.0819
0002030038;8.8753;3.0047;2.2338;0.0289;-0.7361;0.0100
0002030050;9.1267;2.8084;1.9944;0.0593;-0.7005;0.0853
0002030059;8.9208;2.7246;1.9609;0.0726;-0.6540;0.1244
0002030072;8.7149;2.9161;2.0806;0.0758;-0.5849;0.1232
0002030081;8.4659;3.2609;2.2170;0.0565;-0.5389;0.0895
0002030093;7.7524;3.4069;2.2601;0.0081;-0.5091;0.0362
0002030102;7.3047;3.4500;2.3463;-0.0397;-0.5120;0.0029
0002030111;6.9312;3.4046;2.3343;-0.0657;-0.5316;-0.0270
0002030180;8.2696;1.8316;2.0614;-0.1875;-0.6035;-0.1019
0002030189;8.3270;1.4605;2.1237;-0.2050;-0.5514;-0.1069
0002030201;8.5712;1.3288;1.9465;-0.2080;-0.4808;-0.0894
0002030210;8.5617;1.2091;1.7980;-0.1853;-0.4291;-0.0723
0002030223;8.4898;1.2713;1.9345;-0.1422;-0.3404;-0.0408
0002030232;8.0397;1.3192;2.2410;-0.0975;-0.3106;-0.0373
0002030244;7.8626;1.6903;2.2290;-0.0592;-0.2782;-0.0254
0002030253;7.7788;1.8196;2.2577;-0.0274;-0.2627;-0.0172
0002030262;7.6231;1.8364;2.1428;-0.0107;-0.2555;-0.0117
0002030275;7.6591;1.8196;1.9944;0.0305;-0.2559;-0.0063
0002030284;7.8195;1.7597;1.7789;0.0614;-0.2565;-0.0085
0002030296;7.9990;1.8627;1.4916;0.1096;-0.2599;-0.0067
0002030305;8.1331;1.9561;1.4557;0.1422;-0.2529;-0.0095
0002030318;8.3294;2.1620;1.3096;0.1847;-0.2381;-0.0156
0002030327;8.7317;2.4157;1.4389;0.1871;-0.2030;-0.0148
0002030339;8.8753;2.8347;1.4389;0.1897;-0.1728;-0.0236
0002030348;8.4851;2.8180;1.4174;0.1913;-0.1476;-0.0192
0002030357;8.5162;3.0789;1.4533;0.1875;-0.1228;-0.0354
0002030370;8.2193;3.4165;1.4700;0.1651;-0.0947;-0.0486
0002030379;7.9057;3.3279;1.6448;0.1310;-0.0853;-0.0670
0002030391;8.1020;3.4453;1.7047;0.0762;-0.0652;-0.0905
0002030400;7.6806;3.3782;1.8268;0.0377;-0.0552;-0.1154
0002030469;7.9392;2.2075;1.6041;0.0005;0.0762;-0.0025
0002030478;7.9751;2.1644;1.5658;0.0209;0.0894;0.0147
0002030487;8.0756;2.1476;1.6305;0.0384;0.1180;0.0310
0002030499;8.2815;2.1811;1.5897;0.0663;0.1629;0.0368
0002030508;8.2337;2.1596;1.5251;0.0985;0.1928;0.0273
0002030521;8.2648;2.4493;1.3910;0.1216;0.2326;0.0184
0002030530;8.4348;2.7988;1.2809;0.1424;0.2443;0.0045
0002030542;8.0493;2.9353;1.3192;0.1303;0.2562;-0.0031
0002030551;7.8290;3.1220;1.3096;0.1069;0.2550;-0.0111
0002030560;7.4939;2.9401;1.3791;0.0617;0.2550;-0.0076
0002030573;7.2233;3.0957;1.4222;0.0032;0.2344;-0.0037
0002030582;7.3430;3.0646;1.5036;-0.0270;0.2153;-0.0069
0002030594;7.2472;2.9042;1.4293;-0.0444;0.1852;0.0036
0002030603;7.1251;2.8419;1.4150;-0.0380;0.1595;-0.0057
0002030616;6.9695;2.9233;1.3192;-0.0230;0.0993;-0.0426
0002030625;6.9240;3.0813;1.4030;-0.0326;0.0703;-0.0750
0002030634;6.9073;3.2370;1.5826;-0.0422;0.0188;-0.1144
0002030646;6.7876;3.4237;1.6137;-0.0785;-0.0334;-0.1557
0002030655;6.6415;3.4955;1.6568;-0.0930;-0.0683;-0.1743
0002030668;6.7564;3.4500;1.7310;-0.1208;-0.1138;-0.1807
0002030677;6.6056;3.2920;1.7119;-0.1311;-0.1332;-0.1763
0002030689;6.9192;3.2178;1.6137;-0.1444;-0.1593;-0.1545
0002030698;7.4603;3.3710;1.5754;-0.1596;-0.1835;-0.1479
0002030768;7.2808;2.1644;1.4317;-0.2781;-0.3882;-0.0757
0002030777;7.2664;2.2290;1.3599;-0.2615;-0.4135;-0.0879
0002030786;7.6064;2.4038;1.3695;-0.2607;-0.4197;-0.0937
0002030798;7.8913;2.6504;1.4461;-0.2571;-0.4275;-0.1085
0002030807;7.7333;2.7007;1.4700;-0.2595;-0.4307;-0.1212
0002030820;8.0637;2.7150;1.5060;-0.2682;-0.4104;-0.1244
0002030829;7.9942;2.5594;1.5203;-0.2758;-0.3756;-0.1102
0002030841;8.3366;2.5809;1.5251;-0.2686;-0.3324;-0.0857
0002030850;8.2720;2.2075;1.5155;-0.2554;-0.2996;-0.0719
0002030863;8.3606;2.2242;1.5227;-0.2302;-0.2300;-0.0308
0002030872;8.2528;1.9776;1.6017;-0.2156;-0.1897;0.0049
0002030881;7.9176;1.9417;1.5443;-0.1909;-0.1527;0.0309
0002030893;7.9080;1.8866;1.5730;-0.1442;-0.1090;0.0763
0002030902;7.7237;1.9992;1.4700;-0.0957;-0.0963;0.1074
0002030915;7.6543;2.4397;1.3216;-0.0401;-0.0910;0.1540
0002030924;7.6160;2.7940;1.4078;-0.0140;-0.1100;0.1647
0002030935;7.4915;3.0167;1.4700;-0.0051;-0.1362;0.1617
0002030944;7.3837;3.2322;1.4557;-0.0211;-0.1490;0.1479
0002030958;7.3358;3.5219;1.5802;-0.0477;-0.1795;0.0917
0002030967;7.2209;3.4644;1.8483;-0.0618;-0.2114;0.0460
0002030976;7.4891;3.6775;1.8244;-0.0821;-0.2197;0.0037
0002030989;7.7500;3.5314;1.8004;-0.1263;-0.2329;-0.0370
0002030998;7.7381;3.1819;2.0255;-0.1729;-0.2272;-0.0526
0002031068;7.7189;2.1141;2.1189;-0.3363;-0.1502;0.0072
0002031077;7.5824;2.0782;2.1404;-0.3275;-0.1400;0.0237
0002031090;7.4364;1.8962;2.0925;-0.3050;-0.1302;0.0297
0002031099;7.6255;2.0590;2.0806;-0.2939;-0.1236;0.0333
0002031108;7.4508;2.0016;2.0518;-0.2821;-0.1238;0.0308
0002031120;7.5417;2.2194;2.0351;-0.2702;-0.1212;0.0284
0002031129;7.5633;2.2003;1.9106;-0.2766;-0.1167;0.0262
0002031142;7.4268;2.2625;1.8196;-0.2781;-0.1183;0.0031
0002031151;7.4268;2.4062;1.7502;-0.2848;-0.1219;-0.0116
0002031163;7.2209;2.1811;1.7933;-0.2906;-0.1315;-0.0458
0002031172;7.2999;2.3583;1.8052;-0.2883;-0.1367;-0.0645
0002031185;7.3239;2.3080;1.7406;-0.2943;-0.1553;-0.0910
0002031194;7.3646;2.2984;1.7478;-0.2761;-0.1672;-0.1029
0002031203;7.4292;2.2841;1.6975;-0.2617;-0.1848;-0.1184
0002031215;7.2544;2.2338;1.6281;-0.2272;-0.2014;-0.1326
0002031224;7.5417;2.4086;1.5371;-0.2105;-0.2157;-0.1471
0002031237;7.7093;2.5139;1.5060;-0.1909;-0.2089;-0.1548
0002031246;7.8530;2.5259;1.5490;-0.1872;-0.1962;-0.1544
0002031258;8.0996;2.6240;1.5323;-0.1871;-0.1709;-0.1540
0002031267;8.2624;2.6935;1.7214;-0.1970;-0.1617;-0.1487
0002031280;8.3749;2.8922;2.1907;-0.2417;-0.1391;-0.1274
0002031289;8.3677;3.0742;2.3727;-0.2661;-0.1279;-0.1062
0002031298;7.9679;2.8683;2.6001;-0.2931;-0.1266;-0.0663
0002031368;6.8067;2.4732;2.4756;-0.3019;-0.4507;0.2022
0002031377;6.8570;2.3631;2.1979;-0.2932;-0.4880;0.2128
0002031390;7.3215;2.4229;2.0590;-0.2964;-0.5371;0.2096
0002031399;7.6686;2.5019;2.0039;-0.3291;-0.5690;0.1896
0002031411;8.0421;2.4972;1.9489;-0.3772;-0.5840;0.1653
0002031420;8.0709;2.2242;1.9680;-0.3996;-0.5792;0.1411
0002031433;8.2097;2.0446;2.0614;-0.3996;-0.5532;0.1055
0002031442;8.4204;2.0327;1.9585;-0.3972;-0.5288;0.0901
0002031451;8.5042;1.8364;2.0087;-0.3849;-0.5079;0.0636
0002031463;8.5784;1.8316;2.0614;-0.3661;-0.4672;0.0512
0002031472;8.4563;1.7023;2.1715;-0.3441;-0.4457;0.0373
0002031485;8.4731;1.8100;2.2027;-0.3263;-0.4138;0.0396
0002031494;8.1738;1.9058;2.3774;-0.3231;-0.3920;0.0458
0002031506;7.9823;2.4086;2.6312;-0.3239;-0.3672;0.0552
0002031515;7.8099;2.3631;2.8563;-0.3264;-0.3583;0.0717
0002031524;7.5393;2.4229;3.1077;-0.3175;-0.3637;0.0806
0002031537;7.8003;2.5355;3.2106;-0.3090;-0.3808;0.0955
0002031546;7.5178;2.3415;3.1891;-0.2951;-0.3900;0.1198
0002031558;7.7405;2.1045;3.3830;-0.2658;-0.4230;0.1175
0002031567;7.7261;1.9465;3.3615;-0.2481;-0.4434;0.1192
0002031580;7.8985;1.8411;3.1939;-0.2168;-0.4772;0.0934
0002031589;7.8817;1.7933;3.1196;-0.1836;-0.5069;0.0633
0002031657;8.7915;2.0614;3.8379;-0.0963;-0.3972;-0.0859
0002031666;8.5042;1.9992;3.9361;-0.0910;-0.3704;-0.0831
0002031675;8.3486;2.0207;3.9025;-0.0898;-0.3564;-0.0859
0002031688;8.1523;1.7693;4.0294;-0.0797;-0.3421;-0.0955
0002031697;8.1475;1.7669;4.0127;-0.0596;-0.3448;-0.1100
0002031709;7.6950;1.5754;3.9600;-0.0618;-0.3599;-0.1286
0002031718;7.5082;1.2809;3.9935;-0.0517;-0.3797;-0.1363
0002031731;7.3694;1.1444;3.9145;-0.0441;-0.4315;-0.1572
0002031740;7.2329;0.9673;3.8427;-0.0582;-0.4763;-0.1760
0002031752;7.1443;0.9337;3.9863;-0.0488;-0.5481;-0.1944
0002031761;7.2880;1.0104;3.9289;-0.0518;-0.5922;-0.1913
0002031770;7.2449;1.1133;4.0079;-0.0654;-0.6384;-0.1849
0002031783;7.2520;1.3815;4.1707;-0.0636;-0.6973;-0.1876
0002031792;7.3430;1.4030;4.1444;-0.0576;-0.7428;-0.1911
0002031804;7.3382;1.5036;4.2569;-0.0621;-0.7957;-0.1863
0002031813;7.1802;1.6927;4.2210;-0.0667;-0.8311;-0.1767
0002031826;7.1994;1.9154;4.1539;-0.0718;-0.8863;-0.1835
0002031835;7.2927;2.0135;4.1803;-0.0677;-0.9313;-0.2029
0002031847;7.1371;2.2817;4.1755;-0.0357;-0.9908;-0.2483
0002031856;7.3478;2.5331;4.1132;-0.0143;-1.0361;-0.2840
0002031865;7.1826;2.4828;4.1420;0.0113;-1.0862;-0.3301
0002031878;7.2520;2.6240;4.0677;0.0230;-1.1377;-0.4030
0002031887;7.3287;2.6217;3.8714;0.0264;-1.1602;-0.4407
0002031955;7.5561;2.8132;3.1699;0.0143;-1.3944;-0.6728
0002031964;7.7261;2.8706;3.0885;-0.0107;-1.4069;-0.6828
0002031977;7.7069;2.7892;2.9856;-0.0738;-1.4008;-0.6772
0002031986;8.0014;2.8706;2.8778;-0.1176;-1.3920;-0.6588
0002031998;8.1547;2.7007;2.8730;-0.1716;-1.3861;-0.6424
0002032007;8.0445;2.5809;2.7964;-0.1887;-1.3721;-0.6242
0002032016;8.3199;2.4541;2.5307;-0.2084;-1.3511;-0.5821
0002032029;8.2361;2.3607;2.6240;-0.2152;-1.3183;-0.5644
0002032038;8.2815;2.4732;2.6791;-0.2188;-1.2832;-0.5424
0002032050;8.1642;2.4205;2.6193;-0.2280;-1.2526;-0.5129
0002032059;8.2073;2.4541;2.5690;-0.2332;-1.2321;-0.4919
0002032072;8.2169;2.3774;2.6240;-0.2469;-1.2171;-0.4735
0002032081;8.1187;2.4445;2.4972;-0.2498;-1.2140;-0.4658
0002032093;8.2361;2.4110;2.5235;-0.2578;-1.1999;-0.4515
0002032102;8.0373;2.4517;2.4373;-0.2605;-1.1900;-0.4482
0002032111;8.1714;2.5570;2.3966;-0.2778;-1.1923;-0.4506
0002032124;8.0182;2.5881;2.2769;-0.3032;-1.1855;-0.4353
0002032133;8.4683;2.7461;2.2194;-0.3219;-1.1766;-0.4297
0002032145;8.9232;3.1149;2.0758;-0.3479;-1.1427;-0.4199
0002032154;9.2703;3.2537;2.1213;-0.3905;-1.1088;-0.4174
0002032167;9.6438;3.2657;2.0686;-0.4775;-1.0525;-0.3913
0002032176;9.4260;2.9521;2.0351;-0.5313;-1.0208;-0.3619
0002032244;8.3941;1.7047;2.0877;-0.2919;-0.9791;-0.2934
0002032253;8.3582;1.7119;2.2027;-0.2482;-0.9856;-0.3010
0002032262;8.5401;1.9585;2.0973;-0.2284;-0.9641;-0.2880
0002032275;8.8921;2.2889;2.0925;-0.2237;-0.9338;-0.2799
0002032284;8.9016;2.3367;2.0351;-0.2198;-0.9112;-0.2813
0002032296;9.0525;2.3391;1.9992;-0.2198;-0.8529;-0.2871
0002032305;9.2225;2.5474;2.0614;-0.2129;-0.8154;-0.2910
0002032318;9.2632;2.2649;2.1979;-0.1908;-0.7365;-0.2847
0002032327;9.4092;2.2817;1.9465;-0.1723;-0.6788;-0.2832
0002032339;9.6774;2.3655;1.8866;-0.1352;-0.5913;-0.2789
0002032348;9.8450;2.5786;1.8603;-0.1035;-0.5149;-0.2701
0002032357;9.4355;2.4301;1.8411;-0.1066;-0.4273;-0.2761
0002032370;9.3613;2.4445;1.7071;-0.1077;-0.3056;-0.2547
0002032379;9.3182;2.7438;1.5778;-0.1182;-0.2226;-0.2261
0002032391;8.8897;2.5642;1.5706;-0.1447;-0.1340;-0.1688
0002032400;8.6957;2.5977;1.6831;-0.1756;-0.0731;-0.1042
0002032414;7.9895;2.5211;1.8507;-0.2372;-0.0032;-0.0273
0002032423;7.8697;2.4373;1.9944;-0.2642;0.0270;0.0059
0002032436;7.7405;2.3152;2.4325;-0.2707;0.0663;0.0429
0002032445;7.8769;2.2769;2.6983;-0.2478;0.0783;0.0452
0002032454;8.3725;2.4301;3.0047;-0.2313;0.0993;0.0418
0002032466;8.7700;2.6911;3.1412;-0.2102;0.1298;0.0167
0002032475;9.0597;2.6887;3.3136;-0.1869;0.1589;-0.0152
0002032542;6.9097;1.6233;3.0646;-0.1620;0.0766;-0.2050
0002032551;6.6463;1.9680;3.0933;-0.1789;0.0059;-0.2364
0002032563;6.5817;2.2482;3.4477;-0.2181;-0.0889;-0.2765
0002032572;6.7277;2.6576;3.6129;-0.2527;-0.1525;-0.3152
0002032581;6.7014;2.4636;3.7254;-0.2850;-0.2128;-0.3631
0002032594;7.1922;2.5043;3.9337;-0.3135;-0.2695;-0.4214
0002032603;7.3430;2.2625;4.0845;-0.3152;-0.3090;-0.4743
0002032615;7.7021;2.0901;3.8642;-0.3131;-0.3464;-0.5368
0002032624;7.7644;1.6903;3.9361;-0.3154;-0.3641;-0.5626
0002032637;7.5968;1.4078;3.8762;-0.3072;-0.4002;-0.5905
0002032646;7.6279;1.3527;3.9959;-0.3067;-0.4226;-0.5965
0002032658;7.5250;1.3312;4.0510;-0.3335;-0.4525;-0.5973
0002032667;7.2688;1.3575;4.1204;-0.3512;-0.4858;-0.6089
0002032676;7.1730;1.5850;4.1755;-0.3548;-0.5099;-0.6241
0002032687;7.0749;1.4724;4.2353;-0.3705;-0.5476;-0.6638
0002032695;7.0294;1.4724;4.1180;-0.3818;-0.5697;-0.6961
0002032706;6.7397;1.2306;4.4077;-0.3660;-0.6316;-0.7502
0002032714;7.1012;1.2522;4.4532;-0.3643;-0.6636;-0.7835
0002032726;6.9719;1.0774;4.4173;-0.3645;-0.7217;-0.8529
0002032734;6.8307;1.1947;4.5203;-0.3653;-0.7647;-0.9132
0002032745;6.9623;1.4341;4.4388;-0.3764;-0.8029;-0.9731
