time;acc_x;acc_y;acc_z;gyro_x;gyro_y;gyro_z
0001096452;5.0661;2.4421;2.6480;-0.1019;-0.8964;-0.0733
0001096460;5.2265;2.3655;2.7174;-0.0829;-0.9228;-0.0877
0001096467;5.3439;2.3056;2.7557;-0.0707;-0.9446;-0.1110
0001096475;5.8945;2.5977;2.7007;-0.0602;-0.9527;-0.1411
0001096483;6.1842;2.8012;2.7557;-0.0484;-0.9665;-0.1713
0001096491;6.3422;2.8228;2.9832;-0.0533;-0.9555;-0.1933
0001096499;6.5577;3.0789;2.9257;-0.0743;-0.9449;-0.2174
0001096507;6.5242;3.1723;3.1101;-0.0878;-0.9330;-0.2292
0001096515;6.3877;3.1603;3.1891;-0.1075;-0.9310;-0.2356
0001096523;6.5625;3.1675;3.0622;-0.1208;-0.9366;-0.2405
0001096531;6.2177;2.8371;3.0167;-0.1304;-0.9294;-0.2309
0001096539;6.1866;2.4373;2.8443;-0.1391;-0.9317;-0.2174
0001096547;6.3087;2.3774;2.7964;-0.1455;-0.9349;-0.2064
0001096555;6.3686;2.2817;2.8084;-0.1347;-0.9374;-0.1921
0001096563;6.3566;2.1189;2.6432;-0.1139;-0.9513;-0.1957
0001096571;6.3997;1.9968;2.7438;-0.0929;-0.9570;-0.1880
0001096579;6.6894;2.1955;2.5857;-0.0665;-0.9589;-0.1875
0001096587;6.5218;2.0590;2.5139;-0.0398;-0.9642;-0.1964
0001096595;6.5338;2.2314;2.4612;-0.0167;-0.9689;-0.2117
0001096603;6.3566;2.3128;2.5043;-0.0131;-0.9657;-0.2146
0001096611;6.2991;2.5570;2.4157;-0.0160;-0.9597;-0.2293
0001096619;6.3710;2.6671;2.5043;-0.0160;-0.9602;-0.2417
0001096627;6.3231;2.7557;2.4373;-0.0308;-0.9465;-0.2447
0001096635;6.5122;2.8012;2.3750;-0.0384;-0.9298;-0.2491
0001096643;6.2345;2.6336;2.2721;-0.0454;-0.9156;-0.2535
0001096651;6.6343;2.7270;2.1979;-0.0470;-0.9037;-0.2539
0001096659;6.5769;2.7485;2.1021;-0.0544;-0.8775;-0.2485
0001096667;6.5601;2.4517;2.0758;-0.0482;-0.8655;-0.2546
0001096675;6.5529;2.3990;2.1141;-0.0429;-0.8407;-0.2531
0001096683;6.5003;2.4517;2.0877;-0.0396;-0.8183;-0.2559
0001096691;6.5003;2.3990;2.2314;-0.0281;-0.8088;-0.2562
0001096699;6.5362;2.3104;2.2889;-0.0169;-0.7909;-0.2506
0001096707;6.5841;2.3966;2.2960;-0.0095;-0.7675;-0.2410
0001096715;6.7564;2.6767;2.2960;-0.0075;-0.7608;-0.2362
0001096723;6.7564;2.7222;2.2865;-0.0120;-0.7412;-0.2230
0001096731;6.8618;2.7007;2.2529;-0.0274;-0.7276;-0.2234
0001096739;6.8235;2.7988;2.2146;-0.0354;-0.7193;-0.2100
0001096747;7.0916;2.9305;2.2027;-0.0449;-0.6991;-0.1998
0001096755;7.0006;2.8156;2.3320;-0.0449;-0.6853;-0.1765
0001096763;7.3023;2.9640;2.3487;-0.0466;-0.6496;-0.1584
0001096771;7.5633;2.8659;2.4780;-0.0404;-0.6173;-0.1312
0001096779;7.6016;2.6647;2.3870;-0.0309;-0.5945;-0.1082
0001096787;7.7237;2.5594;2.3679;-0.0322;-0.5532;-0.0838
0001096795;7.7883;2.4205;2.3152;-0.0217;-0.5047;-0.0626
0001096803;8.0637;2.5043;2.3032;0.0000;-0.4616;-0.0342
0001096811;8.1068;2.5139;2.2769;0.0177;-0.4114;0.0007
0001096819;7.9128;2.6240;2.2266;0.0308;-0.3623;0.0293
0001096827;8.0445;2.7007;2.0614;0.0401;-0.3071;0.0533
0001096835;7.7812;2.6480;2.0925;0.0088;-0.2310;0.0723
0001096843;8.1499;2.7988;1.9585;-0.0175;-0.1676;0.0877
0001096851;7.9942;2.8036;1.9752;-0.0390;-0.1074;0.1053
0001096859;8.0637;2.6983;2.0734;-0.0357;-0.0618;0.1247
0001096867;8.1618;2.6863;2.0830;-0.0292;-0.0148;0.1480
0001096875;8.1618;2.5331;1.9465;-0.0155;0.0296;0.1748
0001096883;8.3486;2.8922;1.9704;-0.0033;0.0681;0.1953
0001096891;8.3606;2.8467;2.0662;0.0047;0.1148;0.2084
0001096899;8.3893;2.9760;2.1117;0.0044;0.1644;0.2381
0001096907;8.2121;2.9137;2.1668;0.0145;0.2066;0.2543
0001096915;8.3869;2.9042;2.1715;0.0341;0.2458;0.2803
0001096923;8.4851;3.0263;2.0375;0.0669;0.2972;0.3070
0001096931;8.8298;3.3112;2.0734;0.0950;0.3372;0.3327
0001096939;8.6670;3.2465;1.8794;0.1099;0.3764;0.3706
0001096947;8.7843;3.3016;1.9058;0.1180;0.4191;0.4077
0001096955;8.9160;3.3351;1.6664;0.1279;0.4622;0.4338
0001096963;8.6790;3.3926;1.7502;0.1211;0.5003;0.4628
0001096971;8.5976;3.4548;1.6831;0.1130;0.5291;0.4795
0001096979;8.3629;3.3351;1.6903;0.0926;0.5605;0.5009
0001096987;8.1044;3.3040;1.7813;0.0699;0.5792;0.5175
0001096995;7.9176;3.2825;1.7358;0.0422;0.6081;0.5363
0001097003;7.8027;3.1101;1.7238;0.0230;0.6198;0.5462
0001097011;7.8243;3.1843;1.6209;0.0048;0.6311;0.5526
0001097019;7.7452;2.9473;1.5706;-0.0205;0.6416;0.5510
0001097027;7.7261;2.9018;1.5921;-0.0341;0.6436;0.5353
0001097054;8.0637;2.6863;1.4293;-0.0669;0.6791;0.4826
0001097062;7.9320;2.6504;1.4533;-0.0706;0.6915;0.4624
0001097070;7.8697;2.5690;1.5634;-0.0637;0.6961;0.4451
0001097078;7.6567;2.5091;1.4413;-0.0683;0.7056;0.4361
0001097086;7.7357;2.8299;1.4413;-0.0757;0.7112;0.4243
0001097094;7.6878;2.6624;1.5107;-0.0803;0.7129;0.4068
0001097102;7.6998;2.7222;1.5323;-0.0889;0.7159;0.3961
0001097110;7.6423;2.6863;1.5993;-0.0903;0.7209;0.3766
0001097118;7.6136;2.7246;1.5227;-0.0967;0.7270;0.3691
0001097126;7.7835;2.7940;1.5443;-0.1037;0.7382;0.3527
0001097134;7.6974;2.7749;1.5251;-0.1163;0.7554;0.3416
0001097142;7.6806;2.7366;1.6616;-0.1218;0.7580;0.3321
0001097150;7.9847;2.9018;1.7669;-0.1342;0.7709;0.3182
0001097158;7.8626;2.8276;1.6472;-0.1522;0.7893;0.3131
0001097166;7.8554;2.7102;1.4724;-0.1611;0.8167;0.3022
0001097174;7.9871;2.7246;1.5323;-0.1735;0.8423;0.2919
0001097182;8.0349;2.8012;1.4198;-0.1872;0.8753;0.2862
0001097190;8.0445;2.5522;1.5060;-0.1893;0.9072;0.2777
0001097198;8.0493;2.7222;1.4198;-0.1824;0.9326;0.2738
0001097206;7.9631;2.5977;1.4222;-0.1771;0.9650;0.2730
0001097214;7.8697;2.7222;1.4988;-0.1756;0.9828;0.2783
0001097222;7.8458;2.7126;1.4341;-0.1797;1.0130;0.2878
0001097230;7.5968;2.7222;1.5634;-0.1688;1.0303;0.2907
0001097238;7.3310;2.5163;1.4365;-0.1591;1.0501;0.2872
0001097246;7.5441;2.5426;1.4557;-0.1494;1.0643;0.2922
0001097254;7.2975;2.3918;1.4246;-0.1348;1.0709;0.2940
0001097262;7.1682;2.3152;1.3144;-0.1174;1.0766;0.2790
0001097270;7.1180;2.4014;1.3838;-0.0942;1.0765;0.2622
0001097278;7.1419;2.4493;1.5131;-0.0891;1.0753;0.2522
0001097286;7.1299;2.6408;1.4868;-0.0851;1.0689;0.2324
0001097294;6.9552;2.4924;1.4916;-0.0806;1.0603;0.2120
0001097302;7.0390;2.5642;1.4629;-0.0719;1.0408;0.1867
0001097310;7.0988;2.4900;1.4126;-0.0709;1.0357;0.1704
0001097318;7.1371;2.4277;1.3240;-0.0641;1.0291;0.1511
0001097326;7.1275;2.1787;1.2857;-0.0441;1.0212;0.1302
0001097334;7.1970;2.2314;1.2929;-0.0230;1.0183;0.1220
0001097342;7.2329;2.2482;1.2522;0.0077;1.0147;0.1038
0001097350;7.2137;2.0997;1.2641;0.0338;1.0138;0.0989
0001097358;7.3789;2.2434;1.1923;0.0529;1.0174;0.0994
0001097366;7.4843;2.3607;1.0271;0.0705;1.0285;0.0918
0001097374;7.6207;2.3583;1.0582;0.0915;1.0260;0.0891
0001097382;7.4651;2.4876;1.0415;0.1010;1.0321;0.0973
0001097390;7.6806;2.6624;1.1732;0.1183;1.0443;0.1010
0001097398;7.4029;2.5977;0.9720;0.1372;1.0573;0.1041
0001097406;7.3191;2.7174;1.0415;0.1612;1.0655;0.1079
0001097414;7.3598;2.8491;0.9792;0.1883;1.0768;0.1071
0001097422;7.2377;2.8347;1.1325;0.2080;1.0866;0.1172
0001097430;7.1706;2.9066;1.2857;0.2388;1.0913;0.1284
0001097438;7.1970;3.2681;1.5490;0.2790;1.0853;0.1439
0001097446;7.1347;3.3639;1.9297;0.3127;1.0776;0.1799
0001097454;6.8738;3.5769;2.0734;0.3499;1.0793;0.2154
0001097462;6.7876;3.9456;2.2793;0.3752;1.0777;0.2666
0001097470;6.7493;4.2856;2.5474;0.3822;1.0681;0.3164
0001097478;6.6248;4.3072;2.7629;0.3612;1.0463;0.3688
0001097486;7.1108;4.5633;3.0430;0.3296;1.0251;0.4245
0001097494;7.1874;4.2832;3.2872;0.3002;1.0091;0.4724
0001097502;7.4244;3.8211;3.3303;0.2785;1.0211;0.5071
0001097510;7.4436;3.4812;3.4524;0.2547;1.0276;0.5273
0001097518;7.6375;3.1580;3.5721;0.2326;1.0311;0.5223
0001097526;7.9535;2.7366;3.4860;0.2132;1.0428;0.5092
0001097534;8.0804;2.3894;3.2585;0.1912;1.0709;0.4872
0001097542;8.0230;1.8986;3.2274;0.1717;1.1009;0.4711
0001097550;7.5729;1.4557;3.2322;0.1672;1.1305;0.4458
0001097558;7.6854;1.4629;2.9784;0.1579;1.1528;0.4327
0001097566;7.6830;1.5443;3.3112;0.1303;1.1715;0.4241
0001097574;7.7668;1.9154;3.3734;0.0966;1.1938;0.3974
0001097582;7.6614;1.9896;3.5506;0.0777;1.2153;0.3681
0001097590;7.4124;2.2027;3.7206;0.0433;1.2454;0.3449
0001097598;7.3550;2.6073;3.9648;0.0107;1.2753;0.3180
0001097606;7.1874;2.9544;4.2162;-0.0108;1.2910;0.2815
0001097614;6.7205;2.8826;4.2521;-0.0330;1.2942;0.2467
0001097622;6.3039;2.8635;4.1659;-0.0540;1.2871;0.2273
0001097630;5.9280;2.8180;4.0821;-0.0665;1.2665;0.2069
0001097638;5.5785;2.7318;4.0031;-0.0779;1.2405;0.1990
0001097646;5.2170;2.6336;3.8211;-0.0758;1.1799;0.1978
0001097732;4.8985;3.0119;3.3327;0.0197;0.5416;-0.1423
0001097740;4.8100;3.1508;3.2801;0.0137;0.5071;-0.1990
0001097748;4.9560;3.1819;3.2872;-0.0007;0.4747;-0.2401
0001097756;5.1116;3.2106;3.2202;-0.0133;0.4398;-0.2777
0001097764;4.8985;3.1101;3.1388;-0.0216;0.4105;-0.3199
0001097772;4.8530;3.0813;3.0933;-0.0314;0.3856;-0.3364
0001097780;4.7860;2.8443;3.0861;-0.0553;0.3660;-0.3520
0001097788;4.6663;2.7605;3.0215;-0.0705;0.3325;-0.3733
0001097796;4.8076;2.7509;3.0765;-0.0870;0.3111;-0.3784
0001097804;4.7333;2.6576;2.9329;-0.1073;0.2956;-0.3820
0001097812;4.8674;2.7198;3.0358;-0.1266;0.2836;-0.3806
0001097820;4.9321;2.7198;2.9042;-0.1442;0.2790;-0.3700
0001097828;5.1667;2.6480;3.0550;-0.1591;0.2775;-0.3587
0001097836;5.3415;2.5355;2.9664;-0.1709;0.2771;-0.3413
0001097844;5.4013;2.5283;2.9664;-0.1792;0.2847;-0.3183
0001097852;5.6790;2.6576;2.7988;-0.1869;0.2934;-0.2972
0001097860;5.7557;2.4445;2.5402;-0.1964;0.3014;-0.2783
0001097868;5.6599;2.3798;2.4612;-0.2013;0.3030;-0.2675
0001097876;5.4779;2.2913;2.4756;-0.2164;0.3192;-0.2462
0001097884;5.3582;2.2242;2.4612;-0.2289;0.3191;-0.2269
0001097892;5.2098;2.2338;2.5283;-0.2245;0.3178;-0.2062
0001097900;5.1667;2.0734;2.4493;-0.2209;0.3118;-0.1799
0001097908;4.6663;1.8866;2.4708;-0.2228;0.2839;-0.1459
0001097916;4.6759;1.6400;2.3248;-0.2005;0.2461;-0.1043
0001097924;4.4269;1.4365;2.0949;-0.1563;0.1996;-0.0793
0001097932;4.2952;1.3431;2.1093;-0.1078;0.1541;-0.0528
0001097940;4.2210;1.3431;2.1835;-0.0585;0.1098;-0.0502
0001097948;4.0151;1.5490;2.0901;-0.0061;0.0674;-0.0674
0001097956;3.9576;1.6855;2.0231;0.0292;0.0248;-0.0617
0001097964;4.2425;1.8004;2.0063;0.0561;-0.0358;-0.0417
0001097972;4.6926;1.8411;1.9992;0.0727;-0.0898;-0.0007
0001097980;4.8866;1.8052;2.1380;0.0869;-0.1256;0.0461
0001097988;4.9967;1.6879;2.0111;0.0907;-0.1564;0.0959
0001097996;5.4779;1.8747;1.7980;0.0887;-0.1928;0.1371
0001098004;5.4971;1.8794;1.6640;0.0815;-0.2340;0.1705
0001098012;5.4588;1.6281;1.5275;0.0794;-0.2639;0.2004
0001098020;5.4324;1.5036;1.3623;0.0801;-0.3014;0.2297
0001098028;5.4181;1.6257;1.3120;0.0974;-0.3537;0.2658
0001098036;5.2433;1.6041;1.4461;0.1134;-0.4058;0.3047
0001098044;5.1763;1.7933;1.4222;0.1428;-0.4443;0.3396
0001098052;4.9584;1.8364;1.7119;0.1688;-0.4776;0.3802
0001098060;5.0805;1.9537;1.7430;0.2125;-0.5161;0.4155
0001098068;5.1523;2.0566;1.9609;0.2626;-0.5669;0.4478
0001098076;5.3654;2.1883;2.2673;0.3198;-0.6130;0.4795
0001098084;5.8227;2.5426;2.7007;0.3849;-0.6478;0.4806
0001098092;6.3997;3.0957;3.3974;0.4454;-0.6310;0.4545
0001098100;6.6655;3.6536;3.9696;0.4858;-0.5877;0.3884
0001098108;7.1730;4.3862;4.4819;0.4682;-0.5117;0.3058
0001098116;7.4579;5.0685;4.7214;0.4206;-0.4375;0.2108
0001098124;7.4891;5.1356;4.8937;0.3440;-0.3742;0.1320
0001098132;7.2496;4.7501;4.7788;0.2385;-0.3333;0.0846
0001098140;7.0102;4.1420;4.6807;0.1589;-0.3320;0.0648
0001098148;6.6846;3.2178;4.5179;0.0973;-0.3515;0.0626
0001098156;6.4691;2.6839;4.4173;0.0478;-0.3801;0.0628
0001098164;5.8227;2.1237;4.3024;0.0073;-0.4190;0.0440
0001098172;5.2601;1.6879;4.0821;-0.0281;-0.4636;0.0128
0001098180;4.7764;1.4102;3.8954;-0.0588;-0.5252;-0.0341
0001098188;4.6687;1.0534;3.8930;-0.0743;-0.5792;-0.0869
0001098196;4.7118;0.8236;3.5410;-0.0669;-0.6290;-0.1456
0001098204;5.0757;0.6440;3.3806;-0.0380;-0.6519;-0.2092
0001098212;5.5426;0.4932;3.3950;0.0180;-0.6559;-0.2745
0001098220;6.0525;0.5435;3.4213;0.0926;-0.6458;-0.3239
0001098228;6.8881;0.8045;3.3495;0.1728;-0.6142;-0.3577
0001098236;7.7835;1.3024;3.3878;0.2312;-0.5490;-0.3560
0001098244;8.6742;2.2242;3.5602;0.2871;-0.4848;-0.3471
0001098252;9.3350;2.7605;3.5362;0.3275;-0.4073;-0.3024
0001098260;9.7923;3.5051;3.5865;0.3388;-0.3220;-0.2402
0001098268;10.0293;3.9049;3.5386;0.3254;-0.2222;-0.1697
0001098276;9.9814;4.0342;3.5889;0.3019;-0.1148;-0.0839
0001098284;9.4858;3.7326;3.7206;0.2807;-0.0274;-0.0007
0001098292;9.1171;3.2753;3.4548;0.2625;0.0430;0.0867
0001098300;8.5904;3.0382;3.3830;0.2594;0.0911;0.1695
0001098308;8.3366;2.8539;3.2968;0.2687;0.1147;0.2224
0001098394;7.4196;2.6743;1.7119;-0.1454;0.2212;-0.0057
0001098402;7.6399;2.9592;1.3264;-0.2114;0.2433;-0.0333
0001098410;7.7045;3.0239;1.4557;-0.2991;0.2514;-0.0486
0001098418;7.7165;2.9784;1.8340;-0.3777;0.2737;-0.0562
0001098426;7.8123;2.9544;1.9321;-0.4174;0.3068;-0.0674
0001098434;7.8075;2.9137;1.9297;-0.4249;0.3480;-0.0942
0001098442;7.9679;2.7294;1.9656;-0.4255;0.3721;-0.1134
0001098450;8.0421;2.5666;1.9752;-0.4146;0.4081;-0.1196
0001098458;8.0613;2.4229;1.6017;-0.4089;0.4329;-0.1355
0001098466;7.9918;2.2936;1.6735;-0.3687;0.4514;-0.1689
0001098474;8.2504;2.2075;1.3527;-0.3365;0.4718;-0.1957
0001098482;8.1954;2.1189;1.0247;-0.3356;0.4944;-0.2110
0001098490;8.4539;2.3535;1.0942;-0.3553;0.5056;-0.2170
0001098498;8.5305;2.3056;1.1732;-0.3733;0.5220;-0.2229
0001098506;8.4683;2.2122;1.2186;-0.3784;0.5532;-0.2258
0001098514;8.4180;2.0686;1.3384;-0.3661;0.5923;-0.2270
0001098522;8.3510;2.1979;1.1420;-0.3399;0.6400;-0.2390
0001098530;8.4994;2.3272;1.2713;-0.3260;0.6821;-0.2537
0001098538;8.2791;2.3679;1.5203;-0.3027;0.7132;-0.2605
0001098546;8.1714;2.3415;1.8723;-0.2883;0.7429;-0.2503
0001098554;7.9535;2.6719;2.1524;-0.2694;0.7770;-0.2437
0001098562;7.6184;2.8515;2.3918;-0.2461;0.7974;-0.2246
0001098570;7.1563;3.2753;2.5474;-0.2333;0.8214;-0.2024
0001098578;6.6463;3.8188;2.2529;-0.2313;0.8270;-0.1753
0001098586;6.2872;4.1779;2.2170;-0.2591;0.7966;-0.1252
0001098594;5.9711;4.2689;2.4636;-0.2964;0.7718;-0.0505
0001098602;5.7078;4.0582;2.4229;-0.3297;0.7155;0.0055
0001098610;5.8754;3.8331;2.4660;-0.3573;0.6635;0.0410
0001098618;6.0956;3.6272;2.4277;-0.3852;0.5959;0.0552
0001098626;6.1220;3.0502;2.3439;-0.3952;0.5442;0.0593
0001098634;5.9496;2.4565;2.3918;-0.3886;0.4916;0.0329
0001098642;6.0980;2.0087;2.2697;-0.3637;0.4549;0.0067
0001098650;6.4404;1.9369;1.9968;-0.3324;0.4326;-0.0244
0001098658;6.6918;1.9393;1.7717;-0.2797;0.4250;-0.0625
0001098666;7.1730;2.0949;1.6017;-0.2653;0.4281;-0.0710
0001098674;7.3502;2.1979;1.5012;-0.2621;0.4342;-0.0765
0001098682;7.2377;2.2098;1.9680;-0.2722;0.4523;-0.0562
0001098690;7.0820;2.3583;2.2098;-0.2860;0.4874;-0.0286
0001098698;7.3143;2.5163;2.2601;-0.2831;0.5083;-0.0072
0001098706;6.9121;2.3391;2.2936;-0.2842;0.5219;0.0265
0001098714;6.9025;2.2889;2.4708;-0.2880;0.5049;0.0633
0001098722;6.5697;1.8651;2.4469;-0.2789;0.4859;0.0898
0001098730;6.4260;1.5514;2.6671;-0.2555;0.4547;0.0939
0001098738;5.8826;1.3479;2.8084;-0.2198;0.4226;0.0917
0001098746;5.5809;1.2378;2.6887;-0.1961;0.3874;0.0935
0001098754;5.4348;1.1923;2.6983;-0.1520;0.3381;0.0890
0001098762;5.3989;1.0391;2.5642;-0.1011;0.2983;0.0921
0001098770;5.3630;0.9697;2.5809;-0.0540;0.2675;0.1051
0001098778;5.4995;0.8739;2.6887;-0.0008;0.2320;0.1215
0001098786;5.6623;0.9553;2.8611;0.0582;0.2084;0.1358
0001098794;5.7964;0.9146;2.9281;0.1041;0.1912;0.1499
0001098802;6.1842;1.3815;3.1771;0.1323;0.1883;0.1612
0001098810;6.3997;1.6161;3.3615;0.1683;0.1868;0.1643
0001098818;6.2537;1.6161;3.4285;0.1788;0.2042;0.1667
0001098826;6.4189;1.9154;3.5075;0.1672;0.2437;0.1545
0001098834;6.4476;1.9944;3.5219;0.1414;0.2976;0.1346
0001098842;6.4835;2.1021;3.3710;0.1296;0.3569;0.1219
0001098850;6.4260;2.0399;3.4261;0.1282;0.4110;0.1123
0001098858;6.5338;2.1979;3.4955;0.1299;0.4529;0.1078
0001098866;6.4691;2.3631;3.4453;0.1294;0.4828;0.1130
0001098874;6.2704;2.4181;3.1747;0.1342;0.4810;0.1278
0001098882;5.8131;2.4277;2.9401;0.1182;0.4862;0.1355
0001098890;5.3941;2.1548;2.8204;0.0933;0.4898;0.1275
0001098898;5.2074;2.1476;2.6671;0.0930;0.4852;0.1035
0001098906;4.5466;1.8603;2.3918;0.1251;0.4707;0.0793
0001098914;4.4341;1.7549;2.3607;0.1522;0.4594;0.0573
0001098922;4.0606;1.7382;2.3463;0.1687;0.4263;0.0373
0001098930;4.1180;1.9273;2.3439;0.1949;0.3768;0.0212
0001098938;4.1156;1.8771;2.2362;0.2354;0.3235;0.0200
0001098946;4.0103;1.9465;2.4636;0.2380;0.2886;0.0039
0001098954;4.0654;2.0542;2.2673;0.2427;0.2555;-0.0171
0001098962;4.3335;2.3535;2.3703;0.2491;0.2325;-0.0321
0001098970;4.2353;2.1907;2.3559;0.2531;0.1966;-0.0421
0001098978;4.4365;2.3679;2.4277;0.2605;0.1721;-0.0372
0001098986;4.4772;2.3679;2.3966;0.2519;0.1527;-0.0163
0001099073;4.6591;2.5546;2.5091;0.0806;0.2136;0.0790
0001099081;4.5801;2.6025;2.4253;0.1029;0.1998;0.0814
0001099089;4.5155;2.4948;2.0830;0.1267;0.1855;0.0703
0001099097;4.1324;2.1572;2.1165;0.1595;0.1608;0.0524
0001099105;4.1204;2.4708;2.2386;0.1769;0.1372;0.0337
0001099113;4.0199;2.3942;2.2075;0.1888;0.1078;0.0137
0001099121;3.9217;2.4660;2.2003;0.1970;0.0797;-0.0045
0001099129;3.8020;2.3918;2.1979;0.1900;0.0544;-0.0168
0001099137;3.9241;2.3894;2.0877;0.1840;0.0310;-0.0063
0001099145;3.9672;2.2242;1.9297;0.1986;-0.0001;0.0072
0001099153;4.2042;2.1763;1.8292;0.2289;-0.0356;0.0272
0001099161;4.3000;2.2817;2.0135;0.2631;-0.0895;0.0460
0001099169;4.3455;2.5642;2.0016;0.2779;-0.1426;0.0601
0001099177;4.2856;2.6360;2.1572;0.2677;-0.1904;0.0689
0001099185;4.2306;3.0239;2.1524;0.2462;-0.2320;0.0580
0001099193;4.1061;3.2992;2.2745;0.2058;-0.2715;0.0300
0001099201;3.9313;3.3950;2.3296;0.1515;-0.3027;0.0073
0001099209;4.0534;3.5099;2.2697;0.0935;-0.3383;-0.0284
0001099217;3.9313;3.2992;2.2793;0.0592;-0.3695;-0.0560
0001099225;4.0007;3.0119;2.2745;0.0244;-0.3850;-0.0791
0001099233;4.1252;2.8276;2.2410;0.0252;-0.4089;-0.0998
0001099241;4.1755;2.4517;2.1596;0.0501;-0.4342;-0.0966
0001099249;4.4796;2.4157;2.0734;0.0751;-0.4588;-0.0759
0001099257;4.5250;2.4421;2.1428;0.1033;-0.4895;-0.0622
0001099265;4.8291;2.6288;2.1955;0.1126;-0.5172;-0.0364
0001099273;5.0230;2.5498;2.1308;0.1090;-0.5341;-0.0061
0001099281;5.0613;2.3918;2.0087;0.1090;-0.5549;0.0052
0001099289;5.1092;2.3870;1.7334;0.1160;-0.5738;0.0095
0001099297;5.3510;2.3870;1.7406;0.1182;-0.5887;-0.0031
0001099305;5.1715;2.4876;1.8962;0.1082;-0.5889;-0.0099
0001099313;5.0949;2.5522;1.9752;0.1126;-0.5979;-0.0284
0001099321;5.0542;2.7869;2.0758;0.1348;-0.6106;-0.0333
0001099329;5.3582;3.1987;2.1380;0.1303;-0.6106;-0.0218
0001099337;5.2241;3.3160;2.2505;0.1136;-0.6239;-0.0072
0001099345;4.9704;3.2513;2.3846;0.0889;-0.6298;0.0079
0001099353;5.2912;3.3208;2.3774;0.0497;-0.6298;0.0188
0001099361;5.2601;3.2250;2.3152;0.0016;-0.6230;0.0240
0001099369;5.4923;3.1340;2.2075;-0.0414;-0.6089;0.0197
0001099377;5.5881;2.9353;2.2051;-0.0718;-0.5930;0.0208
0001099385;5.5593;2.5881;2.1979;-0.0873;-0.5903;0.0155
0001099393;5.6288;2.3559;2.0614;-0.0795;-0.5887;0.0176
0001099401;5.3127;2.2122;2.1404;-0.0793;-0.5933;0.0071
0001099409;5.1619;1.9561;2.1141;-0.0674;-0.5882;-0.0027
0001099417;5.0182;1.9824;1.8675;-0.0352;-0.5875;-0.0104
0001099425;4.8866;1.9297;1.9417;-0.0007;-0.5918;-0.0159
0001099433;4.8076;2.0279;2.0853;0.0406;-0.6117;-0.0212
0001099441;4.8483;2.1883;1.9273;0.0594;-0.6291;-0.0029
0001099449;4.6424;2.2673;2.0542;0.0826;-0.6503;0.0036
0001099457;4.9297;2.5091;2.0782;0.0833;-0.6634;0.0160
0001099465;4.7166;2.5067;2.2338;0.0750;-0.6720;0.0143
0001099473;4.9009;2.5881;2.3415;0.0605;-0.6630;-0.0031
0001099481;4.9057;2.4421;2.2170;0.0462;-0.6299;-0.0233
0001099489;5.3008;2.4110;2.0997;0.0242;-0.5898;-0.0424
0001099497;5.3941;2.1308;2.0327;0.0173;-0.5661;-0.0546
0001099505;5.8466;2.0877;2.0423;0.0260;-0.5616;-0.0540
0001099513;5.9304;1.9728;2.0111;0.0546;-0.5700;-0.0453
0001099521;5.9496;1.8244;1.8555;0.0877;-0.5537;-0.0281
0001099529;5.8251;1.9585;1.9920;0.1170;-0.5284;-0.0164
0001099537;5.6479;2.1213;2.0518;0.1496;-0.5233;-0.0228
0001099545;5.4085;2.4349;2.1931;0.1720;-0.5168;-0.0273
0001099553;5.2026;2.6408;2.4301;0.1796;-0.5117;-0.0365
0001099561;5.3295;3.1508;2.7318;0.1695;-0.5104;-0.0532
0001099569;5.6910;3.4572;2.9544;0.1364;-0.4983;-0.0802
0001099577;5.8179;3.4357;3.0263;0.1043;-0.4695;-0.1104
0001099585;6.2106;3.3471;3.1508;0.0957;-0.4383;-0.1403
0001099593;6.5793;3.2968;3.2848;0.0951;-0.4014;-0.1565
0001099601;6.8354;3.0358;3.2896;0.0895;-0.3521;-0.1525
0001099609;7.0557;2.8563;3.3447;0.0933;-0.3094;-0.1331
0001099617;7.4029;3.1292;3.2609;0.1003;-0.2747;-0.0971
0001099625;7.2760;2.9521;3.3854;0.1055;-0.2410;-0.0731
0001099633;7.1946;2.8156;3.3160;0.1078;-0.2130;-0.0420
0001099641;7.2592;2.9161;3.2154;0.0986;-0.1721;-0.0160
0001099649;6.9145;2.6863;3.2346;0.0957;-0.1415;0.0061
0001099735;8.1642;3.0047;2.8850;0.1797;0.2503;0.1917
0001099743;8.0445;2.9473;3.1220;0.1989;0.2908;0.2054
0001099751;8.1403;3.6344;3.1675;0.2252;0.3352;0.2073
0001099759;8.0685;4.0654;3.1987;0.2535;0.3764;0.1837
0001099767;8.2863;4.7549;3.3255;0.2932;0.4090;0.1496
0001099775;8.1714;5.4037;3.4668;0.2959;0.4453;0.1194
0001099783;8.1020;6.0118;3.3974;0.2721;0.4563;0.0835
0001099791;7.7045;6.0956;3.2777;0.1988;0.4674;0.0610
0001099799;7.1802;5.7628;3.4572;0.0981;0.4766;0.0518
0001099807;6.6367;5.0374;3.0789;0.0035;0.4782;0.0678
0001099815;6.5769;4.2521;2.8180;-0.0614;0.4618;0.1122
0001099823;6.3542;3.3232;2.4995;-0.1050;0.4590;0.1720
0001099831;6.5314;2.6001;2.1644;-0.1412;0.4517;0.2310
0001099839;6.7445;2.2553;1.9609;-0.1612;0.4429;0.2998
0001099847;6.9767;1.9968;1.9465;-0.1454;0.4189;0.3649
0001099855;7.0366;1.9297;1.7238;-0.1140;0.3982;0.4170
0001099863;7.1563;1.9680;1.6017;-0.0757;0.3837;0.4371
0001099871;7.3071;2.1931;1.6544;-0.0420;0.3830;0.4329
0001099879;7.4388;2.7246;1.6975;-0.0175;0.3890;0.4076
0001099887;7.2065;2.9760;1.6855;-0.0065;0.4009;0.3683
0001099895;7.0844;3.2753;1.7526;-0.0155;0.4046;0.3223
0001099903;7.0964;3.3686;1.8004;-0.0357;0.4065;0.2908
0001099911;7.0820;3.5506;1.9369;-0.0774;0.4080;0.2655
0001099919;6.9863;3.4572;1.8723;-0.0911;0.3937;0.2533
0001099927;7.0629;3.3160;2.0063;-0.1096;0.3925;0.2461
0001099935;7.2065;3.2513;1.9752;-0.1104;0.3880;0.2414
0001099943;7.1658;3.1651;1.8435;-0.0919;0.3698;0.2237
0001099951;7.2329;3.1292;1.8771;-0.0777;0.3603;0.2140
0001099959;7.0940;2.9305;1.6999;-0.0613;0.3485;0.1921
0001099967;6.8402;2.8802;1.7789;-0.0380;0.3345;0.1571
0001099975;6.5410;2.7126;1.9489;-0.0329;0.3162;0.1367
0001099983;6.5864;2.7294;1.9561;-0.0365;0.2898;0.1274
0001099991;6.6415;2.6647;1.9154;-0.0445;0.2635;0.1227
0001099999;6.8019;2.4541;1.9656;-0.0634;0.2388;0.1174
0001100007;6.7828;2.3918;1.9800;-0.0815;0.2292;0.1216
0001100015;7.0940;2.3822;2.1237;-0.0842;0.2102;0.1146
0001100023;7.1539;2.2817;1.9321;-0.0842;0.2037;0.1055
0001100031;7.1180;2.1859;1.9656;-0.0834;0.2034;0.0965
0001100039;7.1132;2.2075;2.0997;-0.0771;0.2077;0.1025
0001100047;6.7900;2.0279;2.0207;-0.0675;0.2026;0.0934
0001100055;7.0390;2.3822;1.8124;-0.0582;0.1903;0.0837
0001100063;6.8235;2.1476;1.6927;-0.0472;0.1725;0.0797
0001100071;6.7564;2.2242;1.6903;-0.0372;0.1455;0.0638
0001100079;6.6535;2.1237;1.7454;-0.0285;0.1198;0.0630
0001100087;6.6008;2.1141;1.7765;-0.0180;0.0834;0.0394
0001100095;6.4811;2.2098;1.6783;-0.0087;0.0564;0.0116
0001100103;6.4260;2.3104;1.6831;0.0027;0.0228;-0.0252
0001100111;6.4212;2.5881;1.8028;0.0120;-0.0032;-0.0550
0001100119;6.3829;2.7749;1.8747;0.0075;-0.0273;-0.0838
0001100127;6.1794;2.6791;1.9800;0.0012;-0.0616;-0.1200
0001100135;6.5817;3.0550;2.1117;-0.0029;-0.1035;-0.1609
0001100143;6.5434;3.2034;2.2003;-0.0276;-0.1238;-0.1877
0001100151;6.6846;3.3639;2.3655;-0.0584;-0.1470;-0.2245
0001100159;6.7373;3.4093;2.5690;-0.0966;-0.1767;-0.2626
0001100167;6.6726;3.4453;2.7940;-0.1359;-0.1939;-0.2899
0001100175;6.7660;3.3543;2.8467;-0.1721;-0.2136;-0.3052
0001100183;6.8953;3.3136;2.9521;-0.1985;-0.2257;-0.3024
0001100191;6.8019;3.0957;3.0454;-0.2392;-0.2313;-0.2914
0001100199;6.7516;2.8108;2.9832;-0.2539;-0.2487;-0.2876
0001100207;6.7780;2.5235;2.8395;-0.2571;-0.2493;-0.2634
0001100215;7.0246;2.4972;2.6288;-0.2499;-0.2507;-0.2531
0001100223;7.0198;2.1931;2.7366;-0.2344;-0.2402;-0.2374
0001100231;7.0294;2.1811;2.5594;-0.2197;-0.2352;-0.2205
0001100239;7.1204;2.1715;2.6456;-0.2078;-0.2288;-0.2150
0001100247;7.1946;2.1979;2.6193;-0.1961;-0.2253;-0.1947
0001100255;7.3478;2.4972;2.6887;-0.2052;-0.2118;-0.1772
0001100263;7.4531;2.4517;2.7916;-0.2125;-0.2044;-0.1693
0001100271;7.4771;2.4445;3.0358;-0.2321;-0.1949;-0.1620
0001100279;7.6638;2.6695;3.0718;-0.2515;-0.1763;-0.1520
0001100287;7.6088;2.5067;3.1364;-0.2567;-0.1683;-0.1593
0001100295;7.5178;2.5929;3.1292;-0.2495;-0.1525;-0.1597
0001100303;7.1012;2.4660;3.0215;-0.2439;-0.1300;-0.1529
0001100311;6.9552;2.4157;2.9497;-0.2318;-0.1158;-0.1483
0001100319;6.7660;2.5259;2.7485;-0.2309;-0.1030;-0.1436
0001100405;7.3550;2.3966;1.9968;-0.3131;0.1286;-0.1359
0001100413;7.4651;2.6408;2.0518;-0.3296;0.1697;-0.1322
0001100421;7.6710;2.9042;2.1691;-0.3512;0.2002;-0.1238
0001100429;7.7740;2.8539;2.3990;-0.3726;0.2407;-0.1183
0001100437;8.1666;3.2729;2.3128;-0.3993;0.2761;-0.1051
0001100445;8.2265;3.3184;2.1284;-0.4367;0.3002;-0.1041
0001100453;8.0804;3.2274;2.0327;-0.4616;0.3199;-0.1077
0001100461;7.8673;3.0119;1.9609;-0.4828;0.3485;-0.1057
0001100469;7.5537;2.9784;2.0351;-0.4916;0.3856;-0.1139
0001100477;7.0629;2.6025;2.1237;-0.4778;0.4112;-0.1403
0001100485;6.8115;2.3655;2.1332;-0.4558;0.4471;-0.1455
0001100493;6.7828;2.4469;2.2529;-0.4297;0.4867;-0.1467
0001100501;6.8378;2.2410;2.3439;-0.4072;0.5225;-0.1540
0001100509;7.1874;2.2003;2.2410;-0.3768;0.5548;-0.1471
0001100517;7.4460;2.0255;2.1261;-0.3625;0.5821;-0.1306
0001100525;7.5250;2.0279;1.9728;-0.3473;0.5941;-0.1142
0001100533;7.7452;2.2146;1.9824;-0.3555;0.6097;-0.0698
0001100541;7.4268;1.9489;2.1213;-0.3479;0.6314;-0.0458
0001100549;7.1970;2.0590;2.2075;-0.3311;0.6538;-0.0325
0001100557;7.0797;2.2865;2.3750;-0.3352;0.6777;-0.0276
0001100565;6.9647;2.5067;2.4325;-0.3275;0.6868;-0.0418
0001100573;6.7493;2.5331;2.6384;-0.3216;0.6971;-0.0533
0001100581;6.5936;2.5115;2.6432;-0.3144;0.7113;-0.0745
0001100589;6.4883;2.3463;2.5953;-0.2952;0.7254;-0.1088
0001100597;6.4404;2.2625;2.6911;-0.2854;0.7441;-0.1292
0001100605;6.5697;2.1045;2.7031;-0.2766;0.7641;-0.1408
0001100613;6.7062;1.9225;2.7054;-0.2725;0.7749;-0.1408
0001100621;6.6463;2.0255;2.7485;-0.2522;0.7793;-0.1300
0001100629;6.6152;2.0207;2.8467;-0.2385;0.7778;-0.0890
0001100637;6.6367;2.0614;2.7773;-0.2281;0.7666;-0.0536
0001100645;6.7014;1.8483;2.7845;-0.2116;0.7564;-0.0163
0001100653;6.6487;1.7023;2.8539;-0.2066;0.7617;0.0045
0001100661;6.2369;1.5490;3.0981;-0.1961;0.7596;0.0220
0001100669;5.9783;1.6017;3.0191;-0.1717;0.7598;0.0237
0001100677;5.6719;1.5323;3.1101;-0.1478;0.7420;0.0132
0001100685;5.5809;1.7262;3.3112;-0.1255;0.7221;0.0103
0001100693;5.5498;1.8076;3.4309;-0.1018;0.6952;0.0099
0001100701;5.3008;1.6496;3.1867;-0.0762;0.6598;0.0020
0001100709;5.1954;1.5682;3.1364;-0.0362;0.6343;-0.0003
0001100717;5.2050;1.6855;3.0382;0.0024;0.6223;0.0004
0001100725;5.0230;1.5826;3.1436;0.0500;0.6035;0.0003
0001100733;5.1332;1.9609;3.2034;0.1011;0.5720;0.0031
0001100741;5.2050;2.1691;3.2561;0.1346;0.5510;-0.0035
0001100749;4.9680;2.4277;3.2825;0.1426;0.5211;0.0093
0001100757;4.9225;2.8635;3.4069;0.1152;0.4922;0.0111
0001100765;4.8483;3.1053;3.4668;0.0713;0.4842;0.0097
0001100773;4.8171;3.1220;3.3974;0.0183;0.4736;-0.0020
0001100781;4.3311;2.7940;3.2394;-0.0309;0.4699;-0.0149
0001100789;4.3694;2.5474;3.1436;-0.0621;0.4600;-0.0354
0001100797;4.2258;2.3535;2.8802;-0.0858;0.4565;-0.0414
0001100805;4.3048;2.3631;3.0670;-0.0889;0.4510;-0.0418
0001100813;3.9409;2.0063;3.0574;-0.0867;0.4306;-0.0434
0001100821;3.9265;2.0111;3.1675;-0.0715;0.4078;-0.0401
0001100829;3.9696;1.9872;3.0813;-0.0678;0.3850;-0.0270
0001100837;3.8930;1.8866;3.0574;-0.0580;0.3585;-0.0388
0001100845;3.9145;1.9896;2.9928;-0.0644;0.3352;-0.0502
0001100853;3.9169;1.9824;3.0191;-0.0584;0.3015;-0.0819
0001100861;3.6966;1.7861;2.8228;-0.0556;0.2682;-0.1065
0001100869;3.5889;1.6352;2.7892;-0.0545;0.2401;-0.1359
0001100877;3.3854;1.5012;2.7916;-0.0500;0.2116;-0.1744
0001100885;3.1173;1.4868;2.7821;-0.0176;0.1839;-0.1996
0001100893;3.0335;1.5371;2.7438;0.0127;0.1539;-0.2056
0001100901;3.0143;1.6879;2.7725;0.0484;0.1244;-0.1985
0001100909;3.1388;1.9225;2.8036;0.0737;0.0838;-0.1852
0001100917;3.4716;2.1691;2.9401;0.0817;0.0454;-0.1725
0001100925;3.6176;2.4277;3.0023;0.0646;0.0262;-0.1719
0001100933;3.7996;2.5091;2.9305;0.0382;0.0056;-0.1883
0001100941;3.9217;2.4205;2.8228;-0.0016;-0.0053;-0.2048
0001100949;4.0366;2.3703;2.8036;-0.0317;-0.0068;-0.2234
0001100957;3.7613;1.9058;2.7845;-0.0276;-0.0135;-0.2393
0001100965;3.8786;1.6233;2.6240;-0.0185;-0.0085;-0.2445
0001100973;3.9217;1.4485;2.6073;0.0011;-0.0033;-0.2405
0001100981;3.8331;1.3312;2.7318;0.0393;0.0023;-0.2281
0001100989;4.0223;1.6616;2.7318;0.0921;-0.0127;-0.2237
0001101080;3.5530;1.6759;2.5331;0.1250;-0.2930;-0.1817
0001101088;3.4764;1.8148;2.6983;0.1613;-0.3367;-0.1872
0001101096;3.3998;2.2505;2.8395;0.1656;-0.3730;-0.1872
0001101104;3.2801;2.6001;2.7892;0.1579;-0.4089;-0.2094
0001101112;3.0837;2.5091;2.8802;0.1407;-0.4297;-0.2290
0001101120;3.1340;2.5187;2.9161;0.1295;-0.4555;-0.2402
0001101128;2.9951;2.5498;2.7725;0.1220;-0.4839;-0.2539
0001101136;2.8994;2.2745;2.5043;0.1440;-0.5252;-0.2618
0001101144;2.7964;1.9058;2.3224;0.1673;-0.5673;-0.2707
0001101152;2.6791;1.8890;2.4038;0.1901;-0.6105;-0.2802
0001101160;2.7797;1.9944;2.4229;0.2224;-0.6476;-0.2896
0001101168;2.8491;2.0949;2.3631;0.2522;-0.6928;-0.2951
0001101176;2.7294;2.3104;2.4756;0.2665;-0.7534;-0.3022
0001101184;3.0550;2.7749;2.5857;0.2661;-0.8030;-0.3055
0001101192;3.1412;2.6887;2.5379;0.2533;-0.8416;-0.3051
0001101200;3.4141;2.9305;2.4756;0.2177;-0.8715;-0.3119
0001101208;3.5626;2.7892;2.3870;0.1804;-0.8918;-0.3167
0001101216;3.7326;2.8084;2.4397;0.1467;-0.9126;-0.3263
0001101224;4.1013;2.8156;2.5019;0.1135;-0.9173;-0.3300
0001101232;4.2162;2.4756;2.5474;0.0974;-0.9244;-0.3359
0001101240;4.4197;2.4110;2.5474;0.0983;-0.9108;-0.3305
0001101248;4.3383;2.1715;2.4852;0.1191;-0.9132;-0.3115
0001101256;4.5705;2.2913;2.4181;0.1539;-0.9229;-0.2799
0001101264;4.4604;2.1787;2.4469;0.1803;-0.9340;-0.2509
0001101272;4.5322;2.2242;2.4277;0.1896;-0.9395;-0.2184
0001101280;4.3431;2.2601;2.5714;0.2110;-0.9490;-0.2054
0001101288;4.4149;2.2649;2.4134;0.2401;-0.9519;-0.1832
0001101296;4.4245;2.4157;2.3463;0.2611;-0.9493;-0.1587
0001101304;4.3455;2.3343;2.4588;0.2634;-0.9597;-0.1362
0001101312;4.4269;2.3846;2.6049;0.2521;-0.9575;-0.1022
0001101320;4.6998;2.4995;2.7294;0.2373;-0.9558;-0.0613
0001101328;4.6184;2.4277;2.6240;0.2306;-0.9655;-0.0341
0001101336;4.6687;2.2913;2.4421;0.2297;-0.9577;-0.0121
0001101344;4.7501;2.1596;2.4110;0.2300;-0.9570;-0.0103
0001101352;4.8842;2.0614;2.5211;0.2437;-0.9298;-0.0091
0001101360;5.1787;2.1524;2.5019;0.2559;-0.9089;0.0013
0001101368;5.5138;2.3391;2.6264;0.2793;-0.8976;0.0160
0001101376;5.5330;2.1596;2.5738;0.2883;-0.8785;0.0502
0001101384;5.7341;2.5881;2.6049;0.2805;-0.8560;0.0834
0001101392;5.7748;2.5546;2.5833;0.2863;-0.8569;0.1147
0001101400;5.6814;2.5714;2.6480;0.2470;-0.8559;0.1452
0001101408;5.3271;2.5402;2.4038;0.2166;-0.8603;0.1559
0001101416;5.1236;2.6193;2.4229;0.1986;-0.8771;0.1511
0001101424;4.7046;2.1644;2.0949;0.1652;-0.8532;0.1320
0001101432;4.6376;2.0925;2.0590;0.1451;-0.8407;0.0981
0001101440;4.4772;1.6879;2.2553;0.1679;-0.8188;0.0606
0001101448;4.6543;1.6137;2.2218;0.2038;-0.7861;0.0550
0001101456;5.1715;1.8914;2.4588;0.2553;-0.7639;0.0490
0001101465;5.7485;2.0877;2.8874;0.3052;-0.7188;0.0682
0001101474;6.4596;2.4684;3.1963;0.3496;-0.6659;0.0857
0001101483;7.0006;2.8443;3.5171;0.3830;-0.6182;0.1066
0001101492;7.5968;3.3064;3.8427;0.3672;-0.5352;0.1334
0001101501;7.7692;3.7517;3.9911;0.3376;-0.4519;0.1448
0001101510;7.5298;3.9409;4.1635;0.2799;-0.3667;0.1637
0001101519;7.2257;3.8211;4.1659;0.2161;-0.2862;0.1728
0001101528;6.6966;3.6488;4.0893;0.1692;-0.2338;0.1797
0001101537;6.2704;3.5362;4.0510;0.1399;-0.1919;0.2086
0001101546;5.7006;3.1771;3.8666;0.1420;-0.1801;0.2369
0001101555;5.7006;3.0311;3.8954;0.1291;-0.1787;0.2683
0001101564;5.6407;2.9640;3.7326;0.1364;-0.2048;0.2818
0001101573;5.6790;2.9521;3.7206;0.1508;-0.2237;0.3019
0001101582;5.9304;2.9664;3.5314;0.1625;-0.2304;0.3010
0001101591;6.2776;3.2585;3.5554;0.1769;-0.2137;0.2952
0001101600;6.0286;3.0813;3.6536;0.1998;-0.1916;0.2789
0001101609;6.7181;3.6583;3.4069;0.2178;-0.1539;0.2742
0001101618;6.7038;3.6583;3.1939;0.2361;-0.1212;0.2722
0001101627;6.9097;3.8403;3.1029;0.2381;-0.0939;0.2810
0001101636;6.9791;3.8116;3.0885;0.2302;-0.0683;0.3047
0001101645;6.6966;3.6200;2.9616;0.2241;-0.0626;0.3107
0001101654;6.4907;3.5961;2.7461;0.1974;-0.0473;0.3293
0001101663;6.3111;3.6799;2.7390;0.1708;-0.0372;0.3309
0001101672;6.0932;3.7038;2.7485;0.1450;-0.0284;0.3084
0001101681;6.0358;3.6775;2.8276;0.1118;-0.0173;0.2843
0001101690;5.9137;3.6512;2.9042;0.0866;-0.0183;0.2346
0001101778;6.8881;2.9042;2.5474;-0.1144;0.1006;0.2618
0001101787;6.7349;2.8036;2.5211;-0.1490;0.1090;0.2594
0001101796;6.7612;2.9233;2.4157;-0.1667;0.1037;0.2526
0001101805;6.8187;2.9999;2.4708;-0.1841;0.1054;0.2405
0001101814;6.5074;2.7701;2.5546;-0.1651;0.0971;0.2088
0001101823;6.6152;2.5690;2.4014;-0.1671;0.1090;0.1900
0001101832;6.6655;2.4732;2.4684;-0.1633;0.1247;0.1787
0001101841;6.7756;2.4493;2.3032;-0.1499;0.1306;0.1683
0001101850;6.7852;2.5019;2.2697;-0.1478;0.1472;0.1629
0001101859;7.0006;2.6719;2.1189;-0.1474;0.1628;0.1651
0001101868;7.0318;2.7102;2.0734;-0.1621;0.1821;0.1703
0001101877;7.1156;2.8299;2.2553;-0.1720;0.1961;0.1779
0001101886;7.1658;2.7940;2.2769;-0.1800;0.2050;0.1763
0001101895;7.2520;2.9449;2.2841;-0.1966;0.2104;0.1789
0001101904;7.0725;2.7988;2.3990;-0.2128;0.2096;0.1685
0001101913;7.0820;2.8012;2.4134;-0.2261;0.2178;0.1641
0001101922;7.2233;2.8826;2.4636;-0.2269;0.2077;0.1507
0001101931;6.8522;2.4445;2.3128;-0.2174;0.1935;0.1463
0001101940;6.7612;2.2458;2.3679;-0.2194;0.1966;0.1382
0001101949;6.8761;2.2601;2.3703;-0.2042;0.1965;0.1322
0001101958;7.0653;2.3439;2.2889;-0.1943;0.2136;0.1351
0001101967;7.1036;2.2769;2.2889;-0.1668;0.2292;0.1380
0001101976;7.2113;2.2913;2.2314;-0.1577;0.2529;0.1585
0001101985;7.3167;2.1428;2.1524;-0.1351;0.2625;0.1705
0001101994;7.6064;2.2146;2.2601;-0.1164;0.2891;0.1917
0001102003;7.5968;2.2865;2.2984;-0.1010;0.3123;0.2020
0001102012;7.6495;2.1955;2.2984;-0.0859;0.3239;0.2042
0001102021;7.6734;2.2003;2.2601;-0.0887;0.3528;0.2124
0001102030;7.7093;2.3320;2.2577;-0.0805;0.3697;0.2168
0001102039;7.4843;2.2338;2.2170;-0.0714;0.3892;0.2049
0001102048;7.4268;2.2362;2.3224;-0.0641;0.4133;0.1933
0001102057;7.0749;2.1452;2.2721;-0.0510;0.4314;0.1637
0001102066;6.9528;1.9417;2.3272;-0.0410;0.4402;0.1553
0001102075;7.0749;2.1332;2.3846;-0.0397;0.4449;0.1510
0001102084;6.9983;2.1763;2.6624;-0.0310;0.4359;0.1502
0001102093;7.0820;2.0399;2.7773;-0.0410;0.4358;0.1584
0001102102;6.9767;2.1356;2.8970;-0.0370;0.4283;0.1659
0001102111;6.8570;2.1069;2.8587;-0.0342;0.4311;0.1685
0001102120;7.0102;2.1811;2.8323;-0.0248;0.4277;0.1672
0001102129;7.0557;2.3750;2.7366;-0.0246;0.4413;0.1692
0001102138;6.9719;2.2745;2.7078;-0.0165;0.4454;0.1636
0001102147;7.0413;2.2075;2.8108;-0.0204;0.4535;0.1541
0001102156;6.9863;2.2003;2.7533;-0.0116;0.4642;0.1278
0001102165;7.0581;1.9609;2.7557;-0.0097;0.4875;0.1136
0001102174;6.9073;1.8675;2.7342;0.0087;0.4978;0.0785
0001102183;6.8354;1.7957;2.9257;0.0248;0.5123;0.0566
0001102192;6.7157;1.7502;3.3878;0.0342;0.5096;0.0309
0001102201;6.6343;2.0087;3.7182;0.0545;0.5016;0.0085
0001102210;6.2656;2.0351;3.7541;0.0822;0.4848;-0.0173
0001102219;6.0525;2.2170;3.7254;0.0915;0.4694;-0.0112
0001102228;5.9233;2.3703;3.8714;0.0827;0.4490;-0.0091
0001102237;5.7557;2.5043;4.0821;0.0632;0.4120;0.0020
0001102246;5.9256;2.6025;4.1228;0.0305;0.3786;0.0213
0001102255;5.9256;2.6073;4.0534;-0.0075;0.3472;0.0332
0001102264;5.7892;2.3343;4.0438;-0.0430;0.3172;0.0465
0001102273;6.1411;2.4732;4.1444;-0.0858;0.2887;0.0582
0001102282;6.1004;2.3535;4.1013;-0.1124;0.2405;0.0522
0001102291;6.2058;2.4110;3.9289;-0.1263;0.2046;0.0510
0001102300;5.8131;2.2122;3.8690;-0.1328;0.1496;0.0302
0001102309;5.5545;2.2625;3.9816;-0.1208;0.0979;-0.0003
0001102318;5.3726;2.1308;3.8930;-0.1171;0.0593;-0.0288
0001102327;5.3774;2.3583;3.9241;-0.1006;0.0133;-0.0683
0001102336;5.3175;2.4014;3.7661;-0.0961;-0.0352;-0.0914
0001102345;5.6527;2.3224;3.7086;-0.1082;-0.0581;-0.1144
0001102354;5.9664;2.2362;3.6224;-0.1402;-0.0549;-0.1206
0001102363;6.5984;2.0494;3.3615;-0.1561;-0.0385;-0.1450
0001102372;7.0605;1.8292;3.1939;-0.1772;-0.0073;-0.1549
0001102381;7.2329;1.4940;3.0837;-0.2025;0.0361;-0.1667
0001102390;7.7333;1.4748;2.8419;-0.2136;0.0941;-0.1783
0001102399;7.5082;1.2761;2.8419;-0.2168;0.1529;-0.1857
0001102408;7.7572;1.3671;2.7557;-0.2122;0.2050;-0.1780
0001102417;7.4148;1.4988;2.8778;-0.1929;0.2441;-0.1721
0001102426;6.9959;1.5490;3.0430;-0.1853;0.2757;-0.1476
0001102435;6.7253;1.9513;3.1484;-0.1859;0.2916;-0.1138
0001102522;7.2137;2.2362;2.3583;-0.2674;0.2747;-0.1402
0001102531;7.4029;2.1428;2.1931;-0.2495;0.3408;-0.1789
0001102540;7.5800;2.1644;2.1524;-0.2276;0.3962;-0.1965
0001102549;7.5513;2.2410;2.3032;-0.2125;0.4535;-0.1749
0001102558;7.2042;2.6552;2.3846;-0.1877;0.4910;-0.1416
0001102567;7.0964;2.9975;2.5067;-0.1899;0.5143;-0.1011
0001102576;6.7301;3.2513;2.7438;-0.2078;0.5243;-0.0754
0001102585;6.5888;3.3279;2.9880;-0.2390;0.5344;-0.0422
0001102594;6.4548;3.2178;2.9425;-0.2574;0.5352;-0.0390
0001102603;6.2584;2.9616;2.8108;-0.2798;0.5502;-0.0454
0001102612;6.2201;2.5594;2.7725;-0.2581;0.5624;-0.0592
0001102621;6.3638;2.2434;2.5929;-0.2166;0.5907;-0.0814
0001102630;6.2824;1.9896;2.6647;-0.1468;0.6118;-0.1025
0001102639;6.5434;2.0901;2.8467;-0.0842;0.6359;-0.1054
0001102648;6.5984;2.3918;2.9497;-0.0420;0.6418;-0.0923
0001102657;6.3758;2.6456;3.1316;-0.0356;0.6503;-0.0584
0001102666;6.5577;3.1364;3.1675;-0.0585;0.6547;-0.0276
0001102675;6.2513;3.0861;3.1125;-0.1095;0.6598;0.0036
0001102684;6.0094;2.8539;2.9856;-0.1575;0.6652;0.0157
0001102693;5.7437;2.3655;2.9760;-0.1907;0.6676;0.0131
0001102702;5.5905;2.1069;3.0119;-0.1904;0.6715;-0.0071
0001102711;5.3271;2.0830;3.0933;-0.1700;0.6604;-0.0296
0001102720;5.0542;1.8771;3.1436;-0.1307;0.6472;-0.0653
0001102729;5.1188;2.1428;3.0670;-0.1059;0.6351;-0.0890
0001102738;5.1547;2.4565;3.1101;-0.0906;0.6219;-0.1058
0001102747;5.2433;2.5570;3.2202;-0.0918;0.6003;-0.1082
0001102756;5.5785;2.7485;3.0502;-0.1027;0.5828;-0.0907
0001102765;5.6120;2.4636;3.1149;-0.1195;0.5509;-0.0747
0001102774;5.4061;2.3152;3.0143;-0.1488;0.5267;-0.0425
0001102783;5.5043;2.0063;2.7821;-0.1761;0.5033;-0.0244
0001102792;5.2002;1.6376;2.6624;-0.1604;0.4930;-0.0298
0001102801;5.0135;1.7119;2.8060;-0.1011;0.4676;-0.0516
0001102810;4.6759;1.7454;2.7892;-0.0421;0.4353;-0.0549
0001102819;4.2138;1.9249;2.8515;0.0196;0.3834;-0.0433
0001102828;3.9289;2.1811;2.9425;0.0775;0.3275;-0.0316
0001102837;3.8858;2.3272;2.7988;0.1099;0.2803;-0.0224
0001102846;3.9480;2.2625;2.7054;0.1009;0.2489;-0.0281
0001102855;4.2976;2.2936;2.5881;0.0939;0.2238;-0.0568
0001102864;4.5562;1.9321;2.4876;0.0830;0.2173;-0.0775
0001102873;4.8267;1.9848;2.5259;0.0875;0.2202;-0.1053
0001102882;5.0733;2.1907;2.6121;0.0919;0.2365;-0.1376
0001102891;4.9752;2.4636;2.7653;0.1069;0.2397;-0.1712
0001102900;4.9704;2.7438;2.8922;0.1098;0.2325;-0.1731
0001102909;4.6064;2.9688;2.7078;0.0917;0.2148;-0.1789
0001102918;4.4341;2.9640;2.7294;0.0753;0.1772;-0.1753
0001102927;4.0438;2.6480;2.6504;0.0460;0.1404;-0.1815
0001102936;3.8618;2.5115;2.4780;0.0328;0.1013;-0.2046
0001102945;3.7924;1.8459;2.3343;0.0405;0.0713;-0.2321
0001102954;4.0414;1.7980;2.4157;0.0735;0.0456;-0.2417
0001102963;3.8714;1.5419;2.2458;0.1246;0.0057;-0.2434
0001102972;4.2569;1.7741;2.3990;0.1700;-0.0153;-0.2241
0001102981;4.6088;2.1548;2.3583;0.2040;-0.0448;-0.1978
0001102990;4.3886;2.3535;2.3056;0.2116;-0.0715;-0.1731
0001102999;4.6352;2.8036;2.5019;0.1989;-0.0947;-0.1486
0001103008;4.5035;2.8730;2.5067;0.1632;-0.1180;-0.1280
0001103017;4.4460;2.6791;2.4660;0.1098;-0.1280;-0.1053
0001103026;4.4436;2.3104;2.2984;0.0829;-0.1503;-0.0985
0001103035;4.5298;2.0399;2.1691;0.0653;-0.1552;-0.0963
0001103044;4.4245;1.8555;2.1452;0.0693;-0.1708;-0.0798
0001103053;4.6807;1.8052;2.3846;0.0858;-0.1933;-0.0874
0001103062;4.4508;1.9489;2.5546;0.1107;-0.2395;-0.0962
0001103071;4.2018;2.0590;2.5283;0.1295;-0.2721;-0.0966
0001103080;3.9983;2.3080;2.5762;0.1412;-0.3166;-0.1021
0001103089;3.9073;2.3176;2.4253;0.1452;-0.3496;-0.0882
0001103098;3.7948;2.3511;2.1931;0.1543;-0.3820;-0.0849
0001103107;3.9289;2.5019;2.0518;0.1520;-0.4084;-0.0634
0001103116;4.3144;2.5426;2.2817;0.1290;-0.4270;-0.0448
0001103125;4.5993;2.5498;2.4972;0.1022;-0.4426;-0.0346
0001103134;4.6711;2.5091;2.5043;0.0909;-0.4666;-0.0374
0001103143;4.7166;2.6193;2.6959;0.0687;-0.4818;-0.0381
0001103152;4.5586;2.6097;2.8587;0.0597;-0.5129;-0.0426
0001103161;4.3455;2.7294;2.8754;0.0506;-0.5496;-0.0334
0001103170;3.9265;2.9425;2.7725;0.0508;-0.6066;-0.0269
0001103316;4.7070;1.9992;3.5626;-0.2152;-1.4103;-0.0472
0001103325;5.0733;2.0111;3.5195;-0.2320;-1.4012;-0.0865
0001103334;5.1787;1.9632;3.5051;-0.2301;-1.3963;-0.1154
0001103343;5.2960;1.9345;3.5721;-0.2074;-1.3751;-0.1296
0001103352;5.6407;2.0087;3.6847;-0.1776;-1.3511;-0.1450
0001103361;5.7197;1.9585;3.5506;-0.1439;-1.3203;-0.1796
0001103370;5.8514;1.8818;3.5434;-0.1148;-1.2745;-0.2080
0001103379;6.3470;2.0016;3.5458;-0.0946;-1.2153;-0.2306
0001103388;6.6248;2.0590;3.6631;-0.0624;-1.1550;-0.2340
0001103397;6.9336;1.9513;3.6152;-0.0221;-1.0745;-0.2272
0001103406;7.0701;1.8316;3.5410;0.0163;-0.9962;-0.1900
0001103415;7.3071;1.9632;3.7421;0.0597;-0.9130;-0.1412
0001103424;7.2305;1.9465;3.9241;0.1063;-0.8411;-0.1085
0001103433;7.4579;2.3870;3.8307;0.1240;-0.7493;-0.0709
0001103442;7.4867;2.6288;3.7804;0.1347;-0.6875;-0.0433
0001103451;7.4651;2.5570;3.8307;0.1396;-0.6255;-0.0088
0001103460;7.4053;2.6983;4.0989;0.1395;-0.5621;0.0217
0001103469;7.0270;2.7222;4.5657;0.1613;-0.5008;0.0228
0001103478;6.6655;3.0909;4.9440;0.1852;-0.4213;0.0216
0001103487;6.7133;3.6607;5.0757;0.2102;-0.3336;0.0165
0001103496;7.0557;4.1468;4.9680;0.2350;-0.2395;0.0029
0001103505;7.5489;4.3766;4.7908;0.2336;-0.1556;-0.0088
0001103514;7.9871;4.4556;4.4149;0.2181;-0.0982;-0.0165
0001103523;7.8841;4.0055;4.3239;0.1859;-0.0633;0.0113
0001103532;7.3310;3.3423;4.1755;0.1707;-0.0646;0.0421
0001103541;6.8881;3.0071;3.9361;0.1572;-0.0665;0.0865
0001103550;5.7748;2.5809;4.0797;0.1549;-0.0914;0.1203
0001103559;5.2433;2.5211;3.9816;0.1459;-0.1230;0.1383
0001103568;5.2816;2.9042;4.0582;0.1222;-0.1615;0.1414
0001103577;5.5234;2.9664;4.2306;0.0931;-0.2008;0.1392
0001103586;5.6383;3.1963;4.3024;0.0727;-0.2364;0.1128
0001103595;6.1220;3.1316;4.3167;0.0309;-0.2501;0.0969
0001103604;6.3901;2.9760;4.3120;0.0128;-0.2497;0.0763
0001103613;6.8881;2.8180;4.1444;0.0129;-0.2133;0.0687
0001103622;7.3191;2.6552;4.0438;0.0120;-0.1735;0.0794
0001103631;7.6614;2.6911;3.8762;0.0153;-0.1308;0.1047
0001103640;7.8697;2.4684;3.8427;0.0124;-0.0741;0.1555
0001103649;7.9655;2.4924;3.7086;0.0176;-0.0309;0.1924
0001103658;8.1499;2.5881;3.6536;0.0076;0.0172;0.2439
0001103667;7.9080;2.6815;3.6320;-0.0003;0.0480;0.2710
0001103676;7.6351;2.7102;3.5865;-0.0092;0.0725;0.2910
0001103685;7.3095;2.6695;3.4836;-0.0278;0.0906;0.2959
0001103694;6.8163;2.3894;3.4333;-0.0273;0.0933;0.2786
0001103703;6.7684;2.3966;3.4620;-0.0290;0.0878;0.2663
0001103712;6.8522;2.3655;3.3639;-0.0313;0.0889;0.2629
0001103721;6.8642;2.1380;3.2872;-0.0145;0.0737;0.2566
0001103730;6.8953;2.1476;3.1963;-0.0111;0.0698;0.2670
0001103739;6.9959;2.0949;3.1771;-0.0081;0.0606;0.2661
0001103748;7.4005;2.3128;3.1316;-0.0195;0.0705;0.2671
0001103757;7.4939;2.4062;3.1173;-0.0396;0.0767;0.2586
0001103766;7.4603;2.2936;3.1675;-0.0620;0.0835;0.2437
0001103775;7.4053;2.1093;3.1891;-0.0893;0.0833;0.2218
0001103784;7.3741;2.0183;3.2825;-0.1146;0.0929;0.1996
0001103793;7.2137;2.0111;3.1651;-0.1228;0.0882;0.1732
0001103802;7.0892;1.7621;3.1795;-0.1130;0.0837;0.1561
0001103811;6.9599;1.7310;2.9616;-0.0917;0.0755;0.1391
0001103820;6.8738;1.6185;2.9018;-0.0725;0.0622;0.1220
0001103829;6.9552;1.6568;2.8252;-0.0541;0.0581;0.1180
0001103838;7.1204;1.8148;2.8084;-0.0305;0.0544;0.1041
0001103847;7.2688;1.8196;2.8252;-0.0220;0.0560;0.0891
0001103856;7.4196;1.8938;2.9856;-0.0293;0.0711;0.0890
0001103865;7.7117;2.0997;3.0071;-0.0352;0.0894;0.0834
0001103874;7.8769;2.1356;3.0263;-0.0424;0.1131;0.0898
0001103883;8.0158;2.1668;3.0430;-0.0496;0.1314;0.0866
0001103892;7.9918;2.0997;3.0478;-0.0565;0.1639;0.0894
0001103901;7.9080;1.8866;3.0263;-0.0517;0.1907;0.0870
0001103910;7.7907;2.1045;2.9688;-0.0342;0.2233;0.0839
0001103919;7.7452;2.0734;3.0742;-0.0220;0.2467;0.0797
0001103928;7.5968;2.0470;3.1771;-0.0156;0.2605;0.0775
0001103937;7.4244;2.0853;3.2226;-0.0281;0.2751;0.0811
0001103946;7.3287;2.0518;3.3303;-0.0560;0.2895;0.0779
0001103955;7.1611;1.8794;3.1651;-0.0616;0.2795;0.0572
0001103964;7.3310;1.9537;3.2226;-0.0638;0.2862;0.0436
0001103973;7.3119;1.8364;3.0909;-0.0497;0.2976;0.0254
0001104061;7.0509;1.8387;3.5937;0.0131;0.3039;-0.0695
0001104070;7.1180;1.7549;3.5554;0.0332;0.3171;-0.0910
0001104079;6.8307;1.6376;3.5458;0.0750;0.3196;-0.1077
0001104088;6.8618;1.7142;3.5171;0.0999;0.3239;-0.1186
0001104097;6.7181;1.7861;3.5937;0.1303;0.3048;-0.1327
0001104106;6.5362;1.8076;3.6057;0.1464;0.2842;-0.1355
0001104115;6.4380;2.0039;3.6536;0.1561;0.2554;-0.1363
0001104124;6.2177;1.8483;3.8810;0.1572;0.2348;-0.1463
0001104133;6.3494;2.0207;4.2186;0.1668;0.2204;-0.1600
0001104142;6.3470;2.2577;4.6807;0.1879;0.2020;-0.1667
0001104151;6.3327;2.7509;4.8746;0.2085;0.1831;-0.1514
0001104160;6.3303;3.1484;5.0206;0.2078;0.1491;-0.1170
0001104169;6.3063;3.5410;5.0422;0.1868;0.1160;-0.0589
0001104178;6.2608;3.6727;4.8842;0.1462;0.1005;0.0025
0001104187;6.4260;3.4429;4.6040;0.0934;0.0881;0.0462
0001104196;6.7133;2.9449;4.3455;0.0437;0.0943;0.0903
0001104205;6.9025;2.3080;4.1851;0.0260;0.1005;0.1081
0001104214;7.1635;1.9154;3.8834;0.0091;0.1306;0.1136
0001104223;7.4172;1.5012;3.5961;-0.0049;0.1601;0.1115
0001104232;7.9296;1.3958;3.3423;-0.0047;0.2053;0.0950
0001104241;8.2911;1.5347;3.1053;-0.0085;0.2557;0.0686
0001104250;8.3079;1.5467;3.0837;-0.0169;0.3250;0.0312
0001104259;8.2265;1.4150;3.1268;-0.0289;0.4048;-0.0085
0001104268;8.1882;1.5107;2.9856;-0.0440;0.4922;-0.0358
0001104277;7.9009;1.3431;3.0885;-0.0542;0.5557;-0.0420
0001104286;7.7261;1.4222;3.3615;-0.0689;0.6049;-0.0023
0001104295;6.9552;1.4485;3.4884;-0.0590;0.6343;0.0502
0001104304;6.5170;1.3431;3.8164;-0.0401;0.6522;0.1062
0001104313;6.0908;1.5634;4.0749;-0.0353;0.6555;0.1572
0001104322;5.7150;1.7214;4.0342;-0.0168;0.6454;0.1932
0001104331;5.6336;1.9776;3.9145;-0.0083;0.6221;0.2110
0001104340;5.6240;2.2553;3.9480;-0.0037;0.5903;0.2130
0001104349;5.7150;2.5139;3.9265;-0.0200;0.5513;0.2110
0001104358;5.3750;2.3224;3.8858;-0.0306;0.5092;0.1819
0001104367;5.2744;2.0518;3.7948;-0.0424;0.4743;0.1490
0001104376;5.3415;1.8866;3.6607;-0.0441;0.4474;0.1155
0001104385;5.2457;1.5155;3.5386;-0.0187;0.3997;0.0782
0001104394;5.2936;1.2785;3.5219;0.0027;0.3722;0.0510
0001104403;5.1834;1.0678;3.5123;0.0185;0.3367;0.0292
0001104412;5.2194;1.2186;3.5458;0.0330;0.3104;-0.0008
0001104421;5.5091;1.2977;3.5147;0.0474;0.2770;-0.0173
0001104430;5.5091;1.4054;3.1939;0.0458;0.2503;-0.0149
0001104439;5.5689;1.2713;2.9760;0.0430;0.2206;-0.0155
0001104448;5.6719;1.1253;3.0215;0.0574;0.1875;-0.0135
0001104457;5.3391;1.0199;2.8299;0.0654;0.1755;-0.0238
0001104466;5.2265;1.0223;2.5426;0.0777;0.1486;-0.0456
0001104475;5.2888;0.8691;2.6647;0.0949;0.1424;-0.0774
0001104484;5.2074;0.9457;2.3056;0.1231;0.1482;-0.1284
0001104493;5.3678;0.8978;1.9513;0.1527;0.1777;-0.1884
0001104502;5.4181;0.8188;2.0518;0.2026;0.2073;-0.2597
0001104511;5.4636;0.8260;2.0997;0.2713;0.2232;-0.3099
0001104520;5.7772;1.4844;2.0925;0.3291;0.2344;-0.3258
0001104529;5.6072;2.0542;2.4134;0.3750;0.2129;-0.3244
0001104538;5.6168;2.8970;2.3870;0.3808;0.1966;-0.2871
0001104547;5.4636;3.2633;2.5857;0.3356;0.1805;-0.2358
0001104556;5.5522;3.4860;2.6624;0.2615;0.1687;-0.2049
0001104565;5.5809;3.1340;2.4253;0.1961;0.1755;-0.2010
0001104574;5.5976;2.6288;2.5618;0.1444;0.1791;-0.2054
0001104583;5.6168;2.0494;2.4134;0.1459;0.1673;-0.2148
0001104592;5.5522;1.6472;2.2889;0.1800;0.1813;-0.2189
0001104601;5.6910;1.6879;2.2913;0.2462;0.1828;-0.2348
0001104610;5.8299;2.0231;2.2936;0.2952;0.1941;-0.2189
0001104619;6.0741;2.5809;2.1189;0.3202;0.1909;-0.1924
0001104628;6.2441;3.1364;2.1476;0.3012;0.2005;-0.1547
0001104637;6.3853;3.4716;2.3798;0.2627;0.2004;-0.1308
0001104646;6.1675;3.4261;2.2362;0.2098;0.2148;-0.1043
0001104655;6.0669;3.2513;2.2625;0.1450;0.2198;-0.0913
0001104664;5.8873;2.9066;2.0686;0.1037;0.2357;-0.0954
0001104673;5.7078;2.4541;1.9201;0.0901;0.2605;-0.1054
0001104682;5.5234;2.0758;2.0327;0.1077;0.2793;-0.1194
0001104691;5.5545;2.2841;2.0782;0.1435;0.2789;-0.1210
0001104700;5.3534;2.3631;2.0207;0.1676;0.2747;-0.1018
0001104709;5.3223;2.4684;2.0901;0.1784;0.2830;-0.0939
0001104718;5.4420;2.4684;2.1189;0.1777;0.2842;-0.0781
0001104727;5.5378;2.5259;1.8555;0.1544;0.2761;-0.0669
0001104814;4.9129;3.0526;2.1213;0.0717;0.1551;0.0250
0001104823;5.1188;2.6791;1.9704;0.0570;0.1510;0.0160
0001104832;5.3391;2.4469;1.8555;0.0663;0.1515;-0.0024
0001104841;5.3415;2.3080;1.6161;0.0913;0.1462;-0.0189
0001104850;5.5306;2.8754;1.6520;0.1167;0.1447;-0.0164
0001104859;5.3415;3.5602;1.9704;0.1370;0.1202;0.0044
0001104868;5.1882;4.3622;2.2960;0.1251;0.0865;0.0496
0001104877;4.9632;5.0901;2.5091;0.0790;0.0454;0.0905
0001104886;4.9249;5.0733;2.4612;-0.0103;0.0105;0.1005
0001104895;4.8171;4.4317;2.2625;-0.1127;-0.0277;0.0602
0001104904;4.8147;3.1580;2.0183;-0.1847;-0.0408;0.0059
0001104913;4.6783;1.9896;1.8938;-0.1871;-0.0695;-0.0618
0001104922;4.6878;1.4772;1.8124;-0.1306;-0.1170;-0.1315
0001104931;4.2713;1.0678;1.7813;-0.0488;-0.1511;-0.1772
0001104940;3.8571;1.2929;1.8435;0.0501;-0.2104;-0.2192
0001104949;3.8642;2.0782;1.8124;0.1352;-0.2670;-0.2146
0001104958;3.8403;2.8299;1.9130;0.1711;-0.3403;-0.1833
0001104967;4.1587;3.6057;2.2051;0.1645;-0.4058;-0.1516
0001104976;4.4891;3.8882;2.1931;0.1047;-0.4394;-0.1162
0001104985;4.9129;3.7828;2.2913;0.0197;-0.4535;-0.1183
0001104994;5.2696;3.3615;2.2577;-0.0600;-0.4317;-0.1375
0001105003;5.6910;2.7629;2.1835;-0.1090;-0.3989;-0.1584
0001105012;5.7030;2.3248;2.1021;-0.0985;-0.3668;-0.1800
0001105021;5.5689;1.8004;1.8723;-0.0514;-0.3312;-0.1708
0001105030;5.2218;1.9273;1.7214;0.0264;-0.3143;-0.1605
0001105039;5.0925;2.3966;1.7933;0.0859;-0.3251;-0.1122
0001105048;4.7692;2.7964;1.8794;0.1335;-0.3669;-0.0500
0001105057;4.9273;3.4812;1.8699;0.1347;-0.4097;0.0140
0001105066;4.8698;3.6895;1.9656;0.0995;-0.4513;0.0476
0001105075;4.9632;3.7948;2.2673;0.0318;-0.4880;0.0590
0001105084;5.2529;3.5195;2.2936;-0.0332;-0.5175;0.0434
0001105093;5.2409;3.0454;2.2553;-0.0902;-0.5183;0.0043
0001105102;5.2481;2.3966;2.3296;-0.1046;-0.5183;-0.0532
0001105111;5.2265;2.1883;2.3607;-0.0750;-0.4939;-0.1058
0001105120;5.2792;2.1452;2.4181;-0.0173;-0.4746;-0.1335
0001105129;5.4588;2.3248;2.5594;0.0472;-0.4703;-0.1226
0001105138;5.7868;2.4038;2.7438;0.0935;-0.4483;-0.0766
0001105147;6.3135;3.0215;2.8515;0.1224;-0.4305;-0.0119
0001105156;6.8043;3.4884;3.0502;0.1045;-0.3954;0.0450
0001105165;7.1419;3.7014;3.1532;0.0550;-0.3583;0.0805
0001105174;7.1275;3.5458;3.4477;-0.0123;-0.3006;0.0849
0001105183;7.1611;3.4548;3.4979;-0.0890;-0.2368;0.0799
0001105192;6.6343;2.8730;3.4836;-0.1380;-0.1867;0.0520
0001105201;6.3590;2.6456;3.3734;-0.1504;-0.1346;0.0362
0001105210;5.7461;2.1835;3.2250;-0.1316;-0.0799;0.0298
0001105219;5.8442;2.2984;3.2417;-0.0751;-0.0580;0.0230
0001105228;5.8179;2.3583;3.0167;-0.0229;-0.0496;0.0257
0001105237;6.0190;2.8898;2.9568;-0.0007;-0.0629;0.0131
0001105246;5.9017;3.1364;3.0861;-0.0338;-0.0790;-0.0009
0001105255;5.7533;3.3208;3.2657;-0.0665;-0.1124;-0.0320
0001105264;5.4348;3.4357;3.4405;-0.1295;-0.1178;-0.0532
0001105273;4.9704;3.5027;3.6823;-0.1656;-0.1351;-0.0819
0001105282;4.3455;3.0813;3.8188;-0.1899;-0.1410;-0.0755
0001105291;4.2329;3.1747;3.8834;-0.1941;-0.1623;-0.0773
0001105300;4.4317;3.0358;3.8116;-0.1831;-0.1908;-0.0697
0001105309;4.4939;2.8252;3.7733;-0.1745;-0.2129;-0.0608
0001105318;4.8243;2.6815;3.7804;-0.1655;-0.2399;-0.0508
0001105327;5.1260;2.5450;3.7709;-0.1367;-0.2739;-0.0452
0001105336;4.9991;2.4469;3.6727;-0.1022;-0.2970;-0.0393
0001105345;4.9153;2.6288;3.8571;-0.0822;-0.3084;-0.0326
0001105354;4.8100;2.9042;3.9552;-0.0866;-0.3226;-0.0441
0001105363;5.2337;3.5291;3.9552;-0.1035;-0.3415;-0.0505
0001105372;5.3606;3.6392;3.8666;-0.1210;-0.3585;-0.0657
0001105381;5.1882;3.6009;3.9935;-0.1549;-0.3774;-0.0699
0001105390;5.2026;3.5027;3.9289;-0.1974;-0.3997;-0.0823
0001105399;4.9225;3.2944;3.8020;-0.2407;-0.4159;-0.0919
0001105408;5.0542;3.0646;3.4860;-0.2695;-0.4375;-0.1077
0001105417;5.0733;2.6767;3.2226;-0.2844;-0.4534;-0.1190
0001105426;4.9249;2.2865;3.0263;-0.2746;-0.4576;-0.1150
0001105435;5.1787;2.1237;3.0263;-0.2445;-0.4542;-0.1203
0001105444;5.3702;2.1691;2.9521;-0.1864;-0.4486;-0.1226
0001105453;5.6838;2.5067;2.9808;-0.1432;-0.4335;-0.1246
0001105462;5.7700;2.5594;2.9808;-0.1087;-0.4089;-0.1156
0001105550;5.4516;2.5594;2.7509;-0.0779;-0.1543;0.0045
0001105559;5.6383;2.5043;2.6647;-0.0644;-0.1541;-0.0007
0001105568;5.8203;2.4110;2.4995;-0.0530;-0.1470;-0.0049
0001105577;5.8849;2.3032;2.3846;-0.0322;-0.1338;-0.0061
0001105586;6.3494;2.3128;2.2625;-0.0188;-0.1214;-0.0117
0001105595;6.3949;2.0758;2.2194;-0.0067;-0.1002;-0.0097
0001105604;6.7493;2.2434;2.2841;-0.0097;-0.0715;-0.0067
0001105613;6.7349;2.2362;2.4541;-0.0025;-0.0532;-0.0095
0001105622;6.7708;2.2027;2.4660;-0.0047;-0.0262;-0.0025
0001105631;6.7636;2.1452;2.2577;0.0047;-0.0197;0.0028
0001105640;6.7038;2.1165;2.3296;0.0083;0.0096;0.0108
0001105649;6.6224;2.0734;2.3774;0.0197;0.0129;0.0092
0001105658;6.5410;2.1141;2.5307;0.0358;0.0165;0.0139
0001105667;6.4404;2.0997;2.5331;0.0537;0.0201;0.0152
0001105676;6.2608;2.1907;2.3320;0.0489;0.0289;0.0159
0001105685;6.2465;2.5331;2.3679;0.0277;0.0261;0.0043
0001105694;6.1363;2.6001;2.5833;-0.0041;0.0081;-0.0047
0001105703;6.3039;2.6815;2.5714;-0.0453;-0.0053;-0.0111
0001105712;6.0023;2.5067;2.6815;-0.0725;-0.0277;-0.0318
0001105721;5.8658;2.3655;2.7366;-0.0982;-0.0333;-0.0469
0001105730;5.9400;2.3200;2.7892;-0.1043;-0.0340;-0.0572
0001105739;5.7557;2.1596;2.8156;-0.0959;-0.0389;-0.0670
0001105748;5.9879;2.3080;2.7821;-0.0889;-0.0325;-0.0834
0001105757;5.9951;2.3272;2.6360;-0.0666;-0.0310;-0.0921
0001105766;5.8969;2.1165;2.5977;-0.0574;-0.0269;-0.1042
0001105775;5.9376;2.3583;2.9137;-0.0655;-0.0209;-0.1050
0001105784;5.9568;2.3750;3.1077;-0.0822;-0.0396;-0.1127
0001105793;6.0597;2.6312;3.3878;-0.1126;-0.0442;-0.1055
0001105802;5.8969;2.5857;3.5219;-0.1279;-0.0566;-0.1175
0001105811;5.8179;2.5546;3.7182;-0.1218;-0.0689;-0.1192
0001105820;5.8155;2.6624;3.7397;-0.1156;-0.0801;-0.1218
0001105829;5.6958;2.5307;3.3639;-0.1112;-0.0781;-0.1316
0001105838;5.3917;2.5115;3.2489;-0.1019;-0.0548;-0.1367
0001105847;5.6407;2.3631;3.7038;-0.0981;-0.0328;-0.1442
0001105856;5.4827;2.3224;4.3527;-0.0695;-0.0256;-0.1291
0001105865;5.3127;2.7054;4.6352;-0.0167;-0.0541;-0.0967
0001105874;5.0637;3.4046;4.3670;0.0079;-0.0883;-0.0298
0001105883;4.9344;3.9576;4.1899;-0.0063;-0.1259;0.0541
0001105892;4.9560;3.9863;3.8259;-0.0501;-0.1576;0.1207
0001105901;5.3175;3.3519;3.6081;-0.0958;-0.1727;0.1476
0001105910;5.8634;2.6001;3.2298;-0.1029;-0.1635;0.1246
0001105919;6.3877;1.9656;2.9808;-0.1077;-0.1283;0.0938
0001105928;6.7253;1.4150;2.7677;-0.0919;-0.0934;0.0640
0001105937;7.1323;1.1061;2.6647;-0.0678;-0.0445;0.0464
0001105946;7.6998;0.8643;2.5307;-0.0326;0.0121;0.0293
0001105955;7.7405;0.6393;2.2553;0.0000;0.0831;0.0286
0001105964;7.9703;0.7374;2.2601;0.0280;0.1613;0.0322
0001105973;8.0852;0.9218;2.4157;0.0349;0.2477;0.0528
0001105982;7.6327;1.2761;2.6504;0.0464;0.2931;0.0845
0001105991;6.7612;1.3575;2.8970;0.0398;0.3288;0.1372
0001106000;6.4835;1.9082;3.0406;0.0320;0.3277;0.1843
0001106009;5.7604;2.1859;3.3327;0.0181;0.3107;0.2317
0001106018;5.1068;2.5498;3.6512;0.0065;0.2874;0.2565
0001106027;4.6974;2.9904;3.8523;0.0139;0.2433;0.2527
0001106036;4.3000;3.2513;3.8571;0.0049;0.2097;0.2410
0001106045;4.0797;3.2441;3.7804;-0.0035;0.1796;0.2092
0001106054;4.4029;3.1603;3.6679;-0.0124;0.1616;0.1715
0001106063;4.7764;2.8730;3.4213;-0.0005;0.1500;0.1330
0001106072;5.1930;2.4708;3.2202;0.0195;0.1480;0.0959
0001106081;5.6096;2.1093;2.9521;0.0350;0.1599;0.0729
0001106090;5.9664;1.8052;2.8204;0.0694;0.1668;0.0488
0001106099;6.2321;1.8148;2.6552;0.0994;0.1896;0.0509
0001106108;5.9233;1.6759;2.6959;0.1230;0.2109;0.0428
0001106117;6.1339;2.0063;2.8012;0.1380;0.2209;0.0453
0001106126;5.8538;2.2697;2.8611;0.1563;0.2246;0.0370
0001106135;5.8873;2.5690;2.9736;0.1619;0.2316;0.0370
0001106144;5.7245;2.7581;3.0358;0.1512;0.2324;0.0273
0001106153;5.2409;2.8683;3.1316;0.1354;0.2358;0.0238
0001106162;5.1140;2.9616;3.1436;0.1199;0.2280;0.0059
0001106171;5.2050;3.0502;3.1220;0.1114;0.2074;-0.0152
0001106180;4.8507;2.5283;3.1388;0.1006;0.1929;-0.0192
0001106189;4.9273;2.5833;3.0071;0.1046;0.1805;-0.0308
0001106198;4.8578;2.5139;2.9209;0.1178;0.1668;-0.0353
0001106290;5.1068;1.6520;2.8539;-0.0064;0.0498;-0.0171
0001106299;4.7285;1.2115;2.6767;0.0228;0.0285;-0.0213
0001106308;4.8674;1.1851;2.6097;0.0689;-0.0176;-0.0389
0001106317;4.6902;1.1061;2.7557;0.0958;-0.0528;-0.0425
0001106326;4.7740;1.3024;2.7126;0.1104;-0.0997;-0.0488
0001106335;4.7621;1.4724;2.8276;0.1120;-0.1379;-0.0476
0001106344;4.8602;1.9465;2.8108;0.1055;-0.1711;-0.0613
0001106353;4.8052;1.9441;2.7438;0.0890;-0.1820;-0.0598
0001106362;4.7740;1.8771;2.5570;0.0958;-0.2010;-0.0641
0001106371;4.8459;1.7693;2.4636;0.1082;-0.2180;-0.0625
0001106380;4.9847;1.7621;2.4541;0.1094;-0.2449;-0.0500
0001106389;5.2912;1.8244;2.3774;0.1075;-0.2859;-0.0469
0001106398;5.3103;1.6712;2.3056;0.0947;-0.2996;-0.0442
0001106407;5.3463;1.4772;2.1835;0.0933;-0.3058;-0.0557
0001106416;5.3151;1.3647;2.2553;0.1059;-0.3084;-0.0802
0001106425;5.3726;1.2043;2.1739;0.1136;-0.3083;-0.0875
0001106434;5.3079;0.9625;1.9585;0.1392;-0.2924;-0.0943
0001106443;5.5761;1.1229;2.0327;0.1685;-0.2718;-0.1009
0001106452;5.5809;1.2043;1.9848;0.1931;-0.2613;-0.0998
0001106461;5.6455;1.5227;2.2290;0.1880;-0.2594;-0.0818
0001106470;5.5522;1.6831;2.1811;0.1681;-0.2494;-0.0588
0001106479;5.6575;1.8340;2.0351;0.1474;-0.2284;-0.0436
0001106488;5.5593;1.8316;2.1955;0.1112;-0.2189;-0.0365
0001106497;5.5498;1.8890;2.3296;0.0797;-0.2469;-0.0329
0001106506;5.6575;2.3487;2.1644;0.0552;-0.2625;0.0007
0001106515;5.2648;2.1931;2.3918;0.0481;-0.2923;0.0176
0001106524;5.1978;2.3750;2.5714;0.0115;-0.3276;0.0398
0001106533;5.0230;2.4469;2.8084;-0.0354;-0.3860;0.0398
0001106542;4.8985;2.3439;2.9018;-0.0951;-0.4402;0.0348
0001106551;4.9632;2.1165;2.7126;-0.1533;-0.4816;-0.0039
0001106560;4.9201;1.3096;2.2984;-0.1861;-0.4796;-0.0580
0001106569;4.9009;0.7135;1.9609;-0.1777;-0.4658;-0.1299
0001106578;5.0685;0.1437;1.4317;-0.1292;-0.4430;-0.1891
0001106587;5.4253;0.1221;1.4844;-0.0662;-0.4362;-0.2162
0001106596;5.6288;0.3280;1.5993;0.0061;-0.4361;-0.1871
0001106605;5.8203;0.8571;1.9848;0.0733;-0.4590;-0.1288
0001106614;6.0741;2.0542;2.3774;0.0918;-0.4674;-0.0486
0001106623;5.9065;2.8994;2.7270;0.0549;-0.4790;0.0169
0001106632;5.8466;3.5075;2.7509;-0.0141;-0.4762;0.0552
0001106641;5.6312;3.4357;2.7414;-0.0723;-0.4702;0.0683
0001106650;5.2864;2.9688;2.4804;-0.1160;-0.4578;0.0665
0001106659;5.4300;2.4469;2.1452;-0.1200;-0.4527;0.0506
0001106668;5.3247;2.0327;2.1332;-0.0986;-0.4489;0.0414
0001106677;5.4396;1.9992;2.1524;-0.0609;-0.4471;0.0422
0001106686;5.1404;2.0494;2.3463;-0.0172;-0.4537;0.0612
0001106695;5.4444;2.5043;2.5211;0.0119;-0.4668;0.0789
0001106704;5.7557;2.8084;2.5163;-0.0019;-0.4680;0.1130
0001106713;6.1675;2.9161;2.6456;-0.0440;-0.4682;0.1283
0001106722;6.4883;2.6767;2.4828;-0.0903;-0.4418;0.1424
0001106731;6.6200;2.3990;2.3966;-0.1242;-0.4085;0.1223
0001106740;6.7086;2.1045;2.3200;-0.1432;-0.3765;0.1051
0001106749;6.5793;2.0758;2.3343;-0.1528;-0.3405;0.0855
0001106758;6.0980;2.2098;2.3463;-0.1432;-0.3114;0.0742
0001106767;5.8897;2.6360;2.3200;-0.1496;-0.3054;0.0721
0001106776;5.4660;2.9329;2.6240;-0.1633;-0.3046;0.0759
0001106785;5.3510;3.2513;2.7078;-0.1651;-0.2943;0.0807
0001106794;5.5426;3.4644;2.5690;-0.1956;-0.2717;0.0947
0001106803;6.1866;3.5554;2.6264;-0.2236;-0.2579;0.1053
0001106812;6.7900;3.3160;2.4086;-0.2549;-0.2286;0.1246
0001106821;7.0509;2.6959;2.3152;-0.2631;-0.1911;0.1380
0001106830;7.7452;2.7318;2.3559;-0.2422;-0.1480;0.1617
0001106839;7.5226;2.5450;2.5666;-0.2112;-0.1031;0.1644
0001106848;7.2065;2.5426;2.9592;-0.1579;-0.0566;0.1649
0001106857;6.8378;3.1532;3.0670;-0.1087;-0.0245;0.1595
0001106866;6.6846;3.6727;3.4740;-0.0706;-0.0120;0.1490
0001106875;6.6535;4.3000;3.6847;-0.0442;-0.0105;0.1283
0001106884;6.8115;4.6352;3.5841;-0.0600;-0.0045;0.1078
0001106893;7.1084;4.7812;3.5243;-0.1073;-0.0024;0.0789
0001106902;7.1228;4.4173;3.5267;-0.1609;0.0023;0.0564
0001106911;7.2113;4.0797;3.5027;-0.1925;0.0087;0.0338
0001106920;6.8881;3.4764;3.4907;-0.1873;0.0040;0.0340
0001106929;6.8019;3.1460;3.2010;-0.1679;0.0028;0.0622
0001106938;6.5841;2.8970;3.1963;-0.1339;-0.0139;0.0982
0001106947;6.8761;2.8252;3.1173;-0.0766;-0.0181;0.1396
0001107035;7.2353;2.9544;3.1005;0.0915;0.3485;-0.0063
0001107044;6.4165;2.6624;3.2729;0.1147;0.3584;0.0121
0001107053;5.9256;2.8012;3.5123;0.1363;0.3540;0.0358
0001107062;5.3870;2.8491;3.5817;0.1404;0.3415;0.0422
0001107071;5.3630;3.2202;3.6823;0.1284;0.3279;0.0344
0001107080;5.5689;3.5051;3.7326;0.0846;0.3353;0.0069
0001107089;5.9711;3.6751;3.9887;0.0352;0.3324;-0.0294
0001107098;6.2728;3.6536;4.0342;-0.0212;0.3325;-0.0388
0001107107;6.4356;3.3615;3.8858;-0.0570;0.3320;-0.0426
0001107116;6.9360;3.1987;3.7637;-0.0596;0.3291;-0.0349
0001107125;6.8426;2.6887;3.5051;-0.0309;0.3331;-0.0217
0001107134;6.8977;2.5283;3.2944;-0.0057;0.3387;0.0003
0001107143;6.7421;2.4732;3.2513;0.0256;0.3457;0.0183
0001107152;6.8235;2.5331;3.1484;0.0397;0.3567;0.0428
0001107161;6.6056;2.8156;3.2801;0.0522;0.3553;0.0613
0001107170;6.5697;2.9664;3.3208;0.0473;0.3407;0.0729
0001107179;6.2776;2.9975;3.3399;0.0282;0.3256;0.0913
0001107188;6.3853;2.9784;3.2058;0.0061;0.2980;0.1058
0001107197;6.2752;2.9880;3.2896;-0.0023;0.2657;0.1059
0001107206;6.2297;2.8659;3.0765;-0.0176;0.2606;0.0963
0001107215;6.4596;2.8874;3.1340;-0.0141;0.2495;0.0839
0001107224;6.3829;2.6839;3.1005;-0.0179;0.2491;0.0687
0001107233;6.3518;2.7150;2.9712;-0.0240;0.2486;0.0681
0001107242;6.3566;2.8491;2.8946;-0.0289;0.2407;0.0663
0001107251;6.2752;2.6504;2.8036;-0.0269;0.2237;0.0649
0001107260;6.5745;2.9975;2.8012;-0.0213;0.2220;0.0799
0001107269;6.4332;2.6456;2.7773;-0.0115;0.2104;0.0793
0001107278;6.4739;2.7294;2.7964;-0.0052;0.1960;0.0786
0001107287;6.2896;2.6408;2.7390;0.0222;0.1844;0.0733
0001107296;6.3015;2.5067;2.7342;0.0400;0.1791;0.0713
0001107305;6.3422;2.5977;2.5714;0.0553;0.1757;0.0711
0001107314;6.4476;2.5977;2.4373;0.0586;0.1753;0.0731
0001107323;6.5745;2.6097;2.3343;0.0608;0.1763;0.0705
0001107332;6.3710;2.4134;2.2314;0.0566;0.1764;0.0578
0001107341;6.4739;2.5402;2.1596;0.0585;0.1804;0.0428
0001107350;6.6415;2.6935;2.0375;0.0542;0.1863;0.0250
0001107359;6.5481;2.4972;2.0063;0.0743;0.1916;0.0088
0001107368;6.3734;2.4325;1.9249;0.0873;0.2092;0.0064
0001107377;6.3446;2.4421;1.9800;0.1026;0.2206;-0.0017
0001107386;6.5122;2.4373;2.0183;0.0894;0.2443;0.0032
0001107395;6.7038;2.5498;2.1596;0.0802;0.2645;-0.0032
0001107404;6.7325;2.5307;2.0183;0.0742;0.2944;-0.0009
0001107413;6.8929;2.4517;1.9656;0.0613;0.3258;-0.0120
0001107422;6.8690;2.3415;1.7717;0.0675;0.3455;-0.0309
0001107431;6.7086;2.2410;1.6975;0.0757;0.3736;-0.0284
0001107440;6.7804;2.1715;1.5897;0.1003;0.3840;-0.0384
0001107449;6.4260;2.2098;1.7071;0.1310;0.3840;-0.0420
0001107458;6.5434;2.5402;1.6400;0.1376;0.3956;-0.0376
0001107467;6.1986;2.5355;1.9656;0.1376;0.3768;-0.0429
0001107476;6.3542;3.0478;1.9154;0.1011;0.3676;-0.0473
0001107485;6.0717;3.0335;1.9082;0.0601;0.3560;-0.0604
0001107494;6.1914;2.9544;1.9321;0.0044;0.3544;-0.0831
0001107503;6.2441;2.8347;2.0087;-0.0169;0.3451;-0.1114
0001107512;6.0980;2.5355;2.0877;-0.0292;0.3575;-0.1298
0001107521;6.2345;2.3870;2.1691;-0.0103;0.3557;-0.1577
0001107530;6.1363;2.2601;2.1117;0.0173;0.3631;-0.1603
0001107539;6.0118;2.0542;2.0446;0.0496;0.3705;-0.1496
0001107548;6.0885;1.9082;2.1524;0.0933;0.3717;-0.1348
0001107557;6.2489;2.0255;2.3104;0.1132;0.3729;-0.0974
0001107566;6.3638;2.1332;2.4014;0.1390;0.3473;-0.0751
0001107575;6.3279;2.2889;2.6839;0.1386;0.3252;-0.0398
0001107584;6.2393;2.4804;3.1627;0.1459;0.2831;-0.0277
0001107593;5.9999;2.6815;3.2920;0.1518;0.2356;-0.0057
0001107602;5.5689;2.6528;3.2729;0.1695;0.1747;0.0079
0001107611;5.3606;2.6887;3.0119;0.1827;0.1198;0.0164
0001107620;5.1451;2.6169;3.0239;0.1867;0.0914;0.0165
0001107629;4.8794;2.7366;3.3232;0.2100;0.0504;-0.0069
0001107638;4.8698;2.9832;3.3495;0.2373;0.0117;-0.0065
0001107647;4.5753;3.2250;3.2082;0.2506;-0.0429;0.0119
0001107656;4.6256;3.2346;3.1125;0.2471;-0.0827;0.0296
0001107665;4.7836;3.0598;2.8563;0.2356;-0.0979;0.0478
0001107674;5.3439;2.8276;2.4972;0.2237;-0.0863;0.0620
0001107683;6.1603;2.4445;2.3415;0.2152;-0.0577;0.0558
0001107692;6.8977;1.8818;2.0949;0.2176;-0.0183;0.0505
0001107835;3.8068;2.9329;2.2290;0.0200;0.1013;0.0325
0001107844;4.0989;2.4062;1.8004;0.0203;0.0706;-0.0171
0001107853;4.7549;1.8579;1.7286;0.0346;0.0612;-0.0482
0001107862;5.4133;1.5347;1.5538;0.0825;0.0766;-0.0951
0001107871;5.6575;1.1971;1.6520;0.1438;0.0981;-0.1458
0001107880;5.7796;1.2450;1.6113;0.2020;0.1327;-0.1797
0001107889;5.7533;1.4485;1.6879;0.2593;0.1466;-0.2044
0001107898;5.6719;1.8723;1.7765;0.2950;0.1460;-0.2004
0001107907;5.1308;2.5379;2.1428;0.2955;0.1354;-0.1880
0001107916;4.9057;3.1963;2.3320;0.2747;0.0989;-0.1803
0001107925;4.2880;3.4069;2.4708;0.1988;0.0718;-0.1679
0001107934;4.0869;3.5099;2.5355;0.1066;0.0200;-0.1757
0001107943;4.0869;3.4596;2.5283;0.0181;-0.0300;-0.1943
0001107952;3.7733;2.9497;2.5833;-0.0405;-0.0883;-0.2173
0001107961;3.7852;2.5977;2.5402;-0.0637;-0.1295;-0.2411
0001107970;3.8642;2.2529;2.4876;-0.0464;-0.1643;-0.2545
0001107979;4.0534;1.9704;2.4660;-0.0129;-0.1876;-0.2425
0001107988;4.6471;2.1859;2.1835;0.0348;-0.2280;-0.2344
0001107997;4.7980;2.1332;2.1476;0.0488;-0.2469;-0.2156
0001108006;5.2960;2.3583;2.0614;0.0553;-0.2670;-0.2157
0001108015;5.1691;2.3894;2.1332;0.0354;-0.2703;-0.2081
0001108024;5.1811;2.5283;2.1428;0.0328;-0.2823;-0.2165
0001108033;4.9344;2.4588;2.1668;0.0213;-0.2842;-0.1988
0001108042;4.9632;2.4062;2.2098;0.0144;-0.2858;-0.1801
0001108051;4.9704;2.2386;2.0973;0.0269;-0.2918;-0.1668
0001108060;5.3917;2.4014;2.0686;0.0396;-0.2868;-0.1430
0001108069;5.6743;2.5019;2.0925;0.0326;-0.2773;-0.1308
0001108078;5.8682;2.7054;2.1668;0.0059;-0.2767;-0.1299
0001108087;5.8682;2.8252;2.2098;-0.0127;-0.2631;-0.1320
0001108096;5.8754;3.0742;2.2577;-0.0565;-0.2429;-0.1358
0001108105;5.4564;2.8659;2.2482;-0.0866;-0.2305;-0.1302
0001108114;5.3415;2.5474;2.1500;-0.1090;-0.2193;-0.1324
0001108123;5.4492;2.4325;2.0853;-0.1142;-0.1928;-0.1100
0001108132;5.6288;2.3894;2.0016;-0.1057;-0.1737;-0.1107
0001108141;5.7820;2.0303;2.0279;-0.0878;-0.1431;-0.1151
0001108150;6.0023;1.9656;2.0183;-0.0717;-0.1106;-0.1180
0001108159;6.0430;1.9441;1.9944;-0.0398;-0.0929;-0.1266
0001108168;5.9616;2.0231;1.9848;-0.0015;-0.0826;-0.1244
0001108177;5.7772;2.1356;1.9010;0.0197;-0.0502;-0.1138
0001108186;5.6599;2.2601;1.8100;0.0310;-0.0230;-0.0911
0001108195;5.5593;2.4301;1.7909;0.0132;0.0015;-0.0703
0001108204;5.3774;2.6217;1.9680;0.0017;0.0065;-0.0693
0001108213;5.4324;2.7222;2.1428;0.0029;0.0161;-0.0679
0001108222;5.1595;2.9113;1.8531;0.0450;0.0093;-0.0875
0001108231;5.0685;2.9113;1.9273;0.0926;0.0095;-0.0935
0001108240;4.8100;2.9688;1.7286;0.1392;0.0193;-0.0806
0001108249;5.3917;3.3615;1.7430;0.1611;0.0364;-0.0640
0001108258;5.5474;3.3447;1.7549;0.1500;0.0608;-0.0370
0001108267;5.7604;3.5051;1.6592;0.0998;0.0742;-0.0205
0001108276;5.4516;3.1580;1.4700;0.0438;0.0742;-0.0209
0001108285;5.3678;2.8898;1.2330;0.0105;0.0689;-0.0233
0001108294;5.0661;2.3391;1.2354;0.0397;0.0488;-0.0449
0001108303;4.7860;2.2434;1.0247;0.0759;0.0400;-0.0488
0001108312;4.9057;2.3703;0.9529;0.1284;0.0326;-0.0541
0001108321;4.8411;2.4660;1.2139;0.1532;0.0445;-0.0453
0001108330;5.0518;2.7821;1.3384;0.1593;0.0492;-0.0356
0001108339;5.2864;3.0789;1.4341;0.1371;0.0605;-0.0276
0001108348;5.3103;3.1412;1.5538;0.1011;0.0837;-0.0147
0001108357;5.3319;2.9449;1.3168;0.0759;0.0951;-0.0088
0001108366;5.1332;2.5714;1.3575;0.0589;0.1023;0.0163
0001108375;5.0733;2.2290;1.0846;0.0448;0.1231;0.0512
0001108384;5.1954;1.9561;1.1325;0.0573;0.1403;0.0723
0001108393;5.0829;1.8962;1.0654;0.0516;0.1575;0.0867
0001108402;5.1284;1.9345;1.2258;0.0618;0.1579;0.0921
0001108411;4.9249;1.9417;1.2953;0.0906;0.1238;0.0971
0001108420;4.6495;2.1093;1.2737;0.1184;0.0987;0.0859
0001108429;4.5298;2.2841;1.1325;0.1519;0.0841;0.0791
0001108438;4.5586;2.3750;0.9553;0.1745;0.0785;0.0902
0001108447;4.7118;2.3367;1.0056;0.1496;0.0927;0.1152
0001108456;5.0685;2.6217;1.2857;0.1131;0.0990;0.1363
0001108465;5.1763;2.6695;1.3695;0.0659;0.0842;0.1580
0001108474;4.9775;2.6839;1.5203;0.0410;0.0626;0.1548
0001108483;4.7070;2.3798;1.4916;0.0365;0.0316;0.1482
0001108492;4.5418;2.3535;1.1277;0.0394;0.0127;0.1392
0001108579;4.8195;2.6360;0.9146;-0.0418;-0.2068;0.1545
0001108588;4.7405;2.5546;1.0989;-0.0697;-0.2314;0.1560
0001108597;4.5274;2.3703;1.4629;-0.0628;-0.2697;0.1463
0001108606;4.4341;2.4134;1.4724;-0.0517;-0.3142;0.1375
0001108615;4.3574;2.4732;1.5443;-0.0281;-0.3580;0.1224
0001108624;4.1922;2.6384;1.2163;-0.0297;-0.3772;0.1198
0001108633;4.4819;2.6360;1.1660;-0.0257;-0.3896;0.1286
0001108642;4.8028;2.6360;0.9984;-0.0330;-0.3742;0.1557
0001108651;5.0182;2.6193;0.9194;-0.0405;-0.3752;0.1736
0001108660;5.2696;2.3391;0.9074;-0.0377;-0.3802;0.1932
0001108669;5.5091;2.3703;0.9912;-0.0229;-0.4005;0.2053
0001108678;5.4037;2.3128;1.0391;0.0025;-0.4286;0.1985
0001108687;5.4923;2.5019;1.1037;0.0220;-0.4287;0.1956
0001108696;5.5857;2.8515;1.2498;0.0233;-0.4263;0.1913
0001108705;5.8035;3.2394;1.4365;0.0156;-0.4037;0.1792
0001108714;6.0334;3.5386;1.5921;0.0031;-0.3713;0.1555
0001108723;6.4308;3.6847;1.8699;-0.0338;-0.3240;0.1252
0001108732;6.9456;3.8618;2.3008;-0.0715;-0.2747;0.0885
0001108741;6.7445;3.5506;2.5091;-0.0882;-0.2160;0.0677
0001108750;6.8307;3.4644;2.7485;-0.0725;-0.1549;0.0514
0001108759;6.6655;3.1747;2.8108;-0.0530;-0.0874;0.0686
0001108768;6.8785;3.3950;2.6145;-0.0529;-0.0155;0.1037
0001108777;7.2592;3.5602;2.5307;-0.0504;0.0458;0.1584
0001108786;7.6136;3.4405;2.5402;-0.0584;0.0901;0.2200
0001108795;8.0158;3.7302;2.6935;-0.0919;0.1224;0.2826
0001108804;7.7883;3.6416;2.6408;-0.1223;0.1525;0.3104
0001108813;7.3694;3.7709;2.7629;-0.1596;0.1605;0.3112
0001108822;6.9719;4.0079;2.8395;-0.1811;0.1376;0.3071
0001108831;6.4787;4.0294;2.7414;-0.1887;0.0854;0.2914
0001108840;6.0238;4.2018;2.8706;-0.2142;0.0385;0.2822
0001108849;5.7293;4.3503;2.8611;-0.2277;-0.0288;0.2483
0001108858;5.3295;4.4005;2.9233;-0.2330;-0.0659;0.2109
0001108867;5.3846;4.6759;2.8922;-0.2382;-0.0882;0.1541
0001108876;5.5091;4.9656;2.9042;-0.2407;-0.0975;0.0859
0001108885;5.9640;5.1930;2.5259;-0.2413;-0.1191;0.0135
0001108894;6.2225;5.2313;2.4325;-0.2461;-0.1347;-0.0393
0001108903;6.0286;4.7262;2.3655;-0.2742;-0.1498;-0.0401
0001108912;5.7389;4.0725;2.1739;-0.2891;-0.1880;-0.0057
0001108921;5.7269;3.5721;2.1404;-0.2951;-0.2169;0.0472
0001108930;5.5043;3.0023;1.9752;-0.2715;-0.2541;0.0945
0001108939;5.6479;2.8611;2.0830;-0.2397;-0.2813;0.1274
0001108948;5.8371;3.0023;2.0063;-0.2001;-0.3060;0.1404
0001108957;6.0525;2.9233;2.1332;-0.1856;-0.3124;0.1406
0001108966;6.4739;3.3136;2.1835;-0.1720;-0.3066;0.1180
0001108975;6.6822;3.3255;2.2194;-0.1693;-0.2931;0.0915
0001108984;7.1132;3.6009;2.2338;-0.1824;-0.2657;0.0774
0001108993;7.3119;3.4716;2.2865;-0.1875;-0.2314;0.0663
0001109002;7.2999;3.3064;2.1979;-0.2042;-0.2088;0.0710
0001109011;7.3789;2.9425;2.1859;-0.2154;-0.1792;0.0907
0001109020;7.2975;2.7869;2.2075;-0.2208;-0.1597;0.1219
0001109029;7.1658;2.5139;2.0039;-0.1996;-0.1463;0.1544
0001109038;6.9719;2.3607;1.9082;-0.1994;-0.1326;0.1892
0001109047;6.9240;2.3679;2.0446;-0.1785;-0.1306;0.1998
0001109056;6.7181;2.4612;2.2242;-0.1668;-0.1203;0.2000
0001109065;6.5386;2.6504;2.2482;-0.1523;-0.1326;0.1860
0001109074;6.4835;2.7988;2.2529;-0.1603;-0.1282;0.1767
0001109083;6.7373;2.9305;2.2865;-0.1717;-0.1444;0.1581
0001109092;6.8091;2.6887;2.2577;-0.1813;-0.1524;0.1390
0001109101;6.9623;2.6887;2.2577;-0.1936;-0.1545;0.1155
0001109110;7.1443;2.4517;2.2482;-0.2020;-0.1641;0.0923
0001109119;7.3023;2.3798;2.3535;-0.2142;-0.1751;0.0707
0001109128;7.2975;2.1572;2.2913;-0.2161;-0.1753;0.0582
0001109137;7.3310;2.1524;2.2098;-0.2120;-0.1939;0.0405
0001109146;7.2113;2.0518;2.1093;-0.2014;-0.2072;0.0329
0001109155;7.0294;2.1404;2.1261;-0.2004;-0.2201;0.0111
0001109164;6.8690;2.0997;2.2721;-0.1941;-0.2328;-0.0036
0001109173;6.7109;2.1380;2.2577;-0.1933;-0.2527;-0.0261
0001109182;6.8163;2.1524;2.2721;-0.1779;-0.2699;-0.0576
0001109191;6.9863;2.0375;2.2170;-0.1717;-0.2675;-0.0765
0001109200;7.0246;2.0231;2.2649;-0.1460;-0.2789;-0.1035
0001109209;7.0797;2.0877;2.3224;-0.1452;-0.2735;-0.1148
0001109218;7.2880;2.2075;2.3727;-0.1240;-0.2785;-0.1311
0001109227;7.1802;1.9968;2.2194;-0.1195;-0.2675;-0.1366
0001109236;7.4795;2.2793;2.1979;-0.1127;-0.2659;-0.1518
0001109323;7.3287;2.5738;2.5498;-0.1577;-0.1088;-0.1387
0001109332;7.5106;2.5235;2.7102;-0.1551;-0.0963;-0.1372
0001109341;7.5130;2.7414;3.0239;-0.1725;-0.0746;-0.1218
0001109350;7.5824;2.6193;3.2154;-0.1974;-0.0596;-0.1143
0001109359;7.4268;2.4924;3.2106;-0.2133;-0.0454;-0.1027
0001109368;7.3765;2.4445;3.0167;-0.2133;-0.0376;-0.1115
0001109377;7.1228;2.1859;2.9712;-0.2198;-0.0372;-0.1175
0001109386;6.7756;1.9178;3.0502;-0.2210;-0.0337;-0.1255
0001109395;6.6200;1.8100;3.1987;-0.2054;-0.0476;-0.1426
0001109404;6.3590;1.8986;3.2034;-0.1925;-0.0526;-0.1458
0001109413;6.3183;2.0255;3.2681;-0.1669;-0.0638;-0.1548
0001109422;6.1818;1.9728;3.2872;-0.1520;-0.0746;-0.1564
0001109431;6.1268;2.0446;3.2537;-0.1246;-0.0962;-0.1637
0001109440;6.2848;2.3391;3.3591;-0.1034;-0.1126;-0.1764
0001109449;6.0382;2.4541;3.5147;-0.0790;-0.1262;-0.1937
0001109458;6.0190;2.7677;3.5195;-0.0510;-0.1328;-0.1949
0001109467;5.9233;2.9904;3.5410;-0.0398;-0.1330;-0.1893
0001109476;5.8897;3.2178;3.5147;-0.0290;-0.1452;-0.1744
0001109485;6.1699;3.0598;3.4453;-0.0308;-0.1415;-0.1463
0001109494;6.5050;2.9377;3.0119;-0.0228;-0.1495;-0.1295
0001109503;6.6750;2.5283;2.8084;-0.0301;-0.1274;-0.1034
0001109512;6.8905;2.3463;2.5139;-0.0297;-0.1051;-0.1100
0001109521;7.1730;1.8794;2.2841;-0.0292;-0.0686;-0.1230
0001109530;7.5633;1.9249;2.0423;-0.0017;-0.0332;-0.1490
0001109539;7.6375;1.7837;2.0710;0.0269;0.0175;-0.1764
0001109548;7.8027;1.9393;2.1452;0.0572;0.0675;-0.2168
0001109557;8.0038;2.1883;2.3176;0.0536;0.1366;-0.2541
0001109566;8.0182;2.4445;2.4253;0.0233;0.1985;-0.2815
0001109575;7.8338;2.5426;2.3870;-0.0147;0.2613;-0.2983
0001109584;7.6064;2.6719;2.2913;-0.0489;0.3195;-0.3230
0001109593;7.4436;2.7390;2.2146;-0.0634;0.3601;-0.3277
0001109602;7.1132;2.8132;2.1787;-0.0809;0.3838;-0.3164
0001109611;6.7205;2.6025;2.2362;-0.0790;0.3792;-0.2986
0001109620;6.2632;2.6288;2.3248;-0.0711;0.3742;-0.2638
0001109629;6.0358;2.9640;2.4565;-0.0560;0.3563;-0.2353
0001109638;5.5258;2.9640;2.7533;-0.0449;0.3325;-0.1966
0001109647;5.5809;3.4261;2.7294;-0.0460;0.3062;-0.1780
0001109656;5.6024;3.4022;2.6456;-0.0650;0.2797;-0.1545
0001109665;6.1914;3.4165;2.5163;-0.1083;0.2794;-0.1400
0001109674;6.7062;2.9640;2.3750;-0.1455;0.2858;-0.1399
0001109683;7.0102;2.6169;2.3727;-0.1571;0.3026;-0.1424
0001109692;7.2712;2.2314;2.1380;-0.1571;0.3304;-0.1374
0001109701;7.2113;1.9345;2.1500;-0.1351;0.3559;-0.1335
0001109710;7.1850;1.8483;2.1979;-0.1033;0.3897;-0.1332
0001109719;6.9384;1.9944;2.0949;-0.0811;0.4150;-0.1336
0001109728;6.5769;2.2697;2.3487;-0.0687;0.4322;-0.1219
0001109737;6.3183;2.3463;2.6169;-0.0580;0.4454;-0.1142
0001109746;6.0741;2.5091;2.7701;-0.0440;0.4407;-0.1007
0001109755;5.6192;2.5283;2.7031;-0.0496;0.4327;-0.1023
0001109764;5.4708;2.5690;2.8108;-0.0622;0.4225;-0.1196
0001109773;5.4157;2.5067;2.9209;-0.0763;0.4177;-0.1343
0001109782;5.4061;2.5474;2.9521;-0.0827;0.4135;-0.1611
0001109791;5.5617;2.6025;3.0143;-0.0735;0.4022;-0.1847
0001109800;5.4588;2.5857;2.9209;-0.0689;0.3732;-0.2001
0001109809;5.7317;2.4876;2.8395;-0.0585;0.3541;-0.2010
0001109818;5.8682;2.4229;2.8395;-0.0472;0.3403;-0.2033
0001109827;6.0406;2.4756;2.8036;-0.0356;0.3328;-0.1992
0001109836;6.1411;2.3607;2.7701;-0.0349;0.3242;-0.1986
0001109845;5.9400;2.1093;2.7174;-0.0302;0.3104;-0.2032
0001109854;5.7604;2.0399;2.7222;-0.0298;0.3080;-0.1941
0001109863;5.5354;1.9441;2.7821;-0.0217;0.2962;-0.2022
0001109872;5.1954;1.7741;2.7605;-0.0139;0.2742;-0.1997
0001109881;4.8794;1.7334;3.0837;-0.0092;0.2582;-0.1986
0001109890;4.6352;1.7837;3.0047;0.0200;0.2170;-0.2120
0001109899;4.2784;1.8028;3.0382;0.0361;0.1811;-0.2097
0001109908;4.2306;2.0351;2.9090;0.0564;0.1271;-0.2012
0001109917;4.2425;2.2266;2.9281;0.0830;0.0762;-0.1947
0001109926;4.1946;2.3607;2.7869;0.0918;0.0330;-0.1948
0001109935;4.2210;2.5139;2.6815;0.0877;-0.0012;-0.1937
0001109944;4.2760;2.5211;2.6647;0.0661;-0.0316;-0.1773
0001109953;4.4388;2.5402;2.5091;0.0578;-0.0597;-0.1740
0001109962;4.3479;2.3128;2.4804;0.0337;-0.0722;-0.1652
0001110050;4.9081;2.2553;2.8635;-0.0774;-0.1863;-0.1809
0001110059;5.1356;2.2793;2.8874;-0.0757;-0.1567;-0.1692
0001110068;5.4564;2.5690;2.9185;-0.0799;-0.1392;-0.1647
0001110077;5.3893;2.6767;3.0933;-0.0971;-0.1218;-0.1408
0001110086;5.3463;2.7845;3.0933;-0.1266;-0.1085;-0.1244
0001110095;5.1451;2.7342;3.1460;-0.1490;-0.1006;-0.1247
0001110104;4.7716;2.6791;3.1196;-0.1716;-0.0837;-0.1100
0001110113;4.6112;2.4780;3.1149;-0.1825;-0.0711;-0.1058
0001110122;4.5753;2.3367;3.0574;-0.1829;-0.0629;-0.1035
0001110131;4.7381;2.3080;2.9281;-0.1741;-0.0508;-0.0997
0001110140;4.5705;2.1452;2.8371;-0.1621;-0.0245;-0.1039
0001110149;4.8866;2.2577;2.8802;-0.1490;0.0093;-0.0945
0001110158;4.6328;2.1859;2.9329;-0.1246;0.0204;-0.0881
0001110167;4.7764;2.2075;2.8563;-0.1152;0.0517;-0.0709
0001110176;4.8147;2.2865;2.7677;-0.1163;0.0530;-0.0606
0001110185;4.6974;2.1907;2.6671;-0.1324;0.0505;-0.0553
0001110194;4.6855;2.0494;2.4469;-0.1500;0.0478;-0.0702
0001110203;4.6615;1.6281;2.2362;-0.1652;0.0472;-0.0930
0001110212;4.5418;1.2498;2.0997;-0.1569;0.0428;-0.1246
0001110221;4.4556;1.0965;2.1476;-0.1387;0.0297;-0.1466
0001110230;4.3838;0.9936;2.1811;-0.0718;-0.0079;-0.1653
0001110239;4.2210;1.1540;2.1332;-0.0093;-0.0441;-0.1571
0001110248;4.1659;1.5419;2.1739;0.0494;-0.0895;-0.1400
0001110257;4.1396;1.8340;2.1261;0.0825;-0.1211;-0.1164
0001110266;4.2856;1.8100;2.1237;0.0957;-0.1447;-0.0911
0001110275;4.3694;1.6879;2.0351;0.0899;-0.1616;-0.0849
0001110284;4.6088;1.4796;1.8268;0.0803;-0.1671;-0.0703
0001110293;4.7453;1.4341;1.7478;0.0725;-0.1779;-0.0518
0001110302;4.8842;1.2139;1.8579;0.0858;-0.1929;-0.0453
0001110311;4.5993;1.0678;1.8483;0.1183;-0.1849;-0.0394
0001110320;4.3814;1.0343;1.6640;0.1656;-0.1816;-0.0490
0001110329;4.1659;1.2737;1.8507;0.2242;-0.1688;-0.0408
0001110338;3.9792;1.6927;2.0710;0.2785;-0.1821;-0.0282
0001110347;4.0510;2.1883;2.2458;0.3067;-0.2093;0.0063
0001110356;4.0797;2.5905;2.3798;0.3032;-0.2374;0.0428
0001110365;3.8307;2.7701;2.2745;0.2910;-0.2895;0.0566
0001110374;3.7445;2.8036;2.3391;0.2433;-0.3357;0.0598
0001110383;3.6488;2.6264;2.3008;0.1853;-0.3880;0.0428
0001110392;3.6703;2.5881;2.3152;0.1430;-0.4481;0.0072
0001110401;3.5195;2.4493;2.4421;0.1018;-0.4954;-0.0309
0001110410;3.5051;2.2769;2.4900;0.0813;-0.5411;-0.0667
0001110419;3.6272;2.2960;2.5283;0.0938;-0.5860;-0.0971
0001110428;3.6655;2.2769;2.4828;0.1207;-0.6113;-0.1073
0001110437;3.7302;2.1572;2.4253;0.1378;-0.6247;-0.1046
0001110446;3.9480;2.2505;2.3535;0.1556;-0.6518;-0.0949
0001110455;4.4963;2.5235;2.5019;0.1467;-0.6635;-0.0681
0001110464;4.6424;2.6408;2.4445;0.1206;-0.6815;-0.0537
0001110473;4.9919;2.5857;2.5474;0.0707;-0.6851;-0.0469
0001110482;4.9991;2.6671;2.7773;0.0242;-0.7012;-0.0616
0001110491;4.7621;2.5331;2.7821;-0.0165;-0.7151;-0.0777
0001110500;4.3742;2.5618;2.7821;-0.0397;-0.7484;-0.0945
0001110509;3.8906;2.3703;2.8299;-0.0188;-0.7985;-0.1006
0001110518;3.5698;2.3272;2.9161;0.0144;-0.8512;-0.0897
0001110527;3.4812;2.4732;2.5833;0.0653;-0.8918;-0.0925
0001110536;3.3854;2.3272;2.6264;0.0963;-0.9117;-0.0941
0001110545;3.9528;2.7581;2.6695;0.1103;-0.9186;-0.0994
0001110554;4.4867;3.0502;2.4780;0.1078;-0.9200;-0.1127
0001110563;4.8243;2.9497;2.3966;0.0918;-0.9030;-0.1146
0001110572;5.3774;2.8874;2.3200;0.0697;-0.8796;-0.1057
0001110581;5.5617;2.9377;2.4612;0.0606;-0.8492;-0.0909
0001110590;5.6192;2.8395;2.6336;0.0626;-0.8212;-0.0612
0001110599;5.6264;2.9497;2.7366;0.0717;-0.8083;-0.0208
0001110608;5.2265;2.9257;2.8084;0.0875;-0.8224;0.0105
0001110617;4.8650;3.2920;2.7845;0.0858;-0.8288;0.0430
0001110626;4.6256;3.2250;2.7078;0.0581;-0.8399;0.0576
0001110635;4.5538;3.3615;2.6456;0.0389;-0.8637;0.0546
0001110644;4.5586;3.1747;2.5067;-0.0011;-0.8641;0.0537
0001110653;4.5514;2.7414;2.4229;-0.0176;-0.8732;0.0354
0001110662;4.6759;2.5690;2.3391;-0.0280;-0.8576;0.0187
0001110671;4.9177;2.2386;2.2003;-0.0137;-0.8351;0.0049
0001110680;5.1068;1.8794;2.1500;0.0180;-0.8041;-0.0009
0001110689;5.4396;1.9201;2.1931;0.0833;-0.7711;0.0040
0001110698;6.0142;2.0135;2.0686;0.1410;-0.7264;0.0382
0001110707;6.3063;2.1859;2.2242;0.1992;-0.6884;0.0795
0001110795;6.0525;2.4900;3.3112;0.1187;-0.1653;0.1539
0001110804;6.2632;2.5163;3.1915;0.1235;-0.1328;0.1869
0001110813;6.4739;2.4349;3.0861;0.1404;-0.1122;0.2136
0001110822;6.6176;2.4086;3.0718;0.1442;-0.0821;0.2445
0001110831;6.9097;2.5546;2.9928;0.1446;-0.0544;0.2682
0001110840;6.9097;2.6001;3.0574;0.1383;-0.0341;0.2762
0001110849;7.2664;2.7845;3.1173;0.1135;-0.0039;0.2758
0001110858;6.9576;2.7294;3.0454;0.1002;0.0115;0.2607
0001110867;6.9384;2.8515;3.1388;0.0717;0.0364;0.2567
0001110876;6.9743;3.0550;3.0933;0.0582;0.0469;0.2381
0001110885;6.8546;3.1603;3.0071;0.0505;0.0581;0.2233
0001110894;6.6032;3.0837;2.9784;0.0310;0.0604;0.2093
0001110903;6.6918;3.2705;3.2633;0.0068;0.0514;0.2137
0001110912;6.4524;3.4022;3.4333;-0.0188;0.0365;0.2094
0001110921;6.3470;3.5602;3.7038;-0.0329;0.0230;0.1953
0001110930;6.2560;3.7996;3.7876;-0.0344;0.0121;0.1597
0001110939;6.3159;4.3574;3.7996;-0.0322;0.0304;0.1014
0001110948;6.7540;4.6950;3.6847;-0.0260;0.0496;0.0372
0001110957;6.8977;4.9297;3.4500;-0.0269;0.0869;-0.0337
0001110966;6.9767;5.2002;3.2944;-0.0406;0.1235;-0.0906
0001110975;7.4699;5.1691;3.2034;-0.0658;0.1684;-0.1099
0001110984;7.3239;4.4724;3.0622;-0.0899;0.1990;-0.0894
0001110993;7.2018;3.9145;2.8826;-0.1203;0.2226;-0.0149
0001111002;6.9599;3.1029;2.6145;-0.1268;0.2286;0.0718
0001111011;6.7636;2.6743;2.5953;-0.1166;0.2388;0.1715
0001111020;6.7900;2.3631;2.5498;-0.0961;0.2454;0.2593
0001111029;6.9336;2.3631;2.5546;-0.0667;0.2478;0.3248
0001111038;7.1730;2.5235;2.5953;-0.0638;0.2690;0.3825
0001111047;7.4172;2.7294;2.4301;-0.0640;0.2798;0.4013
0001111056;7.3430;2.7773;2.1883;-0.0807;0.3103;0.4058
0001111065;7.6136;2.8826;2.1811;-0.0963;0.3377;0.3834
0001111074;7.6016;2.8611;2.1021;-0.1054;0.3569;0.3512
0001111083;7.4962;2.9832;2.1883;-0.1234;0.3828;0.3234
0001111092;7.3933;2.8778;2.1356;-0.1364;0.4070;0.2878
0001111101;7.2712;2.9137;2.2266;-0.1540;0.4307;0.2631
0001111110;7.2927;2.9090;2.4253;-0.1716;0.4446;0.2511
0001111119;7.2281;2.7246;2.4157;-0.1727;0.4535;0.2356
0001111128;7.1874;2.7078;2.4110;-0.1736;0.4588;0.2300
0001111137;7.0485;2.4277;2.4157;-0.1459;0.4527;0.2285
0001111146;6.9623;2.3008;2.4229;-0.1180;0.4470;0.2177
0001111155;6.8426;2.1189;2.4086;-0.0907;0.4419;0.2189
0001111164;6.7732;2.1237;2.4373;-0.0633;0.4303;0.2272
0001111173;6.8474;2.2266;2.4277;-0.0304;0.4146;0.2234
0001111182;6.7876;2.2458;2.4229;-0.0116;0.4077;0.2389
0001111191;6.9312;2.3343;2.3511;-0.0060;0.4117;0.2418
0001111200;7.0078;2.3870;2.2936;0.0049;0.4126;0.2328
0001111209;7.1371;2.2075;2.3343;0.0149;0.4242;0.2342
0001111218;7.3167;2.2266;2.2170;0.0208;0.4386;0.2230
0001111227;7.2832;2.1548;2.1380;0.0236;0.4527;0.2077
0001111236;7.5729;2.3032;2.1332;0.0232;0.4635;0.1911
0001111245;7.3406;2.1548;2.0518;0.0310;0.4670;0.1671
0001111254;7.3574;2.1883;2.0877;0.0257;0.4842;0.1434
0001111263;7.1036;2.0710;2.1261;0.0296;0.4883;0.1071
0001111272;6.9384;2.0494;2.1069;0.0209;0.4994;0.0706
0001111281;6.7636;1.9201;2.3607;0.0317;0.4915;0.0222
0001111290;6.6319;2.0303;2.4708;0.0392;0.4867;-0.0224
0001111299;6.4643;2.0303;3.0071;0.0482;0.4535;-0.0693
0001111308;6.3877;2.4134;3.6344;0.0244;0.4147;-0.0997
0001111317;5.9951;2.7054;4.0749;-0.0017;0.3680;-0.1252
0001111326;5.6407;3.2274;4.1468;-0.0273;0.3152;-0.1468
0001111335;5.3750;3.3710;4.1276;-0.0525;0.2614;-0.1637
0001111344;4.7357;3.2585;3.9289;-0.0529;0.2005;-0.1711
0001111353;4.5538;3.1364;3.6488;-0.0542;0.1555;-0.1593
0001111362;4.7262;3.1675;3.4046;-0.0679;0.1142;-0.1496
0001111371;4.7764;2.5905;3.3974;-0.0743;0.0758;-0.1420
0001111380;5.0781;2.1213;3.4931;-0.0867;0.0686;-0.1296
0001111389;5.4540;1.9824;3.6129;-0.0923;0.0528;-0.1271
0001111398;5.8347;1.7478;3.8954;-0.0897;0.0440;-0.1243
0001111407;6.0406;1.8507;3.7445;-0.0919;0.0514;-0.1206
0001111416;6.0094;1.9656;3.7278;-0.0620;0.0679;-0.1243
0001111425;6.3375;2.4014;3.8714;-0.0313;0.1037;-0.1134
0001111434;6.5649;2.8276;3.8140;-0.0049;0.1226;-0.0907
0001111443;6.7852;3.1627;3.9528;0.0093;0.1142;-0.0512
0001111452;6.9815;3.5075;3.8092;0.0237;0.0899;0.0047
0001111539;5.2361;0.6895;3.4381;-0.1729;-0.0296;-0.0709
0001111548;5.4564;0.7542;3.4453;-0.1499;-0.0400;-0.0532
0001111557;5.6072;1.0918;3.4285;-0.1364;-0.0408;-0.0404
0001111566;5.7988;1.1588;3.4812;-0.1311;-0.0366;-0.0258
0001111575;5.9616;1.4102;3.4884;-0.1046;-0.0320;-0.0294
0001111584;6.2225;1.5586;3.5362;-0.0714;-0.0131;-0.0349
0001111593;6.4452;2.0016;3.4955;-0.0436;0.0068;-0.0390
0001111602;6.3015;2.0375;3.4165;-0.0111;0.0107;-0.0480
0001111611;6.0717;2.1763;3.2968;0.0163;0.0185;-0.0430
0001111620;5.7748;2.1691;3.1867;0.0313;0.0169;-0.0310
0001111629;5.4324;2.2601;3.1580;0.0473;0.0044;-0.0069
0001111638;5.3534;2.3439;2.9904;0.0805;-0.0252;0.0165
0001111647;5.3798;2.1835;2.9425;0.0878;-0.0513;0.0341
0001111656;5.4396;2.2242;2.8994;0.1031;-0.0805;0.0401
0001111665;5.5785;2.0351;2.9281;0.1007;-0.0911;0.0352
0001111674;5.9616;2.2505;3.1220;0.1186;-0.0977;0.0057
0001111683;6.3327;2.1572;3.1747;0.1330;-0.0850;-0.0341
0001111692;6.3327;2.0518;3.0071;0.1470;-0.0510;-0.0851
0001111701;6.5577;2.0518;2.9856;0.1563;-0.0135;-0.1418
0001111710;6.5338;2.0279;3.0837;0.1676;0.0256;-0.1888
0001111719;6.4069;1.9010;2.9497;0.1720;0.0645;-0.2252
0001111728;6.4524;1.9465;2.6145;0.1733;0.1059;-0.2356
0001111737;6.3949;1.8627;2.4756;0.1588;0.1486;-0.2402
0001111746;6.2632;1.9776;2.6145;0.1398;0.1805;-0.2426
0001111755;6.5481;2.0949;2.5642;0.1332;0.2136;-0.2225
0001111764;6.6128;2.3056;2.3343;0.1179;0.2583;-0.2128
0001111773;6.7253;2.4828;2.3152;0.1011;0.3010;-0.2121
0001111782;6.7947;2.4421;2.2721;0.0655;0.3529;-0.2018
0001111791;6.7636;2.3774;2.0279;0.0489;0.4081;-0.2164
0001111800;6.9983;2.5355;1.4940;0.0486;0.4819;-0.2222
0001111809;6.9192;2.2122;1.3503;0.0452;0.5564;-0.2329
0001111818;6.8283;1.9920;1.4461;0.0380;0.6126;-0.2266
0001111827;7.2544;2.0758;1.3910;0.0357;0.6716;-0.1905
0001111836;6.9168;2.0231;1.4413;0.0481;0.7077;-0.1528
0001111845;6.7852;2.2769;1.2067;0.0569;0.7358;-0.1130
0001111854;6.5697;2.4660;1.3336;0.0574;0.7554;-0.0773
0001111863;6.1842;2.5283;1.4676;0.0594;0.7572;-0.0290
0001111872;6.0980;2.9928;1.5467;0.0568;0.7588;0.0195
0001111881;5.7437;3.2681;1.8818;0.0512;0.7312;0.0476
0001111890;5.4085;3.4644;2.0662;0.0298;0.7061;0.0661
0001111899;5.3032;3.5578;2.2218;-0.0037;0.6909;0.0698
0001111908;4.9943;3.3423;1.9561;-0.0164;0.6547;0.0469
0001111917;4.8100;2.8587;1.8435;-0.0341;0.6340;0.0204
0001111926;5.2050;2.6552;1.8507;-0.0240;0.6055;-0.0101
0001111935;5.3271;2.4181;1.9393;-0.0242;0.5974;-0.0208
0001111944;5.4731;2.2003;1.9441;-0.0091;0.5882;-0.0372
0001111953;5.3463;2.0255;1.8220;0.0140;0.6009;-0.0493
0001111962;5.7126;2.1691;1.6041;0.0390;0.6246;-0.0632
0001111971;5.9041;2.0279;1.5874;0.0468;0.6472;-0.0673
0001111980;5.8849;2.2027;1.6089;0.0440;0.6627;-0.0465
0001111989;5.8921;2.3032;1.6903;0.0494;0.6632;-0.0183
0001111998;5.5881;2.1380;1.6735;0.0538;0.6583;0.0109
0001112007;5.4708;2.2769;1.7382;0.0609;0.6416;0.0308
0001112016;5.1188;2.3703;1.4581;0.0751;0.6138;0.0433
0001112025;4.6711;2.3439;1.5802;0.0887;0.6133;0.0573
0001112034;4.3838;2.3894;1.5155;0.1195;0.6029;0.0663
0001112043;4.3359;2.3631;1.6831;0.1482;0.5869;0.0901
0001112052;4.5250;2.4253;1.6496;0.1736;0.5556;0.1202
0001112061;4.9608;2.5666;1.6017;0.1855;0.5184;0.1404
0001112070;5.1404;2.6360;1.6568;0.1929;0.4835;0.1482
0001112079;5.2337;2.4205;1.4724;0.1901;0.4561;0.1487
0001112088;5.1308;2.3535;1.6688;0.1920;0.4199;0.1224
0001112097;4.9464;2.1428;1.5323;0.1884;0.3946;0.1018
0001112106;4.7669;2.1955;1.6616;0.2001;0.3500;0.0786
0001112115;4.1276;2.2649;1.7765;0.2149;0.3020;0.0841
0001112124;4.0869;2.6552;1.8052;0.2345;0.2414;0.0826
0001112133;3.6943;2.6719;1.8627;0.2397;0.1719;0.0899
0001112142;3.7613;2.9113;1.8579;0.2136;0.1078;0.0978
0001112151;3.5530;3.0981;1.8938;0.1897;0.0478;0.0899
0001112160;3.5865;3.0119;1.9297;0.1467;-0.0025;0.0877
0001112169;3.8427;3.0167;1.8124;0.1127;-0.0474;0.0699
0001112178;4.0582;2.7509;1.6759;0.0893;-0.0879;0.0533
0001112187;4.1970;2.3966;1.5730;0.0953;-0.1186;0.0300
0001112196;4.4245;2.1763;1.4006;0.1206;-0.1463;0.0084
0001112345;4.7405;2.9066;1.7382;0.0048;-0.6480;-0.0903
0001112354;4.9608;2.8946;1.7238;-0.0168;-0.6595;-0.1030
0001112363;4.7549;2.7701;1.6520;-0.0181;-0.6835;-0.1230
0001112372;4.4628;2.8012;1.7119;-0.0104;-0.7127;-0.1398
0001112381;4.2425;2.8730;1.6975;0.0027;-0.7218;-0.1331
0001112390;4.2425;3.0478;1.6568;0.0159;-0.7360;-0.1358
0001112399;4.2497;3.0239;1.6400;0.0261;-0.7560;-0.1251
0001112408;4.5226;2.8323;1.3791;0.0128;-0.7490;-0.1099
0001112417;4.8171;2.5905;1.1708;0.0304;-0.7512;-0.1086
0001112426;4.7022;2.0949;1.0702;0.0683;-0.7165;-0.0831
0001112435;5.0039;2.0087;0.7159;0.1282;-0.6831;-0.0670
0001112444;5.2792;2.1213;0.8475;0.2120;-0.6412;-0.0400
0001112453;5.3582;2.5809;1.0511;0.2825;-0.6057;0.0112
0001112462;5.4468;3.1915;1.1277;0.3372;-0.5849;0.0520
0001112471;5.5617;3.5434;1.4389;0.3283;-0.5668;0.0911
0001112480;5.4851;3.7589;1.5826;0.2843;-0.5633;0.1026
0001112489;5.3989;3.6583;1.7549;0.2112;-0.5642;0.0786
0001112498;5.1212;3.3878;1.8842;0.1535;-0.5672;0.0276
0001112507;5.1020;3.0502;1.8771;0.1259;-0.5673;-0.0292
0001112516;4.6639;2.6480;1.6472;0.1203;-0.5749;-0.0735
0001112525;4.7525;2.6480;1.6783;0.1506;-0.5813;-0.1164
0001112534;4.7788;2.7605;1.7310;0.2048;-0.5893;-0.1360
0001112543;5.0278;2.9951;2.0662;0.2565;-0.5975;-0.1342
0001112552;5.2816;3.3758;2.3631;0.2717;-0.5796;-0.1069
0001112561;5.8107;3.7613;2.5977;0.2654;-0.5573;-0.0883
0001112570;6.3734;4.0127;2.8180;0.2200;-0.5100;-0.0628
0001112579;6.8378;4.0342;2.9281;0.1649;-0.4627;-0.0449
0001112588;7.2760;4.1013;2.9664;0.0917;-0.3993;-0.0292
0001112597;7.2520;3.7062;3.0406;0.0432;-0.3375;-0.0216
0001112606;7.1730;3.4429;3.0215;0.0007;-0.2850;-0.0028
0001112615;6.8043;2.9760;3.0263;-0.0184;-0.2465;0.0211
0001112624;6.4859;2.9209;3.1388;-0.0207;-0.2394;0.0414
0001112633;6.0478;2.9090;2.9904;-0.0318;-0.2301;0.0493
0001112642;5.8514;3.0311;3.1029;-0.0477;-0.2443;0.0502
0001112651;5.8562;3.1508;3.0909;-0.0626;-0.2626;0.0442
0001112660;5.8371;3.1340;3.1268;-0.0697;-0.2864;0.0246
0001112669;5.9903;2.9808;3.0287;-0.0825;-0.3040;0.0149
0001112678;6.2417;3.1268;2.9473;-0.0970;-0.3218;0.0179
0001112687;6.5697;2.9473;2.8347;-0.1103;-0.3160;0.0360
0001112696;6.8091;2.9161;2.6121;-0.1110;-0.3124;0.0558
0001112705;6.9695;2.6504;2.4636;-0.1244;-0.2839;0.0977
0001112714;7.0892;2.4493;2.5019;-0.1354;-0.2601;0.1280
0001112723;7.0749;2.2936;2.3679;-0.1472;-0.2004;0.1820
0001112732;7.2065;2.1979;2.5402;-0.1444;-0.1514;0.2273
0001112741;7.1515;2.3248;2.5786;-0.1434;-0.0875;0.2685
0001112750;7.1204;2.2817;2.6384;-0.1620;-0.0125;0.3026
0001112759;7.3741;2.6097;2.7222;-0.1671;0.0540;0.3175
0001112768;7.5537;3.0071;2.8228;-0.1544;0.1170;0.3204
0001112777;7.4077;3.1675;2.8683;-0.1191;0.1812;0.3192
0001112786;7.4268;3.7493;2.8036;-0.0715;0.2312;0.3192
0001112795;7.3550;4.4388;2.7102;-0.0366;0.2670;0.3118
0001112804;7.2305;4.9847;2.8156;-0.0203;0.2742;0.2955
0001112813;7.0366;5.2002;2.7031;-0.0452;0.2803;0.2879
0001112822;6.5936;5.0422;2.3224;-0.0814;0.2658;0.2778
0001112831;6.2082;4.5466;1.9944;-0.1296;0.2521;0.2835
0001112840;5.8682;3.9385;1.7957;-0.1653;0.2160;0.2864
0001112849;5.6958;3.1077;1.5036;-0.1759;0.1928;0.3066
0001112858;5.9448;3.1149;1.2809;-0.1600;0.1613;0.3324
0001112867;5.9687;2.6145;1.2139;-0.1392;0.1391;0.3441
0001112876;6.2273;2.5498;1.0391;-0.1132;0.1130;0.3535
0001112885;6.5888;2.7007;1.0319;-0.0982;0.1050;0.3599
0001112894;6.7947;2.8874;1.2091;-0.1002;0.1111;0.3525
0001112903;6.7971;2.8084;1.1995;-0.0967;0.1256;0.3413
0001112912;7.1060;2.9808;1.2809;-0.1079;0.1580;0.3214
0001112921;7.4531;3.3375;1.2115;-0.1134;0.1728;0.2974
0001112930;7.2832;3.2801;1.2091;-0.1348;0.2049;0.2910
0001112939;7.2472;3.0981;1.3120;-0.1548;0.2346;0.2743
0001112948;7.4220;3.1867;1.2594;-0.1680;0.2637;0.2575
0001112957;7.2496;2.8204;1.2929;-0.1700;0.2807;0.2405
0001112966;7.1946;2.7031;1.2570;-0.1696;0.2886;0.2337
0001112975;6.9312;2.4253;1.2067;-0.1636;0.2908;0.2268
0001112984;6.7612;2.4301;1.1540;-0.1729;0.2947;0.2234
0001112993;6.6918;2.3894;1.1899;-0.1717;0.2852;0.2124
0001113002;6.5841;2.3056;1.2426;-0.1745;0.2847;0.1980
0001113089;7.0318;2.4205;1.5514;-0.0657;0.2370;0.1206
0001113098;7.1802;2.4397;1.6568;-0.0851;0.2419;0.1334
0001113107;7.2281;2.3296;1.6807;-0.0765;0.2306;0.1295
0001113116;6.9145;1.9800;1.6448;-0.0802;0.2471;0.1200
0001113125;7.0198;2.0925;1.6041;-0.0683;0.2426;0.0959
0001113134;7.0294;2.0662;1.7526;-0.0526;0.2465;0.0671
0001113143;6.9216;2.1668;1.6735;-0.0541;0.2503;0.0344
0001113152;6.8187;2.5235;1.7765;-0.0738;0.2474;0.0003
0001113161;6.7397;2.7892;2.2434;-0.1314;0.2607;-0.0378
0001113170;6.7397;2.9281;2.6887;-0.1917;0.2694;-0.0761
0001113179;6.8546;2.7629;2.7485;-0.2317;0.2689;-0.1130
0001113188;6.9504;2.5307;2.7940;-0.2723;0.2878;-0.1284
0001113197;6.7684;2.2577;2.9688;-0.2904;0.3066;-0.1543
0001113206;6.5864;1.7310;3.1436;-0.2916;0.3130;-0.1583
0001113215;6.4715;1.6759;3.2202;-0.2635;0.3059;-0.1601
0001113224;6.3303;1.4341;3.4716;-0.2297;0.2902;-0.1386
0001113233;6.0693;1.5874;3.5195;-0.1781;0.2667;-0.1088
0001113242;5.7988;1.7382;3.6248;-0.1625;0.2611;-0.0829
0001113251;5.6838;1.9201;3.5937;-0.1611;0.2442;-0.0735
0001113260;5.7365;2.1189;3.7134;-0.1897;0.2457;-0.0521
0001113269;5.6527;2.1284;4.1156;-0.2126;0.2321;-0.0358
0001113278;5.7437;1.9297;4.3694;-0.1982;0.2070;-0.0204
0001113287;5.7820;2.1835;4.2808;-0.1537;0.1829;0.0216
0001113296;5.4803;2.4541;3.9193;-0.0813;0.1164;0.0727
0001113305;5.1739;3.1029;3.3423;-0.0486;0.0262;0.1621
0001113314;4.7621;3.6655;2.9975;-0.0594;-0.0902;0.2633
0001113323;4.3766;3.9409;2.8323;-0.1162;-0.2010;0.3507
0001113332;4.3790;3.7182;2.8611;-0.1955;-0.3087;0.3647
0001113341;4.5562;3.0119;2.7869;-0.2915;-0.3695;0.3086
0001113350;5.2696;2.5355;2.6288;-0.3589;-0.4367;0.1851
0001113359;6.1172;1.9680;2.3990;-0.3633;-0.4792;0.0569
0001113368;6.6774;1.5634;2.2434;-0.3162;-0.4956;-0.0701
0001113377;7.1539;1.4485;2.2338;-0.2577;-0.4834;-0.1788
0001113386;7.4340;1.4844;2.3559;-0.2241;-0.4447;-0.2771
0001113395;7.6471;1.5395;2.4756;-0.1875;-0.3886;-0.3468
0001113404;7.6423;1.7885;2.6073;-0.1528;-0.3295;-0.3816
0001113413;7.5058;1.9537;2.7342;-0.1298;-0.2741;-0.3906
0001113422;7.3119;2.3272;2.5714;-0.1215;-0.2278;-0.3684
0001113431;7.1180;2.5953;2.5690;-0.1025;-0.2214;-0.3148
0001113440;6.6487;2.6671;2.5786;-0.1159;-0.2112;-0.2362
0001113449;6.1699;2.7198;2.6336;-0.1259;-0.2244;-0.1775
0001113458;5.9185;2.8563;2.6456;-0.1338;-0.2376;-0.1228
0001113467;5.5234;2.8132;2.7366;-0.1347;-0.2471;-0.1019
0001113476;5.4300;2.7869;2.7916;-0.1366;-0.2635;-0.1003
0001113485;5.7293;2.7270;2.8276;-0.1238;-0.2759;-0.1107
0001113494;6.0717;2.5833;2.7318;-0.1195;-0.2667;-0.1194
0001113503;6.6511;2.4205;2.8443;-0.1146;-0.2410;-0.1435
0001113512;7.0629;2.2553;2.9544;-0.1050;-0.2046;-0.1853
0001113521;7.6303;2.4732;2.8371;-0.1199;-0.1454;-0.2109
0001113530;7.4962;2.0111;2.6600;-0.1252;-0.0906;-0.2519
0001113539;7.6088;1.8675;2.5355;-0.1085;-0.0384;-0.2770
0001113548;7.5513;1.8244;2.5379;-0.0985;0.0236;-0.2723
0001113557;7.4316;1.8938;2.4732;-0.0592;0.0638;-0.2694
0001113566;7.0964;1.8890;2.4972;-0.0264;0.1011;-0.2349
0001113575;6.8235;2.1117;2.4828;-0.0089;0.1288;-0.2032
0001113584;6.5625;2.4660;2.6240;0.0043;0.1391;-0.1655
0001113593;6.3207;2.7677;2.7174;0.0020;0.1462;-0.1422
0001113602;6.3614;2.9281;2.6408;-0.0019;0.1471;-0.1448
0001113611;6.2656;2.5450;2.6240;-0.0167;0.1591;-0.1456
0001113620;6.3805;2.4157;2.4828;-0.0196;0.1735;-0.1580
0001113629;6.6248;2.2482;2.5474;0.0015;0.2005;-0.1861
0001113638;6.9288;2.2075;2.4972;0.0284;0.2320;-0.1980
0001113647;7.0557;2.2601;2.6983;0.0589;0.2481;-0.2012
0001113656;7.0390;2.6240;2.7485;0.0521;0.2693;-0.1687
0001113665;7.2377;2.8299;2.7605;0.0207;0.2982;-0.1470
0001113674;7.0294;2.8443;2.7222;-0.0306;0.3457;-0.1123
0001113683;7.0581;2.5067;2.5666;-0.0749;0.3868;-0.1042
0001113692;6.9815;2.5091;2.4469;-0.1009;0.4225;-0.0914
0001113701;7.0054;2.4876;2.3559;-0.1049;0.4563;-0.0791
0001113710;6.5122;2.1524;2.2673;-0.0826;0.4706;-0.0673
0001113719;6.2441;2.3056;2.2122;-0.0514;0.4783;-0.0365
0001113728;5.9640;2.4852;2.2027;-0.0292;0.4762;-0.0224
0001113737;5.6264;2.4948;2.1955;-0.0123;0.4602;-0.0096
0001113824;5.6814;2.9999;1.8651;0.1298;0.2661;-0.0526
0001113833;5.7006;2.6264;1.6855;0.0869;0.2896;-0.0430
0001113842;5.7150;2.2960;1.6520;0.0738;0.3068;-0.0420
0001113851;5.5833;1.8124;1.5802;0.0962;0.3248;-0.0521
0001113860;5.7844;1.8818;1.5562;0.1374;0.3308;-0.0616
0001113869;5.4779;2.0135;1.5826;0.1615;0.3477;-0.0398
0001113878;5.6048;2.3990;1.6065;0.1965;0.3313;-0.0149
0001113887;5.2050;2.5402;1.8004;0.2104;0.3202;0.0374
0001113896;5.2002;2.8419;1.7526;0.1936;0.3040;0.0773
0001113905;5.3726;2.9712;1.6903;0.1659;0.2685;0.1057
0001113914;5.2026;2.6911;1.6735;0.1167;0.2481;0.1252
0001113923;5.1691;2.3679;1.5347;0.0834;0.2298;0.1124
0001113932;5.2720;1.9537;1.1827;0.0674;0.2156;0.0895
0001113941;5.2313;1.5562;1.2378;0.0826;0.2033;0.0638
0001113950;5.0949;1.4198;1.3312;0.1086;0.1744;0.0361
0001113959;5.0901;1.6855;1.4317;0.1384;0.1416;0.0350
0001113968;4.8004;2.0279;1.6688;0.1712;0.0879;0.0397
0001113977;4.6735;2.3415;1.7047;0.1916;0.0237;0.0601
0001113986;4.5705;2.7007;1.5897;0.1925;-0.0326;0.0899
0001113995;4.6855;2.9185;1.7478;0.1708;-0.0919;0.1179
0001114004;4.5873;2.8228;1.5921;0.1391;-0.1596;0.1276
0001114013;4.8866;2.4205;1.4796;0.0985;-0.1899;0.1252
0001114022;4.7860;2.0710;1.4437;0.0802;-0.2164;0.0878
0001114031;4.6783;1.7286;1.2043;0.0902;-0.2369;0.0426
0001114040;4.5346;1.6041;1.1492;0.1082;-0.2518;0.0195
0001114049;4.4580;1.7190;1.3072;0.1611;-0.2767;0.0125
0001114058;4.4772;1.9920;1.3408;0.2284;-0.3183;0.0200
0001114067;4.2880;2.5905;1.4653;0.2715;-0.3612;0.0388
0001114076;4.4388;3.2034;1.7933;0.2605;-0.3933;0.0705
0001114085;4.5538;3.7781;2.0183;0.2068;-0.4239;0.0881
0001114094;4.6878;3.7445;2.1668;0.1175;-0.4431;0.0889
0001114103;5.0182;3.5314;2.1356;0.0135;-0.4562;0.0610
0001114112;5.2194;2.9353;1.8675;-0.0681;-0.4399;0.0333
0001114121;5.2122;2.2865;1.6807;-0.0842;-0.4377;-0.0055
0001114130;5.2122;2.2865;1.3958;-0.0369;-0.4387;-0.0230
0001114139;4.8123;2.1883;1.4317;0.0354;-0.4386;-0.0160
0001114148;4.6160;2.4541;1.5347;0.1188;-0.4718;-0.0024
0001114157;4.2282;2.9425;1.8986;0.1592;-0.4966;0.0262
0001114166;4.2162;3.3567;2.3463;0.1613;-0.5268;0.0384
0001114175;4.5394;3.7373;2.5570;0.1062;-0.5421;0.0416
0001114184;4.8937;3.7900;2.3894;0.0386;-0.5482;0.0336
0001114193;5.3870;3.4069;2.1691;-0.0211;-0.5452;-0.0057
0001114202;5.5689;2.6839;1.9728;-0.0450;-0.5260;-0.0466
0001114211;5.6647;1.9752;1.8268;-0.0294;-0.5217;-0.0767
0001114220;5.6144;1.6041;1.8842;0.0180;-0.5124;-0.0917
0001114229;5.7317;1.7166;2.1308;0.1026;-0.5193;-0.1019
0001114238;5.7341;2.1811;2.2553;0.1860;-0.4972;-0.0891
0001114247;5.8778;2.6767;2.6049;0.2324;-0.4699;-0.0866
0001114256;6.4524;3.4716;2.9113;0.2507;-0.4429;-0.0922
0001114265;6.6822;3.8499;3.2848;0.2507;-0.4175;-0.1001
0001114274;7.2401;4.2665;3.4453;0.2094;-0.3644;-0.0809
0001114283;7.7524;4.4077;3.5434;0.1495;-0.3022;-0.0646
0001114292;8.2720;4.3790;3.4572;0.0855;-0.2497;-0.0328
0001114301;8.4731;3.9600;3.3136;0.0292;-0.2026;0.0053
0001114310;8.3965;3.8092;3.2489;-0.0036;-0.1475;0.0360
0001114319;7.9368;3.6057;3.1005;-0.0167;-0.1030;0.0421
0001114328;7.3574;3.5434;3.1891;-0.0297;-0.0657;0.0526
0001114337;6.6343;3.2274;3.2825;-0.0360;-0.0542;0.0667
0001114346;6.2991;3.3255;3.2633;-0.0484;-0.0544;0.0915
0001114355;6.0501;3.2130;3.1651;-0.0580;-0.0568;0.1119
0001114364;6.1842;3.2825;2.9736;-0.0710;-0.0594;0.1143
0001114373;6.1794;3.1388;2.8683;-0.0883;-0.0496;0.1151
0001114382;6.3063;2.8683;2.6671;-0.0795;-0.0576;0.1017
0001114391;6.6272;2.7869;2.5857;-0.0655;-0.0570;0.1027
0001114400;6.7900;2.7581;2.5929;-0.0465;-0.0541;0.1094
0001114409;6.7804;2.7102;2.4972;-0.0212;-0.0618;0.1154
0001114418;6.5146;2.4205;2.6073;0.0027;-0.0554;0.1266
0001114427;6.6487;2.7605;2.3798;0.0278;-0.0558;0.1290
0001114436;6.5410;2.8491;2.3631;0.0645;-0.0504;0.1235
0001114445;6.4572;2.9760;2.4014;0.1011;-0.0438;0.1123
0001114454;6.3638;3.1603;2.4708;0.1299;-0.0329;0.0973
0001114463;6.3446;3.4405;2.6097;0.1504;-0.0075;0.0861
0001114472;6.4979;3.8044;2.7509;0.1664;0.0183;0.0670
0001114481;6.9911;4.2784;2.6983;0.1736;0.0432;0.0665
0001114569;6.5864;3.5721;2.1691;0.0553;-0.0457;0.1965
0001114578;6.5434;3.7517;2.2649;0.0360;-0.0549;0.1451
0001114587;6.3470;3.9576;2.3727;0.0092;-0.0763;0.0910
0001114596;6.2632;3.9265;2.2936;-0.0208;-0.1069;0.0612
0001114605;6.3111;3.6320;2.2434;-0.0585;-0.1206;0.0566
0001114614;6.5194;3.4740;2.2146;-0.0767;-0.1498;0.0620
0001114623;6.6319;3.0765;2.0159;-0.0918;-0.1503;0.0966
0001114632;6.9480;2.8730;1.9537;-0.0881;-0.1527;0.1239
0001114641;7.1539;2.8036;1.8531;-0.0826;-0.1452;0.1440
0001114650;7.3526;2.7150;1.7933;-0.0805;-0.1378;0.1508
0001114659;7.3478;2.8012;1.8747;-0.0781;-0.1179;0.1560
0001114668;7.4148;2.8371;1.8794;-0.0734;-0.1027;0.1422
0001114677;7.1467;2.8419;1.9417;-0.0782;-0.0831;0.1320
0001114686;7.0773;2.9784;1.7645;-0.0831;-0.0813;0.1047
0001114695;6.9168;3.0287;1.9058;-0.0991;-0.0650;0.0877
0001114704;6.8690;2.8826;1.8220;-0.1082;-0.0662;0.0600
0001114713;6.5936;2.7318;1.8914;-0.1270;-0.0735;0.0344
0001114722;6.6008;2.7390;1.8914;-0.1472;-0.0786;0.0216
0001114731;6.7253;2.5857;2.0111;-0.1624;-0.0850;-0.0053
0001114740;6.6750;2.4876;1.8771;-0.1528;-0.0891;-0.0366
0001114749;7.1467;2.5283;2.0351;-0.1512;-0.0859;-0.0550
0001114758;6.8833;2.3727;1.9944;-0.1302;-0.0886;-0.0786
0001114767;7.0725;2.4612;2.0063;-0.1252;-0.0919;-0.0957
0001114776;6.9480;2.3080;2.0830;-0.1115;-0.0977;-0.1045
0001114785;7.0246;2.2889;1.9489;-0.1013;-0.0949;-0.0930
0001114794;6.9791;2.4828;1.9632;-0.0831;-0.0943;-0.0921
0001114803;7.1156;2.6576;1.9944;-0.0698;-0.0899;-0.0806
0001114812;6.8953;2.3152;1.9513;-0.0711;-0.0775;-0.0601
0001114821;7.2113;2.5618;2.0159;-0.0703;-0.0645;-0.0482
0001114830;7.3957;2.5833;2.0231;-0.0753;-0.0441;-0.0328
0001114839;7.6351;2.4373;1.9680;-0.0605;-0.0248;-0.0324
0001114848;7.9607;2.3918;1.9537;-0.0674;0.0145;-0.0215
0001114857;8.1475;2.4780;1.9034;-0.0512;0.0413;-0.0264
0001114866;7.9823;2.2769;1.8076;-0.0418;0.0711;-0.0277
0001114875;7.7524;2.2266;1.8196;-0.0277;0.0891;-0.0344
0001114884;7.5872;2.2577;2.0853;-0.0301;0.1057;-0.0460
0001114893;7.2568;2.3320;2.1691;-0.0245;0.1114;-0.0618
0001114902;6.9264;2.5259;2.2673;-0.0324;0.1147;-0.0775
0001114911;6.6631;2.5786;2.3727;-0.0496;0.1104;-0.1091
0001114920;6.6319;2.5091;2.3942;-0.0735;0.1029;-0.1271
0001114929;6.5505;2.2505;2.5953;-0.0879;0.0951;-0.1533
0001114938;6.6942;2.0279;2.7509;-0.1054;0.0829;-0.1705
0001114947;6.8354;1.9656;3.0119;-0.0989;0.0646;-0.1893
0001114956;6.7301;1.8627;3.1651;-0.0783;0.0454;-0.2132
0001114965;6.4117;1.6592;3.1292;-0.0466;0.0254;-0.2328
0001114974;6.2489;1.7621;3.2178;-0.0211;0.0155;-0.2405
0001114983;6.0741;1.9178;3.1795;0.0209;-0.0033;-0.2562
0001114992;5.7413;1.9609;3.4500;0.0497;-0.0320;-0.2525
0001115001;5.6575;2.3798;3.7110;0.0742;-0.0608;-0.2373
0001115010;5.4684;2.8491;4.0199;0.0870;-0.0939;-0.1964
0001115019;4.9991;3.4453;3.9935;0.0874;-0.1380;-0.1368
0001115028;5.1906;4.2162;3.9744;0.0657;-0.1936;-0.0686
0001115037;5.1140;4.5155;3.8188;0.0374;-0.2392;0.0085
0001115046;5.0398;4.2258;3.6105;-0.0149;-0.2670;0.0669
0001115055;5.5737;3.7876;3.2394;-0.0598;-0.2924;0.0701
0001115064;6.1890;3.0358;3.0861;-0.1343;-0.2755;0.0493
0001115073;7.0318;2.3846;2.8347;-0.1875;-0.2338;-0.0020
0001115082;7.6543;1.6759;2.7892;-0.2132;-0.1791;-0.0584
0001115091;8.0302;1.2498;2.4636;-0.2325;-0.1219;-0.0999
0001115100;8.1547;0.9457;2.0782;-0.2441;-0.0795;-0.1370
0001115109;8.2983;0.7638;1.7382;-0.2507;-0.0160;-0.1625
0001115118;8.2193;0.7446;1.6975;-0.2419;0.0553;-0.1845
0001115127;7.7117;0.7422;1.9297;-0.2056;0.1066;-0.2161
0001115136;7.2664;1.1181;2.4804;-0.1676;0.1428;-0.2194
0001115145;7.3981;2.0303;2.7749;-0.1316;0.1599;-0.2228
0001115154;6.7995;2.4852;3.0957;-0.1026;0.1723;-0.2136
0001115163;6.5122;3.1867;3.3591;-0.1070;0.1819;-0.2018
0001115172;6.2560;3.8475;3.7445;-0.1307;0.1823;-0.1994
0001115181;6.1148;4.2042;3.7302;-0.1720;0.1839;-0.2061
0001115190;6.0382;4.3694;3.5698;-0.2214;0.1927;-0.2173
0001115199;6.2752;4.0630;3.4500;-0.2946;0.2224;-0.2305
0001115208;6.4548;3.4931;3.1891;-0.3485;0.2398;-0.2324
0001115217;6.6655;2.7845;2.7414;-0.3656;0.2637;-0.2289
0001115305;4.5801;2.1213;2.0853;-0.2382;0.1933;-0.1972
0001115314;4.4149;2.2841;2.2386;-0.1917;0.1454;-0.2001
0001115323;4.3670;2.4038;2.2386;-0.1378;0.1009;-0.2126
0001115332;4.4101;2.6312;2.2218;-0.1021;0.0489;-0.2161
0001115341;4.7094;2.7581;2.0327;-0.0869;0.0057;-0.2233
0001115350;5.2289;2.8826;1.9537;-0.0901;-0.0163;-0.2238
0001115359;5.6000;2.7821;1.7909;-0.0886;-0.0358;-0.2296
0001115368;5.7676;2.6743;1.7885;-0.0845;-0.0346;-0.2366
0001115377;6.1004;2.8108;1.6855;-0.0795;-0.0207;-0.2482
0001115386;6.2872;2.6647;1.7909;-0.1010;0.0177;-0.2462
0001115395;6.2944;2.7246;1.7933;-0.1215;0.0592;-0.2793
0001115404;6.1555;2.5139;2.1045;-0.1446;0.1035;-0.2958
0001115413;6.1387;2.5450;2.0494;-0.1508;0.1379;-0.3102
0001115422;5.9640;2.3104;2.3056;-0.1528;0.1683;-0.3030
0001115431;5.6024;2.1237;2.3128;-0.1434;0.1832;-0.2960
0001115440;5.2960;2.0925;2.1979;-0.1434;0.2058;-0.2746
0001115449;5.4708;2.1452;2.2146;-0.1283;0.2189;-0.2661
0001115458;5.5019;1.9680;1.9609;-0.1155;0.2354;-0.2410
0001115467;5.6551;1.8794;1.7142;-0.1023;0.2482;-0.2221
0001115476;5.6264;1.8723;1.6807;-0.0817;0.2654;-0.1996
0001115485;5.8395;2.0279;1.6735;-0.0573;0.2789;-0.1801
0001115494;5.8873;2.2625;1.6951;-0.0364;0.2942;-0.1615
0001115503;5.9209;2.4373;1.9010;-0.0248;0.2996;-0.1310
0001115512;5.8610;2.7916;2.0782;-0.0302;0.2854;-0.0997
0001115521;5.4372;2.6336;2.0686;-0.0405;0.2622;-0.0701
0001115530;5.2912;2.6767;2.1428;-0.0714;0.2435;-0.0584
0001115539;4.8123;2.2266;2.0686;-0.0851;0.2150;-0.0622
0001115548;4.5083;1.8316;2.0518;-0.0839;0.1839;-0.0710
0001115557;4.5777;1.6400;1.7933;-0.0782;0.1759;-0.0853
0001115566;4.5729;1.1253;1.6927;-0.0400;0.1696;-0.0955
0001115575;4.8578;1.1468;1.5419;0.0101;0.1725;-0.0993
0001115584;5.1499;1.0511;1.3791;0.0757;0.1772;-0.0971
0001115593;5.4085;1.2354;1.4868;0.1427;0.1787;-0.0833
0001115602;5.6982;1.7214;1.5275;0.2034;0.1651;-0.0510
0001115611;5.4564;2.2027;1.6376;0.2306;0.1459;0.0023
0001115620;5.4588;2.6767;1.8172;0.2301;0.1041;0.0366
0001115629;5.1930;2.9113;1.8268;0.1901;0.0713;0.0689
0001115638;4.6759;2.4349;1.6209;0.1460;0.0336;0.0606
0001115647;4.4628;2.1284;1.4557;0.1139;-0.0004;0.0390
0001115656;3.9289;1.4222;1.4796;0.1054;-0.0274;0.0043
0001115665;4.0055;1.2953;1.4222;0.1223;-0.0374;-0.0137
0001115674;3.6512;1.1013;1.5850;0.1727;-0.0718;-0.0292
0001115683;3.7038;1.2210;1.6879;0.2298;-0.1006;-0.0124
0001115692;3.7326;1.4772;1.8723;0.2742;-0.1324;0.0116
0001115701;4.3335;2.0686;1.9465;0.3058;-0.1789;0.0320
0001115710;4.5633;2.4038;1.8771;0.3054;-0.2154;0.0492
0001115719;4.6448;2.6815;1.8962;0.2662;-0.2409;0.0529
0001115728;4.6759;2.5546;1.8268;0.2101;-0.2550;0.0354
0001115737;4.7285;2.4852;1.6927;0.1568;-0.2682;-0.0091
0001115746;4.3072;2.1428;1.7310;0.1219;-0.2750;-0.0526
0001115755;4.1372;2.0111;1.6592;0.1454;-0.3023;-0.0819
0001115764;3.5410;1.8723;1.8723;0.1916;-0.3461;-0.0821
0001115773;3.2896;2.2170;1.9728;0.2466;-0.4101;-0.0533
0001115782;3.1603;2.4014;2.0734;0.2706;-0.4951;-0.0246
0001115791;3.2058;2.8012;2.0207;0.2403;-0.5657;0.0057
0001115800;3.3184;2.5594;1.9130;0.1978;-0.6502;0.0064
0001115809;3.3399;2.3750;1.8411;0.1422;-0.6956;-0.0113
0001115818;3.7038;2.0997;1.7166;0.1088;-0.7296;-0.0538
0001115827;3.5889;1.4629;1.4700;0.1378;-0.7538;-0.0923
0001115836;3.7589;1.3001;1.3216;0.1945;-0.7762;-0.0929
0001115845;3.8355;1.0606;1.1181;0.2817;-0.7907;-0.0774
0001115854;3.9361;0.8571;0.9026;0.3838;-0.8226;-0.0554
0001115863;4.1324;1.2043;1.0846;0.4731;-0.8720;-0.0282
0001115872;3.9361;1.3120;1.8340;0.5115;-0.9157;0.0035
0001115881;4.1563;2.1715;2.0279;0.5120;-0.9519;-0.0015
0001115890;4.1922;2.5953;2.3511;0.4553;-0.9635;-0.0356
0001115899;4.6807;3.0885;2.6169;0.3369;-0.9523;-0.0781
0001115908;4.9608;3.1556;2.2529;0.2539;-0.9645;-0.1215
0001115917;5.1284;2.8515;1.8747;0.2176;-0.9894;-0.1408
0001115926;5.0135;2.4253;1.7310;0.2098;-1.0187;-0.1496
0001115935;4.8076;2.6336;2.3487;0.1920;-1.0210;-0.1612
0001115944;4.5179;2.6576;2.9951;0.2182;-1.0082;-0.1883
0001115953;4.7094;3.5482;3.6536;0.2485;-0.9702;-0.2229
0001115962;5.3463;4.3622;4.3455;0.2818;-0.9060;-0.2735
0001116049;4.1013;3.1939;3.0191;-0.0663;-0.2554;0.3099
0001116058;3.1747;3.1891;2.5498;-0.0505;-0.3500;0.3497
0001116067;2.8515;3.3734;2.3080;-0.0001;-0.4720;0.3316
0001116076;2.8323;3.2872;2.1739;0.0517;-0.5776;0.2920
0001116085;2.9137;3.3447;2.0446;0.0610;-0.6350;0.2325
0001116094;3.6416;3.4955;2.0351;0.0593;-0.6755;0.1460
0001116103;4.5298;3.3088;1.9992;0.0662;-0.6904;0.0675
0001116112;5.6168;3.6631;2.1069;0.0759;-0.6816;0.0005
0001116121;6.4093;3.6775;2.2290;0.0938;-0.6684;-0.0473
0001116130;6.7900;3.6775;2.2601;0.0749;-0.6322;-0.0645
0001116139;7.0988;4.0031;2.4565;0.0458;-0.6127;-0.0697
0001116148;6.9528;4.0390;2.6073;-0.0129;-0.5782;-0.0584
0001116157;6.6080;3.9241;2.5618;-0.0726;-0.5486;-0.0521
0001116166;6.2776;3.6368;2.6121;-0.1346;-0.5044;-0.0208
0001116175;6.4548;3.4141;2.6432;-0.1641;-0.4731;0.0088
0001116184;6.7062;3.2370;2.7270;-0.1739;-0.4441;0.0325
0001116193;6.9647;3.2106;2.7246;-0.1812;-0.4183;0.0580
0001116202;7.6016;3.5458;2.6360;-0.1731;-0.3946;0.0644
0001116211;7.5657;3.5889;2.4876;-0.1801;-0.3841;0.0601
0001116220;7.3382;3.4668;2.3990;-0.1805;-0.3806;0.0409
0001116229;7.0006;3.4405;2.3535;-0.1969;-0.3842;0.0168
0001116238;6.4045;3.2034;2.2984;-0.2166;-0.3780;-0.0096
0001116247;5.9209;3.2489;2.3080;-0.2200;-0.3741;-0.0372
0001116256;5.4923;3.1029;2.5019;-0.2285;-0.3532;-0.0506
0001116265;5.8802;3.3351;2.4708;-0.2189;-0.3320;-0.0652
0001116274;6.2513;3.5698;2.5929;-0.2004;-0.3000;-0.0721
0001116283;6.9983;3.7230;2.4972;-0.2074;-0.2618;-0.0815
0001116292;7.6447;3.6990;2.2122;-0.2238;-0.2261;-0.1047
0001116301;7.9727;3.5338;1.9872;-0.2439;-0.1733;-0.1218
0001116310;7.7668;3.0143;1.9489;-0.2679;-0.1232;-0.1316
0001116319;7.3694;2.5426;1.8555;-0.2686;-0.0882;-0.1334
0001116328;6.6343;2.2793;1.8579;-0.2722;-0.0568;-0.1132
0001116337;6.0310;2.0542;1.8794;-0.2551;-0.0545;-0.0879
0001116346;5.7581;2.0782;1.9225;-0.2236;-0.0537;-0.0601
0001116355;5.5498;2.0542;1.8507;-0.1831;-0.0529;-0.0376
0001116364;5.5952;2.4110;1.7957;-0.1494;-0.0437;-0.0253
0001116373;5.8419;2.6360;1.8675;-0.1163;-0.0349;-0.0292
0001116382;6.1244;3.0287;1.8100;-0.1023;-0.0397;-0.0354
0001116391;6.3183;3.3423;1.8100;-0.1330;-0.0250;-0.0396
0001116400;6.5888;3.5985;1.7813;-0.1697;-0.0242;-0.0482
0001116409;6.5481;3.5817;1.6903;-0.2253;-0.0244;-0.0510
0001116418;6.4380;3.3064;1.8172;-0.2561;-0.0278;-0.0606
0001116427;6.2776;3.1771;1.8794;-0.2936;-0.0240;-0.0609
0001116436;5.9999;2.6624;1.7885;-0.3138;-0.0207;-0.0581
0001116445;5.8227;2.4157;1.5419;-0.3107;-0.0200;-0.0624
0001116454;6.0549;2.1691;1.6951;-0.3056;-0.0183;-0.0791
0001116463;6.1339;1.9345;1.5754;-0.2952;-0.0101;-0.0803
0001116472;6.1292;1.6903;1.5107;-0.2707;-0.0180;-0.0914
0001116481;6.2656;1.7885;1.5299;-0.2486;-0.0211;-0.0967
0001116490;6.2537;1.6951;1.6328;-0.2252;-0.0344;-0.1092
0001116499;6.0166;1.5155;1.6472;-0.2004;-0.0362;-0.1200
0001116508;6.0861;1.7406;1.7454;-0.1771;-0.0205;-0.1323
0001116517;5.9448;1.7166;2.0470;-0.1386;-0.0069;-0.1588
0001116526;5.7389;1.8771;2.1572;-0.0903;-0.0139;-0.1951
0001116535;5.4995;1.8866;2.2889;-0.0538;0.0004;-0.2090
0001116544;5.1715;2.2553;2.5738;-0.0151;-0.0101;-0.2206
0001116553;5.0973;2.6863;2.9401;0.0132;-0.0333;-0.2032
0001116562;5.1044;3.0646;3.3543;0.0400;-0.0943;-0.1611
0001116571;4.7860;3.5913;3.4764;0.0346;-0.1728;-0.0778
0001116580;4.7692;3.8164;3.6320;0.0216;-0.2698;0.0135
0001116589;4.7549;4.0223;3.5075;0.0035;-0.3576;0.1009
0001116598;5.0446;3.7350;3.5171;-0.0240;-0.4418;0.1672
0001116607;5.6144;3.4285;3.5602;-0.0617;-0.5119;0.1992
0001116616;6.0932;2.6480;3.2346;-0.0861;-0.5526;0.1677
0001116625;6.9935;2.1763;2.8036;-0.1081;-0.5404;0.1203
0001116634;7.6614;1.6448;2.5690;-0.0845;-0.5002;0.0368
0001116643;8.3869;1.1732;2.3798;-0.0657;-0.4163;-0.0377
0001116652;8.7029;0.8475;2.0063;-0.0079;-0.3027;-0.1376
0001116661;8.9519;0.8835;2.0063;0.0433;-0.1592;-0.2044
0001116670;9.1937;1.0989;2.0183;0.1078;-0.0069;-0.2415
0001116679;8.8202;1.1971;2.3320;0.1568;0.1232;-0.2530
0001116688;8.4204;1.6520;2.7845;0.1903;0.2272;-0.2173
0001116831;5.6647;2.6719;2.7581;0.1027;0.2160;0.0650
0001116840;5.3534;2.7150;2.9257;0.0907;0.1945;0.0590
0001116849;5.3510;2.8108;3.0742;0.0695;0.1609;0.0578
0001116858;5.2792;2.8922;3.1867;0.0464;0.1271;0.0542
0001116867;5.0350;2.6600;3.1220;0.0044;0.1130;0.0510
0001116876;5.1140;2.6097;3.0526;-0.0131;0.0843;0.0362
0001116885;5.1332;2.2817;2.9856;-0.0272;0.0766;0.0414
0001116894;5.5282;2.2290;2.9497;-0.0221;0.0612;0.0437
0001116903;5.8083;2.0159;2.9329;-0.0040;0.0536;0.0421
0001116912;5.6886;1.8292;2.8946;0.0345;0.0566;0.0336
0001116921;5.9161;1.9896;2.7557;0.0620;0.0803;0.0328
0001116930;6.0310;2.3248;2.7773;0.0745;0.1042;0.0249
0001116939;5.9496;2.2218;2.8730;0.0819;0.1208;0.0211
0001116948;6.0501;2.5498;2.9185;0.0610;0.1474;0.0171
0001116957;6.1076;2.7533;2.9856;0.0358;0.1707;0.0121
0001116966;5.8849;2.8754;3.1101;-0.0047;0.2080;0.0155
0001116975;5.6719;2.8084;3.2202;-0.0500;0.2300;0.0269
0001116984;5.9520;2.8706;3.0789;-0.0897;0.2493;0.0532
0001116993;5.6743;2.7342;2.9018;-0.1147;0.2521;0.0773
0001117002;5.7557;2.5881;2.6983;-0.1466;0.2637;0.1162
0001117011;5.6431;2.3607;2.4349;-0.1615;0.2546;0.1476
0001117020;5.5450;1.9776;2.1428;-0.1559;0.2333;0.1740
0001117029;5.2720;1.7597;1.8818;-0.1536;0.2152;0.1945
0001117038;5.4181;1.7238;1.8244;-0.1423;0.1848;0.1899
0001117047;5.2840;1.6927;1.8603;-0.1304;0.1561;0.1767
0001117056;4.9057;1.6041;1.8627;-0.1182;0.1204;0.1537
0001117065;4.9081;1.7334;1.7909;-0.0977;0.0706;0.1320
0001117074;4.5633;1.5897;1.7621;-0.0757;0.0196;0.1143
0001117083;4.7238;1.6113;1.6664;-0.0572;-0.0306;0.0998
0001117092;4.5681;1.5179;1.5562;-0.0285;-0.0767;0.0659
0001117101;4.6232;1.3862;1.4485;0.0059;-0.1049;0.0294
0001117110;4.7740;1.3479;1.4365;0.0478;-0.1262;-0.0080
0001117119;4.9895;1.4102;1.4820;0.0814;-0.1427;-0.0426
0001117128;5.4061;1.4844;1.5060;0.1077;-0.1536;-0.0763
0001117137;5.4540;1.3312;1.4629;0.1184;-0.1524;-0.0877
0001117146;5.6024;1.2115;1.2043;0.1171;-0.1356;-0.0743
0001117155;5.6790;1.0965;1.1013;0.1182;-0.1319;-0.0602
0001117164;5.8251;1.1349;0.8835;0.1085;-0.1254;-0.0390
0001117173;5.7772;0.8571;0.8428;0.1244;-0.1327;-0.0302
0001117182;5.3486;0.6201;0.8428;0.1435;-0.1248;-0.0196
0001117191;5.3534;0.5890;0.9098;0.1596;-0.1406;-0.0181
0001117200;5.0542;0.5674;0.9002;0.1815;-0.1672;-0.0179
0001117209;4.7453;0.6847;0.9074;0.2045;-0.1887;-0.0304
0001117218;4.3862;0.7781;1.1037;0.2205;-0.2174;-0.0288
0001117227;4.1803;0.9577;1.3096;0.2229;-0.2753;-0.0143
0001117236;3.9217;1.3192;1.4246;0.2341;-0.3653;-0.0008
0001117245;4.0486;1.6664;1.4389;0.2451;-0.4491;0.0286
0001117254;4.0821;2.0566;1.6400;0.2449;-0.5349;0.0553
0001117263;4.1396;2.2362;1.8794;0.2346;-0.6101;0.0618
0001117272;4.4341;2.4684;2.1045;0.2037;-0.6508;0.0605
0001117281;4.5657;2.4373;1.9920;0.1841;-0.6663;0.0345
0001117290;5.0566;2.1763;1.6520;0.1555;-0.6554;-0.0121
0001117299;5.2840;1.8866;1.3288;0.1344;-0.6222;-0.0632
0001117308;5.8514;1.8364;1.2186;0.1304;-0.5740;-0.0997
0001117317;5.9280;1.7645;1.3144;0.1343;-0.5532;-0.1163
0001117326;5.9280;2.0063;1.5083;0.1452;-0.5500;-0.1131
0001117335;5.8107;2.3870;1.7741;0.1395;-0.5478;-0.0909
0001117344;5.3606;2.6552;1.7861;0.1256;-0.6045;-0.0731
0001117353;5.0087;3.0287;1.5754;0.1172;-0.6664;-0.0357
0001117362;4.2737;2.8084;1.2546;0.1132;-0.7260;-0.0274
0001117371;4.0270;2.8826;1.1349;0.1186;-0.7790;-0.0197
0001117380;4.0318;2.9018;1.1229;0.1511;-0.8386;-0.0160
0001117389;4.0223;2.9784;1.3791;0.1923;-0.8897;-0.0059
0001117398;4.2210;2.9688;1.7645;0.2317;-0.9483;-0.0124
0001117407;4.6902;3.2274;2.2410;0.2385;-0.9534;-0.0125
0001117416;5.2936;3.6009;2.5714;0.2557;-0.9358;-0.0309
0001117425;6.3973;4.3646;2.5570;0.2264;-0.8876;-0.0634
0001117434;7.1419;4.0821;1.8387;0.1451;-0.8224;-0.0909
0001117443;7.8027;3.6296;1.5993;0.0673;-0.7530;-0.1238
0001117452;7.8003;3.1029;1.8052;0.0385;-0.7221;-0.1414
0001117461;7.1874;3.0143;1.8196;0.0558;-0.7008;-0.1621
0001117470;6.1651;3.1627;1.8555;0.0877;-0.6844;-0.1771
0001117479;5.7557;3.7421;2.1069;0.1120;-0.6928;-0.1992
0001117488;5.9376;4.5131;2.6169;0.1174;-0.7140;-0.2054
0001117576;7.5633;2.9928;2.6097;0.1355;-0.3990;0.0148
0001117585;7.1994;3.4261;2.7916;0.1416;-0.3757;0.0473
0001117594;6.7708;3.6655;2.8252;0.1287;-0.3571;0.0670
0001117603;6.8019;4.2258;2.8084;0.0918;-0.3299;0.0809
0001117612;6.9839;4.3862;2.5235;0.0454;-0.2851;0.0839
0001117621;7.1443;4.2856;2.2721;-0.0041;-0.2543;0.0729
0001117630;7.3717;4.1037;2.3463;-0.0604;-0.2373;0.0586
0001117639;7.2760;3.5650;2.4876;-0.1067;-0.2466;0.0416
0001117648;6.8809;3.2417;2.6504;-0.1057;-0.2669;0.0317
0001117657;6.8019;2.9808;2.3918;-0.0721;-0.2926;0.0132
0001117666;6.1938;2.4134;2.0399;-0.0029;-0.3190;-0.0173
0001117675;5.9544;2.2865;1.6137;0.0794;-0.3332;-0.0281
0001117684;5.9640;2.2625;1.1995;0.1438;-0.3443;-0.0185
0001117693;6.1387;2.4684;1.3910;0.1825;-0.3701;-0.0127
0001117702;6.6128;2.9113;1.8100;0.1685;-0.3754;0.0175
0001117711;6.9312;3.2154;2.3655;0.1224;-0.3619;0.0298
0001117720;7.6375;3.6847;2.4086;0.0694;-0.3252;0.0318
0001117729;7.9272;3.5626;2.3128;0.0273;-0.2723;0.0289
0001117738;7.9823;3.2944;2.0207;0.0111;-0.1972;0.0226
0001117747;8.0493;2.9377;1.8172;0.0300;-0.1315;0.0144
0001117756;7.8075;2.8730;1.7286;0.0444;-0.0642;0.0228
0001117765;7.3622;2.9113;1.9417;0.0534;-0.0242;0.0276
0001117774;6.9935;3.1244;2.3822;0.0462;-0.0104;0.0408
0001117783;6.6966;3.2561;2.7797;0.0137;-0.0250;0.0625
0001117792;6.6008;3.4596;2.9090;-0.0024;-0.0630;0.0601
0001117801;6.5050;3.5338;2.8515;-0.0119;-0.0918;0.0405
0001117810;6.5338;3.4237;2.6049;0.0013;-0.1186;-0.0015
0001117819;6.5218;3.5195;2.3727;0.0105;-0.1266;-0.0469
0001117828;6.3638;3.4405;2.1620;0.0144;-0.1464;-0.0947
0001117837;6.4093;3.3686;2.1093;0.0136;-0.1576;-0.1172
0001117846;6.4332;3.3423;1.8531;0.0096;-0.1812;-0.1275
0001117855;6.0549;2.8156;1.8004;0.0207;-0.2216;-0.1227
0001117864;5.9999;2.7557;1.6544;0.0544;-0.2745;-0.1031
0001117873;5.5641;2.6408;1.7166;0.0994;-0.3255;-0.0733
0001117882;5.6527;3.1364;1.7071;0.1502;-0.3749;-0.0614
0001117891;5.6719;3.2825;1.7334;0.1605;-0.3812;-0.0489
0001117900;6.2800;3.9840;1.8435;0.1328;-0.3813;-0.0512
0001117909;6.9025;4.2449;1.7813;0.0865;-0.3685;-0.0456
0001117918;7.3215;4.1324;1.8914;0.0366;-0.3567;-0.0433
0001117927;7.5753;3.9433;1.8699;-0.0069;-0.3251;-0.0310
0001117936;7.9272;3.8738;1.6616;-0.0218;-0.3018;-0.0217
0001117945;7.5585;3.6176;1.5203;-0.0065;-0.2894;-0.0218
0001117954;7.3765;3.5698;1.4150;0.0204;-0.2864;-0.0169
0001117963;6.8091;3.7421;1.4988;0.0585;-0.2927;-0.0175
0001117972;6.4979;4.0893;1.5467;0.0823;-0.2971;-0.0306
0001117981;6.2249;4.4724;1.6568;0.0742;-0.2974;-0.0360
0001117990;5.9568;4.7501;1.5227;0.0562;-0.3151;-0.0504
0001117999;5.9711;4.9656;1.4964;0.0270;-0.3292;-0.0650
0001118008;5.9687;4.6591;1.5443;-0.0136;-0.3435;-0.0749
0001118017;6.2968;4.7477;1.5179;-0.0412;-0.3750;-0.1021
0001118026;6.3758;4.5921;1.6735;-0.0674;-0.4000;-0.1055
0001118035;6.6272;4.6543;1.6568;-0.0987;-0.4323;-0.1204
0001118044;6.4643;4.5777;1.5897;-0.1215;-0.4751;-0.1372
0001118053;6.3087;4.3000;1.6305;-0.1596;-0.5085;-0.1487
0001118062;6.3207;4.2449;1.5802;-0.1928;-0.5412;-0.1616
0001118071;6.2297;4.2617;1.5969;-0.2096;-0.5734;-0.1808
0001118080;6.1363;4.2449;1.5802;-0.2234;-0.6057;-0.2037
0001118089;6.1531;4.0510;1.4317;-0.2466;-0.6250;-0.2217
0001118098;6.3662;4.1851;1.4222;-0.2669;-0.6626;-0.2356
0001118107;6.3159;4.1228;1.3838;-0.3027;-0.6824;-0.2230
