time;acc_x;acc_y;acc_z;gyro_x;gyro_y;gyro_z
0000614977;5.6647;3.1053;1.8914;0.1402;-0.1128;-0.0456
0000614986;5.2577;3.1005;1.8555;0.1487;-0.0677;-0.0230
0000614993;5.4827;3.2609;1.9201;0.1684;-0.0436;0.0096
0000615001;5.4755;3.2513;1.8747;0.2001;-0.0377;0.0572
0000615010;5.5426;3.1867;1.7885;0.2241;-0.0412;0.1182
0000615018;5.8658;3.1675;1.8316;0.2364;-0.0353;0.1652
0000615026;6.1723;3.2130;1.8244;0.2236;-0.0037;0.1973
0000615038;6.2345;3.1364;2.1308;0.2193;0.0354;0.2098
0000615046;6.1028;3.1603;2.1428;0.2085;0.0600;0.2258
0000615057;5.8419;3.5219;2.3655;0.2134;0.0691;0.2578
0000615065;5.4899;3.7757;2.1165;0.1985;0.0645;0.2959
0000615077;5.3654;4.2258;1.9106;0.1246;0.0509;0.3372
0000615085;5.2050;4.0869;1.8268;0.0617;0.0450;0.3428
0000615093;5.2313;4.1324;2.0303;0.0123;0.0240;0.3361
0000615157;5.2601;1.8124;1.5826;-0.0969;-0.2006;0.3379
0000615165;5.3103;1.7095;1.5036;-0.0778;-0.2256;0.3452
0000615177;5.1044;1.4485;1.4102;-0.0654;-0.2486;0.3497
0000615185;5.0039;1.5562;1.3910;-0.0458;-0.2685;0.3240
0000615196;5.0733;1.7071;1.3671;-0.0266;-0.2906;0.2818
0000615204;4.8961;1.6161;1.4341;-0.0048;-0.3276;0.2365
0000615212;4.9512;1.8579;1.5395;0.0117;-0.3577;0.2046
0000615224;4.9392;2.0303;1.4748;0.0440;-0.4193;0.1502
0000615232;4.8842;2.2721;1.4724;0.0644;-0.4513;0.1240
0000615243;4.6783;2.4373;1.4533;0.0827;-0.5040;0.0863
0000615251;4.7836;2.8180;1.5658;0.0841;-0.5291;0.0777
0000615263;4.9368;2.9975;1.7693;0.0674;-0.5669;0.0667
0000615271;5.0709;2.9808;1.8316;0.0621;-0.5861;0.0562
0000615279;5.3008;3.1292;2.0375;0.0569;-0.6067;0.0424
0000615290;5.5354;3.3303;2.1620;0.0434;-0.6141;0.0067
0000615298;5.5809;3.2537;2.2649;0.0253;-0.6162;-0.0313
0000615310;5.7365;3.5506;2.5402;-0.0196;-0.6126;-0.0886
0000615318;5.4157;3.4884;2.6408;-0.0512;-0.6091;-0.1122
0000615329;5.3654;3.7254;2.8395;-0.0867;-0.6159;-0.1399
0000615337;5.2625;3.5578;2.9018;-0.1073;-0.6255;-0.1379
0000615349;5.1140;3.4788;3.1173;-0.1254;-0.6367;-0.1138
0000615357;5.2648;3.5027;2.9880;-0.1214;-0.6334;-0.0753
0000615365;5.4731;3.2441;2.8132;-0.1067;-0.6436;-0.0410
0000615428;6.6774;1.8507;1.6448;-0.0253;-0.5478;0.0281
0000615436;6.6176;1.8723;1.5945;-0.0404;-0.5129;0.0085
0000615448;6.5912;2.2697;1.5897;-0.0525;-0.4646;-0.0328
0000615456;6.2441;2.3559;1.7334;-0.0593;-0.4391;-0.0628
0000615467;5.7628;2.5833;2.0255;-0.0548;-0.4191;-0.0770
0000615475;5.1930;2.9018;2.2841;-0.0557;-0.4271;-0.0745
0000615487;4.8507;3.1627;2.5762;-0.0246;-0.4545;-0.0437
0000615495;4.3862;3.0358;2.8946;-0.0020;-0.4906;-0.0087
0000615503;4.4317;3.1723;2.8730;0.0200;-0.5267;0.0357
0000615514;4.5059;3.3662;2.7581;0.0358;-0.5840;0.0730
0000615522;4.7022;3.2274;2.6911;0.0284;-0.6059;0.0830
0000615534;4.7429;3.0071;2.7222;0.0261;-0.6135;0.0719
0000615542;4.9919;3.0478;2.7366;0.0179;-0.6109;0.0526
0000615553;4.9799;2.7964;2.8683;0.0048;-0.6211;-0.0061
0000615561;4.8100;2.5211;2.7701;-0.0103;-0.6430;-0.0453
0000615569;4.6495;2.1979;2.7509;0.0023;-0.6949;-0.0902
0000615581;4.0151;1.8866;2.3104;0.0481;-0.7743;-0.1106
0000615589;3.9433;1.8842;2.2242;0.0771;-0.8338;-0.0979
0000615600;3.8666;1.8148;2.0590;0.0847;-0.8964;-0.0782
0000615608;3.7421;1.7047;2.0734;0.0673;-0.9466;-0.0632
0000615620;3.7302;1.3001;2.1428;0.0461;-1.0416;-0.0659
0000615628;4.0055;1.3815;2.1524;0.0452;-1.1020;-0.0850
0000615692;6.9695;1.3024;1.8028;0.2053;-1.1326;-0.5716
0000615700;7.3789;1.4916;1.2498;0.2498;-1.0243;-0.6246
0000615708;7.5753;1.4581;0.9505;0.2769;-0.9117;-0.6726
0000615720;8.0613;1.8603;1.1013;0.3288;-0.7217;-0.7049
0000615728;8.2528;2.1021;1.4485;0.4121;-0.5913;-0.6960
0000615739;8.4467;2.6600;1.7214;0.5488;-0.4218;-0.6404
0000615747;8.4635;3.0789;2.0590;0.6388;-0.2966;-0.5633
0000615759;8.2121;4.0606;1.2570;0.7409;-0.1494;-0.4040
0000615767;7.9080;4.7860;0.5076;0.6921;-0.0853;-0.2866
0000615775;7.7668;5.2481;0.2753;0.5041;-0.0284;-0.1435
0000615786;7.5106;5.0398;0.7542;0.2545;0.0165;-0.0036
0000615794;7.2089;4.6591;0.6656;0.1759;0.0348;0.0298
0000615806;6.6367;4.0773;0.5794;0.1147;0.0572;-0.0064
0000615814;6.3542;3.7972;0.2921;0.0613;0.0743;-0.0318
0000615825;6.1675;3.2657;0.5315;0.0039;0.0993;-0.0600
0000615833;6.2153;3.0813;0.7207;0.0009;0.1045;-0.0889
0000615841;6.0549;3.0670;0.8308;0.0365;0.1354;-0.1194
0000615853;6.1244;2.9664;0.9960;0.1111;0.1697;-0.1492
0000615861;6.0430;2.9018;1.0008;0.1352;0.1976;-0.1529
0000615872;6.1124;2.8706;0.9146;0.1511;0.2130;-0.1428
0000615880;5.9903;2.9449;0.7805;0.1627;0.2426;-0.1251
0000615892;5.9927;3.0909;0.5052;0.1601;0.2627;-0.1231
0000615900;5.8993;3.2058;0.3328;0.1139;0.2798;-0.1195
0000615908;5.8155;3.3878;0.7518;0.0180;0.2774;-0.1066
0000615972;5.5354;3.7565;1.5826;-0.5323;0.0340;-0.0889
0000615980;5.6144;3.4381;1.1899;-0.5728;0.0004;-0.0667
0000615992;5.8179;2.8276;1.0511;-0.6086;-0.0505;-0.0552
0000616000;5.8059;2.1931;1.1061;-0.5905;-0.0823;-0.0318
0000616011;6.0501;1.8076;0.7374;-0.4998;-0.1023;-0.0005
0000616019;5.9400;1.3001;0.5171;-0.3984;-0.1347;0.0152
0000616031;5.8203;1.1923;0.3663;-0.2190;-0.1652;0.0008
0000616039;5.7581;1.3479;0.3831;-0.1041;-0.1604;-0.0188
0000616047;5.6910;1.8914;0.6105;-0.0233;-0.1466;-0.0540
0000616058;5.7724;2.8204;0.9840;0.0517;-0.1335;-0.0921
0000616066;6.2441;3.6009;1.2282;0.0629;-0.1247;-0.1155
0000616078;6.0310;4.0103;1.3192;-0.0176;-0.1143;-0.1058
0000616086;5.9137;4.1515;1.3671;-0.0751;-0.1263;-0.0921
0000616097;5.4181;3.7182;1.3982;-0.1380;-0.1368;-0.0432
0000616105;5.1475;3.4237;1.1588;-0.1480;-0.1733;-0.0205
0000616117;4.7142;3.0526;0.9290;-0.1736;-0.2414;0.0294
0000616125;4.6926;2.6576;0.9553;-0.1845;-0.2895;0.0497
0000616133;4.5514;2.5642;0.9720;-0.1792;-0.3491;0.0449
0000616144;4.7956;2.8012;1.0630;-0.1472;-0.4289;0.0173
0000616152;5.3534;3.0622;1.4653;-0.1508;-0.4687;-0.0132
0000616164;5.9185;3.3615;1.6017;-0.1920;-0.5233;-0.0582
0000616172;6.1938;3.1484;1.5634;-0.2201;-0.5315;-0.0594
0000616239;6.0573;2.8802;2.2218;-0.1140;-0.4379;0.0024
0000616247;6.3494;2.9090;2.2625;-0.1315;-0.4191;0.0249
0000616255;6.6128;2.7964;2.1691;-0.1378;-0.4093;0.0408
0000616267;6.6702;2.1787;1.7502;-0.1363;-0.3655;0.0500
0000616275;6.8953;2.0327;1.8603;-0.1065;-0.3395;0.0413
0000616286;6.9432;1.8220;1.6352;-0.0629;-0.2958;0.0199
0000616294;6.9264;1.7957;1.7119;-0.0217;-0.2635;0.0107
0000616306;6.5769;2.1165;1.9249;0.0256;-0.2085;-0.0032
0000616314;6.4524;2.5618;2.2529;0.0421;-0.1675;0.0013
0000616325;6.2345;2.7078;2.2482;0.0496;-0.1244;0.0123
0000616333;6.2560;2.8443;2.2266;0.0322;-0.0987;0.0306
0000616341;6.2297;2.8108;2.0375;0.0265;-0.0818;0.0396
0000616353;6.3303;2.8252;1.9848;0.0079;-0.0689;0.0441
0000616361;6.0741;2.6552;1.9297;-0.0009;-0.0713;0.0318
0000616373;5.7485;2.7461;1.9728;-0.0016;-0.0829;0.0100
0000616381;5.2361;2.7461;1.8124;-0.0023;-0.0938;-0.0051
0000616392;4.6902;2.8802;1.9369;0.0012;-0.1061;-0.0213
0000616400;4.5155;2.9736;1.8459;0.0065;-0.1167;-0.0318
0000616408;4.7477;3.2513;1.9656;0.0097;-0.1356;-0.0462
0000616420;4.8842;3.1484;1.9249;-0.0120;-0.1625;-0.0659
0000616428;5.4779;3.5003;1.9680;-0.0248;-0.1852;-0.0665
0000616495;6.5386;2.7653;1.8148;-0.0019;0.0033;-0.0412
0000616503;6.7181;2.7150;1.9297;0.0119;0.0468;-0.0356
0000616515;6.5362;2.7174;2.1189;0.0510;0.1227;-0.0107
0000616523;6.4691;2.6959;1.9297;0.0785;0.1596;-0.0001
0000616534;6.1914;2.4995;1.8938;0.0907;0.2142;0.0316
0000616542;6.1316;2.5642;1.7286;0.0903;0.2494;0.0693
0000616550;6.0980;2.5977;1.5179;0.1085;0.2610;0.0914
0000616562;5.8706;2.5786;1.2306;0.1259;0.2842;0.1045
0000616570;5.8730;2.7270;1.1540;0.1432;0.2858;0.0969
0000616581;5.6934;2.7629;1.2761;0.1410;0.2828;0.0674
0000616589;5.6455;2.7701;1.1636;0.1468;0.2866;0.0301
0000616597;5.5881;2.8611;1.3551;0.1486;0.2805;-0.0103
0000616609;5.1547;2.9449;1.1253;0.1681;0.2706;-0.0787
0000616617;4.9201;3.1220;1.1444;0.1641;0.2703;-0.0889
0000616628;4.7238;3.1939;1.4102;0.1522;0.2409;-0.0917
0000616636;4.7645;3.1963;1.7190;0.1282;0.2241;-0.0785
0000616648;5.1451;3.1316;1.9728;0.0871;0.2138;-0.0683
0000616656;5.5665;2.9640;2.0399;0.0694;0.2152;-0.0502
0000616664;5.9233;3.0670;2.1787;0.0564;0.2029;-0.0266
0000616675;5.9951;2.9353;2.3894;0.0496;0.1681;0.0023
0000616683;5.9544;3.2226;2.3176;0.0376;0.1182;0.0257
0000616695;5.6455;3.2801;2.2625;0.0029;0.0342;0.0284
0000616703;5.1595;3.1340;2.2793;-0.0025;-0.0249;0.0123
0000616770;7.5417;1.9154;0.7446;0.3120;-0.0179;0.0798
0000616778;8.1139;2.4181;0.6608;0.3251;0.0382;0.1025
0000616786;8.2720;2.5977;0.7470;0.3170;0.0934;0.1070
0000616798;7.5154;3.1436;1.0151;0.2996;0.1664;0.0762
0000616806;6.6272;3.6248;1.2498;0.2599;0.1855;0.0474
0000616817;5.2648;3.8738;1.4413;0.1924;0.1533;0.0197
0000616825;4.4867;3.9768;1.6951;0.1418;0.1239;0.0096
0000616837;3.8930;3.8714;1.9082;0.1053;0.0822;-0.0360
0000616845;4.0869;3.7757;1.9848;0.1214;0.0616;-0.0644
0000616853;3.7182;3.0885;1.8890;0.1290;0.0457;-0.0801
0000616864;4.5035;2.9209;1.8842;0.1450;0.0131;-0.0596
0000616872;4.5562;2.7078;2.0590;0.1351;-0.0199;-0.0374
0000616884;4.4748;2.5091;2.0830;0.0897;-0.0910;-0.0153
0000616892;4.4365;2.2913;2.0997;0.0625;-0.1338;-0.0274
0000616903;4.2282;2.4397;2.4588;0.0466;-0.1912;-0.0750
0000616911;3.9552;2.5019;2.7078;0.0394;-0.2467;-0.1372
0000616919;3.9600;2.7916;2.8874;0.0558;-0.2975;-0.1933
0000616931;3.7876;2.8635;2.7557;0.0961;-0.3636;-0.2048
0000616939;3.8642;3.1723;2.6624;0.1143;-0.4213;-0.1845
0000616950;3.8978;3.0191;2.6121;0.0745;-0.4971;-0.1535
0000616958;4.1946;2.9257;2.6097;0.0481;-0.5417;-0.1539
0000616970;4.6974;2.7342;2.5570;0.0168;-0.5820;-0.1795
0000616978;4.9416;2.5043;2.4373;0.0204;-0.6017;-0.2112
0000617046;6.1292;2.6360;2.5043;0.3100;-0.2831;0.0426
0000617054;6.0286;3.9480;2.6504;0.3192;-0.3126;0.1254
0000617062;5.4636;4.7166;2.7150;0.3242;-0.3188;0.1752
0000617074;4.9488;5.5522;2.4445;0.3052;-0.3052;0.1683
0000617082;4.4005;5.2720;2.1189;0.2723;-0.2782;0.1375
0000617093;4.9895;4.8483;1.4796;0.1899;-0.2554;0.1126
0000617101;5.6886;4.1515;1.0343;0.1299;-0.2438;0.1124
0000617113;6.4787;3.0406;0.9649;0.0394;-0.2426;0.0941
0000617121;6.5888;2.3966;1.1803;0.0019;-0.2378;0.0731
0000617129;6.8546;2.1979;1.4246;0.0005;-0.2431;0.0246
0000617140;6.4835;2.1045;1.5969;0.0249;-0.2158;-0.0450
0000617148;6.2058;2.1476;1.5778;0.0566;-0.1848;-0.0702
0000617160;5.7988;2.3224;1.5347;0.0919;-0.1507;-0.0885
0000617168;5.8107;2.6767;1.4054;0.1046;-0.1316;-0.0755
0000617179;5.7940;2.8539;1.6041;0.1015;-0.1259;-0.0288
0000617187;5.7221;3.1029;1.6065;0.0902;-0.1320;-0.0071
0000617195;5.4564;3.2370;1.5371;0.0637;-0.1541;0.0008
0000617207;5.3319;3.0095;1.3264;0.0544;-0.1859;-0.0230
0000617215;5.3175;2.8036;1.2210;0.0727;-0.1852;-0.0420
0000617226;5.2840;2.3774;0.8547;0.0773;-0.1619;-0.0781
0000617234;5.6982;2.3487;0.6560;0.0793;-0.1118;-0.0905
0000617246;6.4955;2.4565;1.0056;0.0694;-0.0544;-0.0701
0000617254;6.6607;2.5738;1.0750;0.0578;-0.0421;-0.0292
0000617322;5.5091;2.1284;0.7087;0.1082;0.0270;-0.0550
0000617330;5.6479;2.1524;0.7685;0.1218;0.0346;-0.0566
0000617338;5.8730;2.2098;0.6057;0.1639;0.0450;-0.0316
0000617350;5.8251;2.5067;0.8428;0.2178;0.0354;0.0233
0000617358;5.8299;2.5331;0.9864;0.2583;0.0023;0.0478
0000617369;5.9496;2.8371;0.4645;0.2826;-0.0143;0.0939
0000617377;5.8514;2.9137;0.3591;0.2743;-0.0373;0.0990
0000617389;5.7150;3.0765;0.4501;0.2329;-0.0221;0.0818
0000617397;5.5426;3.0598;0.5459;0.2090;-0.0037;0.0665
0000617405;5.6120;2.8611;0.5650;0.2264;0.0072;0.0573
0000617416;5.7461;2.8012;0.4310;0.2554;0.0088;0.0818
0000617424;5.9759;2.8659;0.4214;0.2874;0.0185;0.1216
0000617436;6.2728;3.1005;0.5483;0.3032;0.0027;0.1640
0000617444;6.5242;3.6057;0.6991;0.2771;-0.0131;0.1741
0000617452;6.4260;3.8331;0.7135;0.2289;-0.0364;0.1544
0000617463;5.9592;3.8810;0.8164;0.1628;-0.0444;0.1132
0000617471;5.8562;4.0294;1.0247;0.1244;-0.0512;0.0652
0000617483;5.5138;3.7733;0.9697;0.0818;-0.0221;0.0053
0000617491;5.7868;3.7900;0.7326;0.0561;-0.0043;-0.0215
0000617502;6.1196;3.8403;0.7614;0.0413;0.0101;0.0039
0000617510;6.1986;3.6990;0.9625;0.0131;-0.0068;0.0273
0000617518;5.9520;3.5362;0.8715;-0.0124;-0.0236;0.0474
0000617530;5.8155;3.2154;0.8452;-0.0060;-0.0560;0.0332
0000617538;5.7102;2.8994;0.5124;0.0208;-0.0577;0.0296
0000617606;5.4612;3.4309;0.3735;-0.0516;-0.0240;0.0866
0000617614;5.3127;2.9449;-0.0814;-0.0677;-0.0268;0.0773
0000617626;5.3750;2.6169;-0.2658;-0.0544;-0.0313;0.0536
0000617634;5.2170;2.6264;-0.1700;-0.0522;-0.0364;0.0504
0000617645;5.3726;3.1173;0.3831;-0.0590;-0.0574;0.0621
0000617653;5.3175;3.4740;1.0726;-0.0801;-0.1013;0.0625
0000617661;5.1284;3.5721;1.3503;-0.1074;-0.1431;0.0517
0000617673;5.4253;3.6224;0.9553;-0.1147;-0.2049;0.0211
0000617681;5.7174;3.1675;0.5938;-0.1228;-0.2297;-0.0043
0000617692;5.8538;2.4588;0.0718;-0.1178;-0.2430;-0.0254
0000617700;5.8538;2.0566;-0.3950;-0.0901;-0.2497;-0.0312
0000617712;6.0430;2.0016;-0.7230;-0.0300;-0.2330;-0.0265
0000617720;5.9903;2.0782;-0.4381;0.0176;-0.2262;-0.0043
0000617731;5.8275;2.7749;0.1915;0.0578;-0.2713;0.0149
0000617739;5.5378;2.9712;0.4501;0.0789;-0.3146;0.0173
0000617747;5.7269;3.4692;0.5986;0.0791;-0.3423;0.0225
0000617759;5.4157;3.5865;0.5387;0.0466;-0.3559;0.0245
0000617767;5.5210;3.4572;0.3998;-0.0075;-0.3427;0.0200
0000617779;5.9424;3.2082;0.2203;-0.0995;-0.2694;0.0326
0000617787;6.4284;3.0454;0.1532;-0.1520;-0.2068;0.0508
0000617799;6.6798;2.7725;0.4238;-0.2344;-0.1278;0.0766
0000617807;6.6511;2.4804;0.5507;-0.2603;-0.0925;0.1063
0000617815;6.3159;2.0853;0.5842;-0.2361;-0.0917;0.1211
0000617883;5.9951;3.1556;0.4525;-0.1240;0.1007;0.1238
0000617891;5.8275;3.0143;0.3855;-0.1351;0.1104;0.1287
0000617902;5.8706;2.7102;0.2298;-0.1463;0.1039;0.1354
0000617910;5.7126;2.3415;0.2251;-0.1603;0.0973;0.1328
0000617922;5.5019;2.1979;0.3112;-0.1490;0.0850;0.1126
0000617930;5.2433;2.0518;0.2634;-0.1310;0.0673;0.0878
0000617938;4.9752;1.9561;0.3663;-0.1066;0.0396;0.0737
0000617949;4.9632;2.1620;0.4501;-0.0953;0.0132;0.0621
0000617957;4.6831;2.0470;0.5195;-0.0950;-0.0016;0.0580
0000617969;4.7956;2.3822;0.9170;-0.1021;0.0072;0.0432
0000617977;4.9321;2.3607;1.3815;-0.1144;0.0238;0.0394
0000617988;5.3103;2.9018;1.6305;-0.0793;0.0408;0.0329
0000617996;5.9496;3.3710;2.2027;-0.0350;0.0565;0.0278
0000618008;6.9743;4.2329;2.6935;-0.0023;0.0942;0.0177
0000618016;7.6830;4.6974;2.8276;0.0442;0.1092;0.0135
0000618024;8.2791;5.0877;2.7485;0.0723;0.1315;0.0252
0000618035;8.6742;5.4540;2.5570;0.0580;0.1657;0.0509
0000618043;8.4731;5.3534;2.2266;0.0257;0.1877;0.0734
0000618055;7.6806;4.9249;1.5467;-0.0362;0.2181;0.1013
0000618063;7.1156;4.6855;1.3168;-0.0847;0.2274;0.1232
0000618071;6.0908;4.3670;1.0319;-0.1147;0.2137;0.1256
0000618083;4.7692;3.8547;1.2617;-0.1422;0.1588;0.1094
0000618091;3.9193;3.6368;1.4389;-0.1527;0.1050;0.0937
0000618159;7.0461;3.1987;0.6560;-0.1424;-0.2386;0.0017
0000618167;6.4691;2.8108;0.8715;-0.1549;-0.2342;0.0254
0000618178;5.6168;2.5283;1.0774;-0.1468;-0.2573;0.0474
0000618186;4.7190;2.5977;1.2905;-0.1412;-0.2798;0.0628
0000618198;4.5346;3.2178;1.4700;-0.1355;-0.3301;0.0560
0000618206;4.7597;3.6129;1.5969;-0.1407;-0.3748;0.0398
0000618214;5.2960;3.9935;1.6544;-0.1390;-0.4250;0.0152
0000618225;6.0597;4.2138;1.7597;-0.1514;-0.4815;-0.0084
0000618233;6.6487;4.3287;1.5371;-0.1624;-0.5123;-0.0329
0000618245;7.0892;3.7350;1.2258;-0.1835;-0.5272;-0.0372
0000618253;7.2377;3.1220;1.1205;-0.1905;-0.5339;-0.0330
0000618264;6.9719;2.5115;1.0654;-0.1888;-0.5189;-0.0136
0000618272;6.7756;2.2314;1.1947;-0.1797;-0.4978;0.0019
0000618280;6.6846;2.0063;1.1420;-0.1784;-0.4754;0.0209
0000618292;6.6918;2.0734;1.3120;-0.1741;-0.4431;0.0310
0000618300;6.6726;2.4110;1.3767;-0.1611;-0.4231;0.0237
0000618311;6.4811;2.4229;1.3431;-0.1310;-0.4069;0.0099
0000618319;6.6726;2.6839;1.3168;-0.1268;-0.3921;0.0044
0000618331;6.7062;3.0622;1.5514;-0.1410;-0.3605;-0.0116
0000618339;6.7277;3.0023;1.7957;-0.1555;-0.3455;-0.0211
0000618351;6.7660;2.9161;1.7933;-0.1843;-0.3212;-0.0270
0000618359;6.6798;2.6624;1.6783;-0.1984;-0.3119;-0.0276
0000618367;6.9887;2.4972;1.5610;-0.1988;-0.3043;-0.0332
0000618435;6.6750;2.9425;1.8220;-0.1135;-0.3517;-0.0636
0000618443;6.8570;2.9736;1.6903;-0.1302;-0.3573;-0.0733
0000618454;6.9647;2.4253;1.4389;-0.1151;-0.3556;-0.0705
0000618462;7.0581;2.1237;1.2306;-0.0815;-0.3565;-0.0741
0000618474;7.0054;1.6592;1.1564;-0.0088;-0.3381;-0.0701
0000618482;7.3071;1.8124;1.1732;0.0284;-0.3198;-0.0706
0000618493;7.2520;1.6999;1.1301;0.0726;-0.2971;-0.0878
0000618501;7.3023;2.1811;1.1420;0.0825;-0.2773;-0.0874
0000618509;7.4124;2.4014;1.2617;0.0849;-0.2673;-0.0813
0000618521;7.0844;2.5977;1.4748;0.0498;-0.2555;-0.0691
0000618529;7.0557;2.7557;1.3934;0.0394;-0.2611;-0.0657
0000618540;6.9097;2.8491;1.2905;0.0140;-0.2617;-0.0561
0000618548;6.7397;2.8826;1.2905;0.0053;-0.2666;-0.0470
0000618560;6.6463;2.8132;1.3599;-0.0107;-0.2765;-0.0480
0000618568;6.6846;2.8850;1.4293;-0.0056;-0.2924;-0.0482
0000618579;6.8067;2.7390;1.3527;-0.0104;-0.3182;-0.0509
0000618587;6.8307;2.7605;1.3168;-0.0123;-0.3264;-0.0561
0000618595;6.7229;2.6791;1.1851;-0.0099;-0.3311;-0.0691
0000618607;6.6319;2.9281;1.4078;0.0092;-0.3351;-0.0987
0000618615;6.8019;3.3615;1.5347;0.0081;-0.3331;-0.1143
0000618627;6.5122;3.5243;1.5203;0.0011;-0.3527;-0.1235
0000618635;6.7062;3.8211;1.5634;-0.0135;-0.3700;-0.1228
0000618701;6.9576;3.1556;1.2019;-0.0381;-0.3825;-0.1179
0000618709;7.1874;3.3160;1.3288;-0.0480;-0.3664;-0.1231
0000618720;7.2065;3.4788;1.3455;-0.0850;-0.3371;-0.1115
0000618728;7.1323;3.3878;1.2641;-0.1144;-0.3289;-0.1049
0000618736;6.9001;3.2346;1.3240;-0.1358;-0.3052;-0.0835
0000618748;6.6343;2.7390;1.1612;-0.1416;-0.2903;-0.0650
0000618756;6.5529;2.6169;1.1109;-0.1320;-0.2855;-0.0561
0000618767;6.7133;2.7916;1.1349;-0.0974;-0.2922;-0.0550
0000618775;6.6463;2.6264;1.2450;-0.0763;-0.2911;-0.0497
0000618787;6.9504;2.9712;1.4150;-0.0681;-0.2810;-0.0404
0000618795;7.1730;3.0119;1.1875;-0.0721;-0.2727;-0.0222
0000618806;7.1347;2.9712;1.1827;-0.0823;-0.2531;-0.0061
0000618814;7.0581;2.8299;1.1732;-0.0970;-0.2340;-0.0057
0000618822;7.3502;2.9544;1.2258;-0.1013;-0.2234;-0.0108
0000618834;7.3143;2.8635;0.9720;-0.0965;-0.2048;-0.0177
0000618842;7.0461;2.6456;1.0511;-0.0941;-0.1949;-0.0228
0000618853;7.0078;2.7198;1.0630;-0.0887;-0.1933;-0.0308
0000618861;6.9599;2.7509;0.9601;-0.0786;-0.2106;-0.0484
0000618873;6.5888;2.7821;1.0391;-0.0590;-0.2257;-0.0581
0000618881;6.4021;2.9066;1.0965;-0.0550;-0.2390;-0.0632
0000618893;6.3614;3.0765;1.1779;-0.0750;-0.2618;-0.0544
0000618901;6.3470;2.9090;1.1636;-0.0910;-0.2798;-0.0417
0000618909;6.5553;2.9161;1.0630;-0.1041;-0.3090;-0.0297
0000618975;7.7405;2.6767;1.2139;-0.0512;-0.2523;-0.0707
0000618983;7.4939;2.6719;1.3958;-0.0570;-0.2598;-0.0626
0000618994;6.8785;2.4900;1.3910;-0.0606;-0.2986;-0.0266
0000619002;6.7397;2.4373;1.0726;-0.0242;-0.3391;0.0100
0000619014;6.5266;2.1189;0.7446;0.0560;-0.4013;0.0338
0000619022;6.4500;2.0231;0.6536;0.0994;-0.4206;0.0464
0000619030;6.5481;2.0399;0.5962;0.1419;-0.4431;0.0477
0000619041;6.6750;2.0638;0.7638;0.1804;-0.4684;0.0392
0000619049;6.9504;2.2649;0.9553;0.1895;-0.4570;0.0550
0000619061;6.9025;2.5402;1.3431;0.1732;-0.4478;0.0850
0000619069;6.9791;2.6959;1.7310;0.1259;-0.4350;0.1116
0000619081;7.1898;3.2537;1.9034;0.0249;-0.4161;0.1295
0000619089;6.8450;3.3758;2.0303;-0.0352;-0.4082;0.1214
0000619101;6.3231;3.4285;2.4301;-0.0790;-0.4014;0.1005
0000619109;5.9640;3.6488;2.8060;-0.0774;-0.4153;0.0757
0000619117;5.9161;4.0486;2.9161;-0.0476;-0.4584;0.0333
0000619129;5.6000;4.0438;2.6743;0.0196;-0.5177;-0.0329
0000619137;5.5043;3.9744;2.2314;0.0755;-0.5361;-0.0677
0000619149;5.6264;3.7350;2.4229;0.1059;-0.5725;-0.1251
0000619157;5.8658;3.7302;2.1763;0.1083;-0.5810;-0.1299
0000619169;6.5050;3.6440;2.3559;0.1214;-0.6207;-0.1152
0000619177;6.8187;3.6129;2.1213;0.1009;-0.6081;-0.0886
0000619185;7.2161;3.5745;1.8579;0.0667;-0.5894;-0.0661
0000619249;7.1251;3.0526;1.6161;-0.1347;-0.1928;-0.1352
0000619257;7.1730;2.6217;1.5634;-0.1131;-0.1683;-0.1514
0000619269;7.3670;2.1093;1.4748;-0.0673;-0.1299;-0.1687
0000619277;7.5106;1.8675;1.4341;-0.0518;-0.0790;-0.1557
0000619289;7.6758;1.8651;2.2242;-0.0329;0.0129;-0.1431
0000619297;7.6351;2.4995;2.7126;-0.0278;0.0655;-0.1139
0000619309;7.1371;3.8020;2.9521;0.0135;0.0953;-0.0508
0000619317;6.7349;4.9560;2.9497;0.0341;0.1030;0.0033
0000619325;6.1794;5.6958;2.9449;0.0402;0.1220;0.0429
0000619337;5.9041;6.4787;3.0239;-0.0105;0.1724;0.0749
0000619345;5.8826;6.2225;3.1053;-0.0638;0.1867;0.0777
0000619357;6.3351;5.0805;2.7366;-0.1556;0.1677;0.0658
0000619365;6.5457;3.9313;2.3128;-0.1736;0.1569;0.0445
0000619377;6.9312;2.4517;1.9944;-0.1290;0.1867;0.0152
0000619385;7.2592;1.9106;1.9010;-0.0926;0.2245;0.0041
0000619393;7.5824;1.7071;1.7095;-0.0557;0.2661;-0.0152
0000619405;7.7476;1.2426;1.6137;0.0080;0.3284;-0.0566
0000619413;8.0230;1.5826;1.6137;0.0402;0.3702;-0.0999
0000619425;7.6830;1.8004;1.3647;0.0369;0.4612;-0.1549
0000619433;7.2784;1.9776;1.4533;0.0176;0.5224;-0.1815
0000619445;6.8163;2.3559;1.7358;0.0000;0.5838;-0.1915
0000619453;6.5050;2.8970;1.8172;-0.0091;0.5930;-0.1903
0000619461;6.2273;3.1173;2.0446;-0.0108;0.5885;-0.1667
0000619525;6.8618;2.3679;1.5706;0.1482;0.5113;0.0328
0000619533;7.1371;2.6121;1.6305;0.1482;0.5481;0.0389
0000619545;7.2449;2.6408;1.6209;0.1099;0.6182;0.0446
0000619553;7.3861;3.0430;1.6879;0.0847;0.6559;0.0469
0000619565;7.1587;2.9616;1.8340;0.0120;0.6969;0.0480
0000619573;6.9935;2.8467;1.7142;-0.0107;0.7105;0.0564
0000619581;6.6942;2.7126;1.8148;-0.0232;0.7167;0.0715
0000619593;6.4021;2.5833;1.7142;0.0056;0.7238;0.0753
0000619601;6.3566;2.5307;1.6400;0.0365;0.7262;0.0799
0000619613;6.3470;2.8970;1.6233;0.0859;0.7212;0.0741
0000619621;6.2991;3.0382;1.7573;0.0907;0.7296;0.0794
0000619633;6.3351;3.2729;1.9225;0.0541;0.7390;0.0798
0000619641;6.2872;3.4596;2.0518;0.0016;0.7424;0.0883
0000619649;6.4021;3.2848;2.0734;-0.0501;0.7452;0.0954
0000619661;5.8754;2.7126;1.9585;-0.0966;0.7209;0.0855
0000619669;5.9328;2.4205;1.9225;-0.0989;0.6948;0.0653
0000619681;5.6647;1.6520;1.8004;-0.0755;0.6544;0.0424
0000619689;5.8203;1.7286;1.7933;-0.0373;0.6210;0.0361
0000619700;6.0430;1.7382;1.8196;-0.0047;0.5682;0.0073
0000619708;5.9807;1.8627;1.9154;0.0157;0.5360;-0.0136
0000619716;5.9640;2.2170;1.9872;-0.0016;0.5177;-0.0302
0000619728;5.8323;2.6121;1.9537;-0.0578;0.4760;-0.0481
0000619736;5.8107;2.6815;1.9896;-0.1058;0.4584;-0.0508
0000619800;5.3391;0.6512;1.4892;-0.0613;0.3100;-0.0909
0000619808;5.4875;0.9337;1.0199;0.0185;0.2747;-0.0891
0000619820;5.9951;1.4269;0.5171;0.1035;0.2461;-0.0777
0000619828;6.2130;1.8004;0.3591;0.1315;0.2358;-0.0669
0000619836;6.4715;2.2673;0.3256;0.1476;0.2292;-0.0469
0000619848;6.9432;3.2322;0.2442;0.1699;0.2196;-0.0362
0000619856;7.0030;3.7110;0.3998;0.1529;0.2189;-0.0386
0000619868;6.7469;3.9840;0.4764;0.0457;0.2213;-0.0473
0000619876;6.5841;4.0127;0.4046;-0.0221;0.2134;-0.0699
0000619888;6.2704;3.4884;0.3998;-0.0933;0.1908;-0.1079
0000619896;6.1339;3.1292;0.4381;-0.1065;0.1641;-0.1355
0000619904;6.3686;2.6815;0.5722;-0.1178;0.1504;-0.1484
0000619916;6.4212;2.2936;0.5219;-0.1053;0.1411;-0.1468
0000619924;6.6319;2.1093;0.3352;-0.0865;0.1677;-0.1230
0000619936;6.7756;2.0638;0.2897;-0.0484;0.2080;-0.0894
0000619944;6.8139;2.1380;0.2873;-0.0488;0.2449;-0.0610
0000619956;6.8929;2.4900;0.2634;-0.0204;0.2891;-0.0129
0000619964;7.2257;3.2417;0.2322;0.0009;0.3195;0.0095
0000619972;6.9025;3.3998;0.2370;0.0105;0.3519;0.0352
0000619984;6.7612;4.0438;0.4214;-0.0306;0.3840;0.0742
0000619993;6.6870;4.3215;0.6560;-0.0727;0.3866;0.0989
0000620006;6.0071;4.0797;0.9529;-0.1218;0.3571;0.1178
0000620015;5.6599;3.9313;1.0367;-0.1403;0.3035;0.1091
0000620080;4.2138;3.0789;1.0750;0.1356;-0.2402;-0.1336
0000620089;4.5346;3.2848;1.0918;0.1264;-0.2715;-0.1244
0000620098;4.6017;3.5650;1.2019;0.0971;-0.3071;-0.1151
0000620111;5.3534;3.8547;1.3838;0.0172;-0.3260;-0.0782
0000620120;5.4899;3.6943;1.4126;-0.0420;-0.3329;-0.0517
0000620133;5.5378;3.5482;1.6400;-0.0947;-0.3637;-0.0328
0000620142;5.4037;3.0358;1.4820;-0.1025;-0.3724;-0.0341
0000620155;5.3702;2.5402;1.3240;-0.0774;-0.3933;-0.0470
0000620164;5.3008;2.5738;1.4365;-0.0400;-0.4173;-0.0685
0000620177;5.1308;2.7318;1.4150;0.0127;-0.4558;-0.0698
0000620186;5.1308;3.0095;1.5012;0.0401;-0.4822;-0.0721
0000620195;5.0661;3.2848;1.4006;0.0568;-0.5011;-0.0751
0000620208;5.2026;3.6847;1.4078;0.0248;-0.5108;-0.0721
0000620217;5.4875;3.7709;1.4676;-0.0184;-0.5107;-0.0488
0000620230;5.6312;3.3232;1.3168;-0.0604;-0.5093;-0.0177
0000620239;5.6599;3.0574;1.4006;-0.0687;-0.5177;-0.0085
0000620252;5.5138;2.6408;1.4126;-0.0505;-0.5200;-0.0101
0000620261;5.3798;2.5498;1.4724;-0.0236;-0.5127;-0.0104
0000620274;5.2529;2.8563;1.5514;0.0364;-0.5007;-0.0244
0000620283;5.3391;3.0813;1.6879;0.0743;-0.4992;-0.0296
0000620292;5.4444;3.3184;1.6568;0.0702;-0.4859;-0.0111
0000620305;5.3534;3.1675;1.6352;0.0533;-0.4800;0.0064
0000620314;5.5545;3.1987;1.4102;0.0396;-0.4804;0.0023
0000620379;6.3279;3.3040;1.4653;0.2646;-0.5021;-0.1310
0000620388;6.4332;3.6129;1.4820;0.2759;-0.4606;-0.1447
0000620401;6.9216;3.6512;1.5179;0.2578;-0.3909;-0.1391
0000620410;7.0820;3.4237;1.5730;0.2453;-0.3420;-0.1346
0000620419;7.1204;3.0765;1.5155;0.2334;-0.2818;-0.1087
0000620432;7.2185;2.8635;1.3767;0.2471;-0.1661;-0.0782
0000620441;7.0820;2.5402;1.3168;0.2794;-0.0702;-0.0438
0000620454;7.3023;2.7031;1.3934;0.3055;0.0693;0.0224
0000620463;7.3454;2.9521;1.2809;0.3311;0.1510;0.0602
0000620476;7.4699;3.5243;1.4509;0.3199;0.2803;0.0995
0000620485;7.4579;3.9313;1.6424;0.2920;0.3435;0.1005
0000620494;7.5465;4.1252;1.7238;0.2529;0.4137;0.1038
0000620507;7.1371;4.0318;1.7980;0.2197;0.4716;0.1071
0000620516;6.9647;3.9241;1.9130;0.1939;0.4944;0.1248
0000620529;6.4883;3.7541;1.8340;0.1435;0.4856;0.1695
0000620538;6.1555;3.4668;1.7669;0.1214;0.4467;0.1985
0000620551;5.8227;3.2944;1.4820;0.0970;0.3829;0.2202
0000620560;5.5474;2.8802;1.5323;0.0657;0.3425;0.2196
0000620569;5.4947;2.6576;1.4916;0.0548;0.3155;0.2018
0000620585;5.7174;2.8180;1.6065;0.0478;0.2789;0.1458
0000620594;6.1339;3.2920;1.8292;0.0613;0.2641;0.0983
0000620661;6.1531;3.3351;1.3695;0.0234;0.3885;0.1396
0000620670;6.4093;3.2729;1.1995;0.0048;0.3894;0.2340
0000620682;6.3805;2.7797;1.0247;-0.0136;0.3726;0.3321
0000620691;6.7828;2.9592;0.9936;-0.0135;0.3595;0.3580
0000620700;6.9049;2.8299;1.0247;-0.0056;0.3439;0.3577
0000620713;7.0653;3.2274;0.9601;0.0168;0.3247;0.3250
0000620722;7.0342;3.4548;1.0127;0.0265;0.3196;0.3040
0000620734;6.8211;3.6224;0.9960;0.0199;0.3168;0.2851
0000620743;6.4787;3.4046;0.9313;-0.0044;0.3020;0.2818
0000620756;6.3734;3.4357;1.2067;-0.0522;0.2729;0.2847
0000620765;6.2058;3.1915;1.1588;-0.0774;0.2388;0.2892
0000620774;6.3446;2.9185;0.9242;-0.0741;0.2121;0.3099
0000620786;6.5697;2.8395;1.0080;-0.0658;0.1884;0.3243
0000620795;6.6487;2.7461;0.9218;-0.0609;0.1755;0.3250
0000620808;6.9145;3.0765;0.9290;-0.0464;0.1663;0.3002
0000620817;6.5817;3.0215;0.9697;-0.0332;0.1520;0.2698
0000620829;6.4260;2.9784;0.8499;-0.0356;0.1095;0.2349
0000620838;6.0238;2.7438;0.7470;-0.0268;0.0661;0.2073
0000620847;6.0454;2.5522;0.8045;-0.0179;0.0108;0.1903
0000620860;6.0382;2.3631;0.8811;-0.0039;-0.0549;0.1823
0000620869;6.2369;2.3703;0.8021;0.0017;-0.0847;0.1825
0000620938;7.0174;2.5426;0.9792;-0.1941;-0.0874;0.1198
0000620947;6.8091;2.2482;0.9098;-0.1803;-0.0893;0.1111
0000620960;6.5673;2.1308;1.0367;-0.1478;-0.0923;0.1057
0000620969;6.5601;2.1428;1.2330;-0.1171;-0.0974;0.0997
0000620978;6.7062;2.1117;1.3647;-0.1147;-0.0963;0.1095
0000620990;7.0844;2.2889;1.3623;-0.1308;-0.1104;0.1147
0000620999;7.1850;2.2075;1.2689;-0.1533;-0.1151;0.1051
0000621012;7.2592;2.0734;1.1325;-0.1669;-0.1314;0.0665
0000621021;7.1275;2.1715;1.0439;-0.1631;-0.1294;0.0373
0000621033;6.8402;2.3942;1.0511;-0.1350;-0.1476;0.0016
0000621042;6.6894;2.6887;1.1851;-0.1275;-0.1616;-0.0208
0000621055;6.4428;3.0861;1.5443;-0.1334;-0.1849;-0.0465
0000621064;6.8331;3.3016;1.5562;-0.1494;-0.2061;-0.0585
0000621073;6.8953;2.8659;1.3791;-0.1483;-0.2168;-0.0666
0000621085;7.0102;2.2745;1.0918;-0.1267;-0.2122;-0.0739
0000621094;7.3047;2.1548;1.0032;-0.0858;-0.2012;-0.0833
0000621107;7.6495;1.9273;0.9002;-0.0165;-0.1620;-0.0616
0000621116;7.8051;2.1548;0.8595;0.0244;-0.1484;-0.0493
0000621128;7.9368;2.6504;0.8811;0.0277;-0.1210;-0.0310
0000621137;7.8171;2.7773;1.0199;0.0052;-0.1118;-0.0242
0000621150;7.4531;2.8946;0.7159;-0.0428;-0.1100;-0.0501
0000621159;7.3310;2.8611;0.6321;-0.0790;-0.1119;-0.0593
0000621168;6.9384;2.6624;0.7207;-0.0961;-0.1170;-0.0797
0000621238;7.2233;3.4022;0.9002;-0.0821;-0.2020;-0.1868
0000621247;6.9863;2.8706;0.8356;-0.0726;-0.1864;-0.1948
0000621260;7.3957;2.7605;0.7278;-0.0418;-0.1432;-0.1632
0000621269;7.2736;2.7054;0.6632;-0.0325;-0.1136;-0.1235
0000621281;7.1228;2.7007;0.6752;-0.0060;-0.1202;-0.0917
0000621290;6.9695;2.7054;0.6608;0.0258;-0.1384;-0.0950
0000621303;6.9408;2.8635;0.7709;0.0464;-0.1553;-0.1302
0000621312;6.7062;2.9999;0.7566;0.0344;-0.1560;-0.1484
0000621321;6.6535;3.1340;0.6464;0.0325;-0.1716;-0.1655
0000621333;6.7876;3.2226;0.8380;-0.0084;-0.1572;-0.1609
0000621342;7.1419;3.5314;0.8475;-0.0508;-0.1391;-0.1447
0000621355;7.5753;3.3806;0.7733;-0.1098;-0.1252;-0.1216
0000621364;7.7788;3.3232;0.7733;-0.1222;-0.1298;-0.1195
0000621376;7.4986;2.8922;0.6129;-0.1139;-0.1348;-0.1215
0000621385;7.2233;2.6145;0.7063;-0.0837;-0.1561;-0.1592
0000621394;6.8642;2.5594;0.6321;-0.0541;-0.1775;-0.2020
0000621407;6.2848;2.5091;0.7422;-0.0007;-0.2182;-0.2346
0000621416;6.1938;2.7031;0.8236;0.0234;-0.2551;-0.2234
0000621428;6.3183;3.0239;0.8619;0.0313;-0.3154;-0.1923
0000621437;6.4452;3.1340;0.9361;0.0148;-0.3659;-0.1628
0000621450;6.9504;3.3184;0.8739;-0.0250;-0.4042;-0.1288
0000621459;7.0964;3.3519;1.0080;-0.0614;-0.3965;-0.1162
0000621529;6.7564;2.5139;1.3144;-0.0625;-0.4002;-0.1031
0000621538;6.5003;2.5091;1.2234;-0.0321;-0.4106;-0.1073
0000621547;6.6511;2.7126;1.2210;0.0060;-0.4135;-0.1042
0000621560;6.8115;3.0981;1.3455;0.0608;-0.4132;-0.1182
0000621569;6.8019;3.2633;1.3623;0.0905;-0.3974;-0.1340
0000621581;6.6679;3.7493;1.2570;0.1223;-0.3600;-0.1633
0000621590;6.5003;4.0223;1.3072;0.1239;-0.3368;-0.1696
0000621603;6.4093;4.5059;1.3096;0.0442;-0.2914;-0.1414
0000621612;6.1507;4.3934;1.4341;-0.0312;-0.2763;-0.1255
0000621624;6.0262;3.9983;1.6807;-0.1002;-0.2662;-0.0967
0000621633;5.7485;3.7110;1.9776;-0.1259;-0.2826;-0.0910
0000621642;5.8299;3.3830;1.8962;-0.1318;-0.2980;-0.1026
0000621655;6.0669;3.3710;1.9106;-0.1414;-0.2931;-0.1119
0000621664;6.0286;3.2202;1.7526;-0.1212;-0.2934;-0.1272
0000621676;5.9568;2.9425;1.7909;-0.0757;-0.2916;-0.1247
0000621685;6.0789;3.0622;1.7789;-0.0466;-0.2967;-0.1176
0000621698;6.1435;3.1268;1.8100;-0.0200;-0.3030;-0.0963
0000621707;6.2848;3.2801;1.7238;-0.0152;-0.2936;-0.0638
0000621719;6.1770;3.1316;1.5921;-0.0075;-0.2872;-0.0401
0000621728;6.5984;3.4093;1.4581;-0.0036;-0.2872;-0.0398
0000621737;6.6583;3.1843;1.3767;-0.0064;-0.2727;-0.0481
0000621750;6.4883;3.0885;1.6089;-0.0204;-0.2525;-0.0871
0000621759;6.2273;3.0837;1.7526;-0.0145;-0.2399;-0.1116
0000621828;6.5745;3.9002;1.9010;0.0705;-0.2134;-0.0869
0000621837;6.5505;4.0055;1.8100;0.0859;-0.2213;-0.0654
0000621850;6.6200;4.1084;1.7573;0.0771;-0.2141;-0.0278
0000621859;6.5936;3.8834;1.7286;0.0747;-0.2130;-0.0147
0000621871;6.7086;3.6966;1.6328;0.0606;-0.2185;-0.0136
0000621880;6.6272;3.3232;1.6688;0.0305;-0.2066;-0.0257
0000621889;6.7684;3.0957;1.7262;0.0141;-0.2128;-0.0524
0000621902;6.8809;2.9281;1.6400;-0.0268;-0.1951;-0.0990
0000621911;6.8594;2.9018;1.4820;-0.0554;-0.1879;-0.1334
0000621923;7.0533;2.8706;1.5610;-0.0870;-0.1444;-0.1643
0000621932;6.8522;2.8683;1.7214;-0.1018;-0.1150;-0.1797
0000621945;6.4739;2.8683;1.8723;-0.1010;-0.0966;-0.2038
0000621954;6.5338;3.1268;1.9154;-0.0893;-0.0889;-0.2069
0000621966;6.3782;3.3519;2.0255;-0.0770;-0.0806;-0.2056
0000621975;6.2944;3.4884;1.9968;-0.0719;-0.0713;-0.1977
0000621984;6.3829;3.5674;2.0949;-0.0723;-0.0558;-0.1925
0000621997;6.5314;3.6129;1.9273;-0.0886;-0.0330;-0.1893
0000622006;6.5481;3.5099;1.9944;-0.1128;-0.0125;-0.1877
0000622018;6.4548;3.2729;1.9369;-0.1410;0.0011;-0.1852
0000622027;6.3039;3.0550;2.0111;-0.1460;0.0032;-0.1825
0000622040;5.9472;2.7007;1.9848;-0.1412;0.0109;-0.1707
0000622049;5.9328;2.5474;1.7286;-0.1154;0.0041;-0.1672
0000622058;6.1363;2.6935;1.6688;-0.1128;0.0041;-0.1597
0000622127;5.8538;2.2625;1.5419;-0.1472;0.0541;-0.0763
0000622136;6.1483;2.3008;1.4916;-0.1306;0.0690;-0.0593
0000622150;6.5170;2.3487;1.4581;-0.1231;0.1030;-0.0488
0000622159;6.4332;2.3056;1.4724;-0.1214;0.1291;-0.0401
0000622172;6.3231;2.3559;1.4317;-0.1460;0.1535;-0.0308
0000622181;6.1052;2.2218;1.3024;-0.1444;0.1620;-0.0221
0000622193;6.0071;2.0806;1.1875;-0.1196;0.1659;-0.0049
0000622202;5.8849;1.8483;1.1372;-0.0818;0.1468;-0.0097
0000622211;6.0047;1.6688;0.9744;-0.0506;0.1332;-0.0152
0000622224;6.1459;1.5443;1.0822;-0.0361;0.1211;-0.0390
0000622233;6.0238;1.6424;1.2402;-0.0454;0.1183;-0.0542
0000622245;6.0956;1.7071;1.3192;-0.0644;0.1075;-0.0663
0000622254;5.8706;1.5251;1.2330;-0.0593;0.0974;-0.0891
0000622267;5.7676;1.3934;1.2019;-0.0476;0.0881;-0.0867
0000622276;5.7724;1.2139;1.3096;-0.0252;0.0873;-0.0681
0000622285;6.3638;1.2809;1.2809;0.0200;0.0918;-0.0428
0000622297;6.4715;1.2809;1.2426;0.0839;0.1065;0.0040
0000622306;6.6679;1.4844;1.1923;0.1108;0.1431;0.0472
0000622319;7.0054;1.8723;0.9074;0.1370;0.2206;0.0775
0000622328;6.8785;2.1045;0.8859;0.1507;0.2920;0.0963
0000622340;6.6846;2.1332;0.8045;0.1508;0.3749;0.1091
0000622349;6.7349;2.3631;0.6393;0.1448;0.4503;0.1356
0000622358;6.7636;2.5833;0.4334;0.1673;0.5087;0.1571
0000622427;6.0406;5.0446;0.5148;-0.0324;0.5048;0.0849
0000622436;5.2912;4.5418;0.5124;-0.0827;0.3756;0.0019
0000622448;4.2473;3.6033;0.6369;-0.1171;0.2137;-0.0898
0000622457;3.5434;3.0430;0.7183;-0.1186;0.1151;-0.1464
0000622470;2.8467;2.5307;0.7638;-0.1058;-0.0290;-0.1892
0000622479;2.6336;2.2122;0.8140;-0.0769;-0.1136;-0.2080
0000622491;3.2154;2.4588;1.1013;-0.0129;-0.2128;-0.2144
0000622500;3.7158;2.4253;1.2115;0.0341;-0.2622;-0.2169
0000622509;4.7621;2.7174;1.2474;0.0659;-0.2854;-0.1915
0000622522;6.1651;3.1915;1.1301;0.0738;-0.2437;-0.1360
0000622531;6.8977;3.4668;1.1708;0.0445;-0.2042;-0.0861
0000622543;7.5202;3.7637;1.2498;-0.0276;-0.1631;-0.0229
0000622552;7.1994;3.6655;1.1732;-0.0863;-0.1423;0.0003
0000622565;6.2058;3.2058;0.9673;-0.1310;-0.1099;-0.0013
0000622574;5.5713;3.0454;1.0223;-0.1231;-0.0963;-0.0129
0000622583;5.0326;3.0789;0.9625;-0.1124;-0.1003;-0.0288
0000622595;4.9584;3.2585;0.9792;-0.0749;-0.1376;-0.0321
0000622604;4.7812;3.1125;0.9649;-0.0389;-0.1739;-0.0253
0000622617;4.7238;2.9616;0.9673;-0.0211;-0.2118;-0.0081
0000622626;5.1930;3.0406;0.8954;-0.0249;-0.2407;-0.0108
0000622638;5.5737;2.7485;0.6967;-0.0346;-0.2567;-0.0041
0000622647;5.6479;2.6647;0.4549;-0.0268;-0.2357;-0.0005
0000622716;4.8866;2.5762;0.1125;0.1279;-0.2908;-0.0565
0000622725;4.7812;2.3559;-0.0503;0.1043;-0.3344;-0.0309
0000622734;4.7501;1.9345;-0.1341;0.0652;-0.3898;-0.0063
0000622746;4.7477;1.6616;0.0287;0.0321;-0.4672;0.0111
0000622755;4.9991;1.6520;0.2274;0.0608;-0.5131;-0.0164
0000622768;5.4636;2.4014;0.8882;0.1507;-0.4978;-0.0990
0000622777;5.8730;3.0765;1.3312;0.1755;-0.4594;-0.1303
0000622789;6.9384;4.1587;1.7909;0.1932;-0.4315;-0.1444
0000622798;7.1658;4.4939;2.1524;0.1852;-0.4173;-0.1376
0000622811;7.4939;4.9057;2.3248;0.1583;-0.3672;-0.1490
0000622820;7.2951;4.6663;2.3128;0.1679;-0.3295;-0.1841
0000622829;6.9408;4.4556;2.1380;0.2037;-0.2814;-0.1951
0000622841;6.6152;4.3886;2.1284;0.2835;-0.2274;-0.1953
0000622850;6.7253;4.7549;2.0446;0.3218;-0.1871;-0.1736
0000622863;6.8666;5.2577;2.1931;0.2990;-0.1362;-0.1439
0000622872;6.7516;5.3654;2.2601;0.2473;-0.1111;-0.1430
0000622884;6.7325;5.3079;2.3415;0.1430;-0.0689;-0.1258
0000622893;6.6535;5.1380;2.4253;0.0452;-0.0334;-0.1057
0000622902;6.4811;4.7692;2.5379;-0.0521;-0.0024;-0.0706
0000622915;6.7253;4.4365;2.6480;-0.1653;0.0582;0.0000
0000622924;6.8690;3.9385;2.7078;-0.2172;0.1002;0.0453
0000622936;7.2113;3.4285;2.9760;-0.2402;0.1506;0.0839
0000622945;7.1730;3.0335;2.9305;-0.2256;0.1789;0.0885
0000623014;6.0549;2.5307;1.6879;0.0779;0.2546;0.0918
0000623023;6.1220;2.7031;1.4676;0.1029;0.2322;0.0838
0000623032;6.4045;3.0861;1.4078;0.1018;0.2121;0.0834
0000623044;6.3542;3.3758;1.4485;0.0915;0.1680;0.0537
0000623053;6.1004;3.4668;1.4700;0.0759;0.1323;0.0261
0000623066;5.6982;3.4907;1.4150;0.0596;0.0785;-0.0116
0000623075;5.7030;3.7517;1.2977;0.0568;0.0453;-0.0365
0000623087;5.4061;3.6320;1.4102;0.0273;0.0143;-0.0681
0000623096;5.4324;3.6919;1.4246;-0.0108;-0.0051;-0.0827
0000623105;5.2816;3.5147;1.3671;-0.0360;-0.0268;-0.0849
0000623118;5.2146;2.8204;1.0271;-0.0337;-0.0735;-0.0799
0000623127;5.4157;2.6073;0.8499;-0.0273;-0.0894;-0.0534
0000623139;5.6838;2.2529;0.7278;0.0095;-0.1144;-0.0217
0000623148;5.9783;2.4373;0.6153;0.0278;-0.1143;0.0043
0000623161;6.5050;2.5618;0.4812;0.0670;-0.1074;0.0237
0000623170;6.7181;2.8994;0.5531;0.0903;-0.1034;0.0262
0000623182;6.8163;3.2489;0.5602;0.0831;-0.0922;0.0213
0000623191;6.4835;3.3615;0.5626;0.0554;-0.0835;0.0037
0000623200;6.3758;3.3734;0.5962;0.0127;-0.0811;-0.0179
0000623213;6.0478;3.5602;0.8882;-0.0573;-0.0850;-0.0285
0000623222;6.0142;3.3040;0.7925;-0.0985;-0.0955;-0.0245
0000623234;5.8969;2.8683;0.8715;-0.1467;-0.1037;0.0061
0000623243;5.7174;2.4397;0.6991;-0.1613;-0.1119;0.0321
0000623312;6.5170;2.8683;1.3575;-0.2770;-0.1807;0.1661
0000623321;6.6439;2.8683;1.5467;-0.3329;-0.1825;0.1755
0000623330;6.7588;2.6360;1.3551;-0.3997;-0.1781;0.1917
0000623342;6.8618;2.0973;1.0582;-0.4549;-0.1688;0.2046
0000623351;6.8354;1.9872;0.9720;-0.4632;-0.1629;0.2058
0000623364;6.4596;1.2354;1.0295;-0.4361;-0.1312;0.2081
0000623373;6.4500;1.2378;0.8619;-0.3776;-0.1081;0.1998
0000623385;6.4596;1.3264;0.8404;-0.2844;-0.0703;0.1855
0000623394;6.3422;1.5562;1.0032;-0.2354;-0.0514;0.1641
0000623407;6.4548;1.9369;1.2761;-0.2173;-0.0257;0.1347
0000623416;6.4955;2.0087;1.3551;-0.2170;-0.0208;0.1272
0000623425;6.6128;2.0231;1.1420;-0.1974;-0.0473;0.1098
0000623437;6.2130;1.9058;0.6776;-0.1620;-0.0645;0.1001
0000623446;6.2537;2.1045;0.4812;-0.1327;-0.0894;0.0829
0000623459;5.8706;2.4517;0.5531;-0.0850;-0.1480;0.0610
0000623468;5.3606;2.6049;0.8715;-0.0638;-0.2077;0.0200
0000623480;5.2601;3.2896;1.3527;-0.0715;-0.2693;-0.0241
0000623489;5.3606;3.4405;1.3886;-0.1168;-0.3277;-0.0496
0000623498;5.5905;3.1915;1.2522;-0.1737;-0.3613;-0.0476
0000623511;6.2560;2.6767;0.8452;-0.2029;-0.4097;-0.0473
0000623520;6.3853;2.3080;0.7135;-0.1764;-0.4278;-0.0388
0000623532;6.8905;2.7054;0.9002;-0.1019;-0.4350;-0.0490
0000623541;7.0413;2.8778;1.1325;-0.0494;-0.4385;-0.0778
0000623609;7.3095;2.8850;0.9936;-0.0486;-0.2947;-0.0361
0000623618;7.2664;2.8970;1.0056;-0.0092;-0.3127;-0.0191
0000623631;6.8857;3.0335;0.9744;0.0188;-0.3276;-0.0376
0000623640;6.7612;3.2322;0.9936;0.0305;-0.3383;-0.0646
0000623649;6.5841;3.2513;1.0271;0.0384;-0.3441;-0.0822
0000623661;6.4907;3.6033;1.2737;0.0153;-0.3608;-0.0962
0000623670;6.2177;3.3902;1.3431;-0.0148;-0.3708;-0.0839
0000623683;6.3518;3.3662;1.0702;-0.0221;-0.3936;-0.0576
0000623692;6.8402;3.2513;0.8643;0.0011;-0.4025;-0.0478
0000623704;7.3981;3.0861;0.8188;0.0381;-0.4022;-0.0502
0000623713;7.7357;3.1867;0.9218;0.0726;-0.3872;-0.0389
0000623726;7.9918;3.3351;1.1516;0.1049;-0.3691;-0.0278
0000623735;7.8913;3.2633;1.4413;0.0715;-0.3328;-0.0069
0000623744;7.6998;3.3615;1.8675;0.0229;-0.3100;0.0124
0000623756;7.2975;3.0478;2.1284;-0.0085;-0.3011;0.0650
0000623765;6.8450;2.7605;1.7310;0.0167;-0.3130;0.1062
0000623778;6.6726;2.4397;1.1923;0.1431;-0.3465;0.1516
0000623787;6.8331;2.3750;0.8930;0.2415;-0.3733;0.1624
0000623799;7.2640;3.2801;0.7853;0.3451;-0.4033;0.1462
0000623808;7.2185;3.9193;1.0415;0.3834;-0.4102;0.1095
0000623817;7.2568;4.6807;1.0918;0.3801;-0.3922;0.0925
0000623884;6.9528;3.5698;1.3048;0.2349;-0.2053;-0.0180
0000623893;6.5194;3.1053;1.2139;0.2381;-0.1697;-0.0249
0000623905;6.3375;3.2537;1.2115;0.2289;-0.1302;-0.0314
0000623914;6.2177;3.3375;1.3168;0.2061;-0.1107;-0.0340
0000623927;5.4684;2.9975;1.5706;0.1699;-0.1334;-0.0381
0000623936;5.2409;3.0933;1.5275;0.1596;-0.1835;-0.0417
0000623948;5.1427;3.0526;1.3647;0.1460;-0.2507;-0.0129
0000623957;5.2960;3.1340;1.1061;0.1275;-0.3112;0.0032
0000623966;5.6790;3.1292;1.2977;0.1104;-0.3714;0.0020
0000623979;6.2297;3.1268;1.4629;0.0834;-0.4310;-0.0119
0000623988;6.8426;3.2537;1.5562;0.0517;-0.4442;-0.0176
0000624000;7.0892;2.9209;1.6831;0.0101;-0.4550;-0.0334
0000624009;7.1754;2.8276;1.9585;-0.0197;-0.4507;-0.0430
0000624022;7.1419;2.3846;2.3248;-0.0517;-0.4243;-0.0446
0000624031;7.1419;2.2482;2.4924;-0.0484;-0.4064;-0.0441
0000624040;7.4077;2.3056;2.7198;-0.0277;-0.3802;-0.0472
0000624052;7.1946;1.9896;2.7102;-0.0031;-0.3428;-0.0715
0000624061;7.1204;1.9992;2.7198;-0.0181;-0.3031;-0.0911
0000624074;6.6750;1.8172;2.7964;-0.0608;-0.2497;-0.1402
0000624083;6.7445;1.9441;2.7605;-0.0887;-0.2064;-0.1643
0000624095;6.4452;2.1979;2.8228;-0.1268;-0.1696;-0.1928
0000624104;6.6104;2.5139;2.8539;-0.1332;-0.1635;-0.2113
0000624171;6.3782;4.9009;1.4964;0.1637;-0.0461;-0.1745
0000624180;6.6966;6.4069;1.6209;0.2197;-0.0306;-0.0457
0000624189;6.7828;7.1826;1.8555;0.2201;-0.0272;0.0761
0000624201;6.9001;7.2209;2.0925;0.1003;-0.0545;0.1905
0000624210;6.7181;5.9209;1.7741;-0.0276;-0.0837;0.1941
0000624223;6.8115;3.7948;1.5826;-0.1144;-0.1074;0.0742
0000624232;6.7062;2.9137;1.4557;-0.1248;-0.0906;-0.0185
0000624244;6.4380;2.2290;1.6592;-0.1053;-0.0967;-0.1375
0000624253;5.9376;1.7765;1.6664;-0.0989;-0.1147;-0.1931
0000624266;5.8897;1.7573;1.4389;-0.1055;-0.1402;-0.2631
0000624275;5.8945;1.9968;1.2857;-0.1258;-0.1290;-0.2872
0000624284;5.8466;2.0423;1.1636;-0.1727;-0.0977;-0.2825
0000624296;6.3566;2.4038;1.3503;-0.2229;-0.0368;-0.2562
0000624305;6.5793;2.6887;1.4820;-0.2649;-0.0021;-0.2252
0000624318;6.7780;2.6719;1.5131;-0.3297;0.0581;-0.1673
0000624327;6.6894;2.2075;1.3623;-0.3548;0.0857;-0.1420
0000624339;6.5936;1.5514;1.0391;-0.3488;0.1251;-0.1107
0000624348;6.4212;0.9218;0.6847;-0.2943;0.1412;-0.1059
0000624357;6.3470;0.6584;0.7709;-0.2100;0.1643;-0.0871
0000624370;6.5098;0.9194;0.8428;-0.0830;0.1927;-0.0833
0000624379;6.7253;1.4461;1.1277;-0.0584;0.2274;-0.0665
0000624391;6.9480;1.8124;1.2354;-0.0580;0.2555;-0.0456
0000624400;7.0222;1.9752;1.0127;-0.0564;0.2753;-0.0286
0000624467;7.4172;4.1132;1.3431;-0.1351;0.6047;0.2446
0000624476;7.0246;3.7996;1.0870;-0.1792;0.6444;0.2317
0000624488;6.6391;2.9664;0.9098;-0.1897;0.6997;0.1784
0000624497;6.4404;2.3750;0.9337;-0.1701;0.7253;0.1194
0000624506;6.2249;2.0470;0.9601;-0.1336;0.7508;0.0687
0000624519;6.2082;1.9297;0.8045;-0.0341;0.7794;0.0242
0000624528;6.2297;2.2290;0.7398;0.0470;0.7969;0.0208
0000624540;6.3566;2.9018;0.7733;0.0926;0.8223;0.0608
0000624549;6.2968;3.2154;0.7278;0.0817;0.8359;0.1162
0000624562;6.3734;3.5889;0.6297;0.0432;0.8512;0.1624
0000624571;6.4835;3.5554;0.7350;0.0001;0.8601;0.1755
0000624580;6.5122;3.3208;0.5794;-0.0365;0.8635;0.1820
0000624592;6.3494;2.7916;0.6632;-0.0481;0.8687;0.1577
0000624601;6.3063;2.6097;0.5866;-0.0218;0.8617;0.1295
0000624614;6.0094;2.2913;0.5962;0.0416;0.8430;0.1051
0000624623;6.2680;2.5498;0.5914;0.0926;0.8204;0.0894
0000624635;6.1627;2.7964;0.6943;0.1334;0.8147;0.0757
0000624644;6.5577;3.3232;0.6177;0.1404;0.8172;0.0516
0000624653;6.5673;3.4716;0.4381;0.1364;0.8275;0.0382
0000624666;6.3327;3.7230;0.4334;0.1100;0.8268;0.0286
0000624675;6.2177;3.5386;0.5148;0.0891;0.8163;0.0321
0000624687;5.7700;3.5937;0.7733;0.0474;0.7861;0.0377
0000624696;5.3079;3.4596;0.9313;0.0278;0.7397;0.0452
0000624705;4.8985;3.1963;1.0199;0.0172;0.6722;0.0394
0000624772;5.3798;2.9521;1.0127;0.0674;0.2914;-0.0558
0000624781;5.7628;3.2489;1.0534;0.0774;0.2693;-0.0329
0000624793;5.6767;3.4213;1.1372;0.0617;0.2186;0.0092
0000624802;5.5067;3.4572;1.1851;0.0452;0.1736;0.0269
0000624815;5.2170;3.4524;0.9553;0.0189;0.1127;0.0276
0000624824;5.0206;3.2010;1.0654;-0.0025;0.0670;0.0101
0000624833;5.1140;3.3112;1.0822;-0.0124;0.0104;-0.0160
0000624845;4.7621;3.0215;1.2641;-0.0208;-0.0604;-0.0342
0000624854;4.7692;3.0095;1.1684;-0.0080;-0.1049;-0.0400
0000624867;4.5849;2.5786;1.1301;0.0173;-0.1644;-0.0488
0000624876;5.0494;2.8922;1.1732;0.0301;-0.1817;-0.0456
0000624888;5.4731;3.0406;1.2330;0.0492;-0.1911;-0.0532
0000624897;5.7485;3.2609;1.1612;0.0597;-0.1895;-0.0536
0000624910;5.9137;3.2920;1.1325;0.0686;-0.1596;-0.0273
0000624919;5.9472;3.3375;1.0630;0.0558;-0.1370;-0.0019
0000624928;5.7940;3.3016;1.1564;0.0428;-0.1280;0.0119
0000624940;5.7006;3.3375;1.2306;0.0424;-0.1280;0.0300
0000624949;5.2648;3.0335;1.2929;0.0468;-0.1452;0.0313
0000624962;5.0901;2.8299;1.0798;0.0602;-0.1851;0.0157
0000624971;4.9153;2.4732;0.9864;0.0930;-0.2174;-0.0128
0000624983;4.8411;2.3367;0.7566;0.1338;-0.2364;-0.0340
0000624992;5.0159;2.1835;0.7733;0.1609;-0.2390;-0.0390
0000625001;5.5474;2.4780;0.7230;0.1828;-0.2413;-0.0372
0000625068;7.1323;3.6559;1.9776;0.0282;0.0597;0.1270
0000625077;6.9049;3.5267;2.0925;0.0261;0.1055;0.1239
0000625089;6.8235;3.5554;2.1428;0.0297;0.1528;0.1251
0000625098;6.4667;3.4620;2.2386;0.0298;0.1837;0.1324
0000625112;6.7397;3.5865;2.3200;0.0352;0.2022;0.1190
0000625121;6.4643;3.3758;2.1380;0.0413;0.2104;0.1230
0000625130;6.1028;3.0143;1.9968;0.0437;0.2200;0.1332
0000625143;5.9304;2.5307;1.4557;0.0917;0.2160;0.1330
0000625152;5.8706;2.2290;1.2163;0.1342;0.2149;0.1400
0000625164;5.7628;2.2098;1.0127;0.2108;0.1903;0.1392
0000625173;6.0214;2.3296;0.8739;0.2589;0.1781;0.1511
0000625182;6.1770;2.5594;0.7997;0.3095;0.1628;0.1549
0000625195;6.6631;3.1843;0.7350;0.3142;0.1672;0.1355
0000625204;6.9647;3.6799;0.8260;0.2984;0.1700;0.1284
0000625216;6.9504;3.9456;0.7949;0.2272;0.1740;0.1134
0000625225;6.7277;3.9480;0.8140;0.1402;0.1797;0.1009
0000625238;6.3710;3.6248;0.7757;0.0344;0.1853;0.0938
0000625247;6.2249;3.3998;0.7757;-0.0008;0.1799;0.0915
0000625256;6.0980;3.1029;0.8667;-0.0092;0.1592;0.1039
0000625268;6.2130;3.0718;1.0032;0.0045;0.1167;0.1158
0000625277;6.1938;2.8850;1.1325;0.0135;0.0835;0.1192
0000625290;6.4380;3.0885;1.3288;0.0133;0.0329;0.1171
0000625299;6.5027;3.2226;1.3336;0.0031;0.0151;0.1160
0000625367;7.0557;3.6847;1.5562;-0.1147;0.0414;0.1443
0000625376;6.9336;3.5602;1.4461;-0.1220;0.0353;0.1616
0000625385;6.9863;3.5865;1.5969;-0.1292;0.0274;0.1733
0000625398;6.9456;3.5171;1.6233;-0.1416;0.0095;0.1760
0000625407;6.7828;3.2777;1.5514;-0.1573;-0.0043;0.1795
0000625419;6.7708;3.3495;1.7669;-0.1685;-0.0222;0.1824
0000625428;6.6607;3.5051;1.7573;-0.1717;-0.0470;0.1896
0000625441;6.6942;3.4884;1.5730;-0.1885;-0.0779;0.1883
0000625450;6.9719;3.2920;1.4533;-0.1947;-0.1065;0.1920
0000625459;6.8929;2.8922;1.4365;-0.1856;-0.1348;0.1867
0000625471;6.7900;2.8252;1.5227;-0.1873;-0.1479;0.1916
0000625480;6.7109;2.9856;1.6305;-0.1875;-0.1502;0.1795
0000625493;6.7277;2.8539;1.5850;-0.1896;-0.1580;0.1745
0000625502;7.1204;3.1891;1.3001;-0.1863;-0.1496;0.1737
0000625514;7.2425;3.1244;1.1013;-0.1872;-0.1510;0.1735
0000625523;7.1682;3.1603;1.1301;-0.1957;-0.1363;0.1735
0000625536;6.9887;3.1388;1.0415;-0.2018;-0.1267;0.1438
0000625545;7.0126;3.1891;1.1349;-0.2112;-0.1282;0.1164
0000625554;6.9983;3.2633;1.1899;-0.2329;-0.1254;0.0942
0000625566;7.0749;3.3279;1.2282;-0.2645;-0.1252;0.0617
0000625575;7.0054;3.1843;1.2186;-0.2951;-0.1196;0.0485
0000625588;6.9959;2.8060;1.1396;-0.3098;-0.1102;0.0301
0000625597;7.1156;2.6528;1.0750;-0.2884;-0.0991;0.0262
0000625665;7.2281;2.7485;0.9840;-0.1198;-0.0429;0.1545
0000625674;7.1347;2.5594;1.0247;-0.0954;-0.0384;0.1613
0000625683;7.3167;2.7605;1.0080;-0.0640;-0.0478;0.1540
0000625696;7.2472;2.9592;0.7877;-0.0429;-0.0600;0.1143
0000625705;7.3550;3.2513;0.7254;-0.0470;-0.0747;0.0666
0000625717;6.9647;3.3303;0.7039;-0.0791;-0.1001;0.0097
0000625726;6.7852;3.2417;0.6440;-0.1085;-0.1158;-0.0212
0000625739;6.5912;2.9233;0.6488;-0.1240;-0.1479;-0.0532
0000625748;6.5027;2.7988;0.7614;-0.1292;-0.1583;-0.0763
0000625760;7.0246;3.1364;0.8691;-0.1560;-0.1290;-0.1009
0000625769;7.4484;3.1747;0.8859;-0.1887;-0.0881;-0.1066
0000625778;7.9918;2.7342;1.0127;-0.2346;-0.0352;-0.1112
0000625791;8.2672;2.2003;0.8978;-0.2645;0.0526;-0.0979
0000625800;8.5497;1.8890;0.7949;-0.2445;0.1046;-0.0803
0000625812;8.2887;1.4509;0.6871;-0.1808;0.1677;-0.0550
0000625821;8.0397;1.6305;0.6273;-0.1162;0.2024;-0.0370
0000625834;7.4699;2.0830;0.5195;-0.0389;0.2462;-0.0472
0000625843;6.9264;2.5402;0.5171;-0.0200;0.2610;-0.0666
0000625855;6.9695;3.1268;0.4310;-0.0524;0.2761;-0.0957
0000625864;6.8402;2.7988;0.3472;-0.0995;0.2709;-0.1202
0000625873;6.9097;2.6528;0.5363;-0.1599;0.2785;-0.1162
0000625886;7.1539;2.2913;0.5243;-0.1849;0.2723;-0.1136
0000625895;6.9456;1.9896;0.4357;-0.1577;0.2647;-0.1131
0000625965;7.1299;2.2673;0.7997;-0.1793;0.2301;-0.1049
0000625974;6.7971;2.2146;0.8978;-0.1808;0.1970;-0.0835
0000625987;6.5242;2.2266;1.0630;-0.1537;0.1495;-0.0883
0000625996;6.1339;2.4301;1.0750;-0.1270;0.1051;-0.1155
0000626005;6.4141;2.9281;1.0918;-0.1264;0.0750;-0.1475
0000626017;6.5194;3.1029;1.0965;-0.1250;0.0183;-0.1936
0000626026;6.5841;3.0430;1.3144;-0.1231;-0.0313;-0.2150
0000626039;6.7828;2.7222;1.3551;-0.1083;-0.0827;-0.2076
0000626048;6.7995;2.5905;1.4078;-0.0977;-0.1258;-0.1817
0000626060;6.6319;2.4014;1.2977;-0.0930;-0.1704;-0.1374
0000626069;6.8019;2.6360;1.2210;-0.0950;-0.1948;-0.1074
0000626082;6.6966;2.7031;1.1588;-0.0991;-0.2462;-0.0965
0000626091;6.7756;2.9784;1.1971;-0.1031;-0.2690;-0.1051
0000626100;6.8905;3.1556;1.4150;-0.1059;-0.3002;-0.1250
0000626112;6.9264;3.5195;1.5634;-0.1442;-0.3375;-0.1601
0000626121;6.7947;3.5027;1.5323;-0.1683;-0.3671;-0.1781
0000626134;6.6176;3.0311;1.4844;-0.1704;-0.3842;-0.1641
0000626143;6.8738;2.8419;1.5347;-0.1576;-0.3897;-0.1475
0000626155;7.3526;2.5091;2.0375;-0.1524;-0.3748;-0.0969
0000626164;7.3885;2.4469;2.2434;-0.1394;-0.3627;-0.0500
0000626177;7.3310;2.8419;2.3559;-0.1126;-0.3487;0.0232
0000626186;7.3478;3.5745;2.4995;-0.0871;-0.3359;0.0637
0000626195;6.9695;4.1132;2.7581;-0.0650;-0.3052;0.0769
0000626265;7.0964;3.2082;2.3511;0.0272;-0.3579;-0.0550
0000626274;7.1802;3.5506;2.4612;0.0245;-0.3365;-0.1208
0000626287;7.1611;3.9337;2.6576;-0.0373;-0.2891;-0.2406
0000626296;6.9408;3.8786;2.7270;-0.0949;-0.2613;-0.2988
0000626308;6.8929;3.6081;2.7270;-0.1621;-0.2306;-0.2794
0000626317;6.7756;3.2609;2.5977;-0.1800;-0.2088;-0.2266
0000626330;6.4979;2.7845;2.7509;-0.1607;-0.1919;-0.1479
0000626339;6.7947;3.0765;2.7294;-0.1632;-0.1721;-0.1087
0000626348;6.6056;3.3112;2.8730;-0.1736;-0.1569;-0.0899
0000626360;6.8450;3.5434;2.8826;-0.2238;-0.1198;-0.0602
0000626369;6.8474;3.3112;2.8060;-0.2389;-0.0939;-0.0562
0000626382;6.7493;2.7629;2.9353;-0.2514;-0.0474;-0.0699
0000626391;6.8091;2.3583;3.0095;-0.2388;-0.0189;-0.0813
0000626403;7.0940;2.4134;3.1508;-0.2042;0.0119;-0.0942
0000626412;6.9097;2.4110;3.3160;-0.1955;0.0396;-0.0943
0000626425;7.0725;2.7845;3.3710;-0.2024;0.0666;-0.0825
0000626434;7.1395;2.9233;3.4165;-0.2204;0.0990;-0.0762
0000626443;7.0940;2.6528;3.3806;-0.2384;0.1319;-0.0899
0000626455;6.9168;2.2601;3.1101;-0.2509;0.1931;-0.1326
0000626464;6.9264;1.8675;3.0837;-0.2438;0.2437;-0.1709
0000626477;6.9504;1.3815;2.7797;-0.2042;0.3373;-0.2064
0000626486;6.9623;1.1325;2.6360;-0.1672;0.4033;-0.2180
0000626556;5.2146;3.2705;3.2825;-0.2118;0.5376;-0.0561
0000626565;5.0206;2.9712;3.1939;-0.1872;0.5189;-0.0683
0000626574;4.8937;2.5139;3.1340;-0.1531;0.4934;-0.0958
0000626588;5.6360;1.9680;2.4038;-0.0600;0.4718;-0.1659
0000626597;6.1316;1.5251;2.2218;-0.0004;0.4751;-0.2069
0000626610;7.0413;1.6065;2.3080;0.0409;0.5057;-0.2443
0000626619;7.2903;1.9824;2.4995;0.0366;0.5348;-0.2471
0000626631;7.4627;2.8539;2.7222;-0.0369;0.6081;-0.2334
0000626640;7.1395;3.0430;2.5474;-0.1131;0.6666;-0.2170
0000626653;6.4572;3.1005;2.4253;-0.2045;0.7373;-0.1829
0000626662;6.1244;2.9449;2.4588;-0.2518;0.7634;-0.1484
0000626671;5.8514;2.6456;2.3822;-0.2762;0.7721;-0.1258
0000626683;5.7006;2.2913;2.4445;-0.2767;0.7496;-0.1103
0000626692;5.6336;2.1955;2.3128;-0.2582;0.7232;-0.1159
0000626705;5.5881;2.1141;2.2146;-0.2240;0.7065;-0.1315
0000626714;5.8347;1.9561;2.1380;-0.1821;0.6973;-0.1364
0000626726;6.0573;2.0806;2.0877;-0.1110;0.7044;-0.1347
0000626735;6.5960;2.2769;2.0494;-0.0773;0.7135;-0.1099
0000626744;6.9647;2.6336;2.2194;-0.0472;0.7224;-0.0833
0000626757;6.8929;3.0933;2.5618;-0.0578;0.7326;-0.0416
0000626766;6.6008;3.4285;2.5211;-0.0953;0.7352;-0.0081
0000626778;5.7581;3.3327;2.2553;-0.1462;0.7237;0.0237
0000626787;5.5234;3.0670;2.2290;-0.1508;0.6955;0.0213
0000626856;4.9081;2.4780;2.1045;0.0312;0.4046;0.0393
0000626865;4.9081;2.3296;1.9968;0.0344;0.3500;0.0670
0000626874;4.5155;2.4541;1.9824;0.0394;0.3114;0.0841
0000626886;4.4173;2.4421;1.9369;0.0341;0.2418;0.0727
0000626895;4.3407;2.6767;1.9417;0.0257;0.1964;0.0464
0000626908;4.2497;2.7461;1.8579;0.0188;0.1312;0.0228
0000626917;4.1851;2.6312;1.8603;0.0298;0.0803;0.0181
0000626929;4.2234;2.2936;1.6640;0.0617;0.0147;0.0159
0000626938;4.4987;2.3463;1.5778;0.1122;-0.0453;0.0016
0000626947;4.4580;2.2027;1.4844;0.1548;-0.0877;-0.0031
0000626960;4.6543;2.2434;1.4198;0.1948;-0.1499;-0.0183
0000626969;4.7238;2.3894;1.2881;0.2289;-0.1900;-0.0292
0000626981;4.3670;2.1907;1.1732;0.2802;-0.2415;-0.0336
0000626990;4.3958;2.4493;1.0463;0.3156;-0.2662;-0.0265
0000627003;4.1563;2.5953;1.0894;0.3608;-0.3168;-0.0132
0000627012;4.4317;2.9113;1.0487;0.3704;-0.3528;0.0096
0000627021;4.5083;2.8898;1.1875;0.3435;-0.3893;0.0353
0000627033;4.7597;2.8036;1.1612;0.2938;-0.4305;0.0437
0000627042;4.9297;2.7438;1.2282;0.2557;-0.4549;0.0344
0000627055;4.9273;2.4756;1.3336;0.2174;-0.4580;0.0075
0000627064;5.2768;2.6336;1.3216;0.2093;-0.4618;-0.0176
0000627076;5.2601;2.6552;1.3791;0.2483;-0.4911;-0.0516
0000627085;5.1643;2.7078;1.3575;0.2882;-0.5024;-0.0545
0000627154;5.4516;3.6488;1.9369;0.0930;-0.5812;0.0024
0000627163;5.2457;3.4716;1.9680;0.0909;-0.5693;0.0001
0000627172;5.0973;3.6009;1.9632;0.1114;-0.5624;0.0036
0000627184;5.0470;3.4620;1.8076;0.1466;-0.5558;-0.0056
0000627193;5.3582;3.6919;1.7861;0.1663;-0.5259;0.0033
0000627206;5.1643;3.5219;2.0375;0.1917;-0.4926;0.0428
0000627215;5.7365;3.7589;2.0662;0.2133;-0.4743;0.0883
0000627227;5.9831;3.9097;2.0111;0.2197;-0.4375;0.1580
0000627236;6.1794;3.9959;2.0614;0.2169;-0.4061;0.1985
0000627245;6.2034;4.2258;2.1955;0.1964;-0.3802;0.2399
0000627258;6.0861;4.2282;2.1428;0.1254;-0.3595;0.2794
0000627267;5.6982;3.8858;1.9824;0.0757;-0.3369;0.2790
0000627279;5.2313;3.2513;1.8220;0.0205;-0.3092;0.2513
0000627288;5.1475;2.8395;1.8531;0.0048;-0.3139;0.2133
0000627301;5.1715;2.4828;1.4533;0.0127;-0.3308;0.1932
0000627310;5.2433;2.5259;1.1803;0.0461;-0.3513;0.2001
0000627319;5.1643;2.6647;1.2426;0.0998;-0.3773;0.2129
0000627331;5.3056;2.9736;1.3838;0.1334;-0.4183;0.2384
0000627340;5.4636;3.2681;1.4653;0.1126;-0.4378;0.2490
0000627353;5.6719;3.5937;1.6376;0.0598;-0.4768;0.2261
0000627362;5.9304;3.4237;1.8531;-0.0008;-0.4832;0.1941
0000627374;5.8945;3.1699;2.0039;-0.0733;-0.4607;0.1302
0000627383;6.0597;2.9090;2.1261;-0.0974;-0.4345;0.0821
0000627392;6.1603;2.8683;2.0949;-0.0962;-0.4049;0.0393
0000627461;5.8969;2.6408;2.4972;0.0765;-0.3355;0.1042
0000627470;6.0142;2.5474;2.4445;0.0529;-0.3191;0.0846
0000627482;5.9735;2.2649;2.3320;0.0633;-0.2802;0.0574
0000627491;6.2297;2.1644;2.4134;0.1038;-0.2627;0.0418
0000627504;6.7612;2.3798;2.1955;0.1943;-0.2116;0.0540
0000627513;7.1802;2.7605;2.0758;0.2498;-0.1641;0.0891
0000627522;7.7069;3.3327;1.9800;0.2863;-0.1254;0.1324
0000627534;7.9823;4.0079;2.1021;0.2856;-0.0669;0.2093
0000627543;8.1666;4.2713;2.2482;0.2627;-0.0364;0.2577
0000627556;8.2265;4.5418;2.3152;0.1941;0.0112;0.2999
0000627565;7.9751;4.3407;2.2721;0.1316;0.0274;0.2802
0000627577;7.1323;3.7709;2.3296;0.0691;0.0322;0.2505
0000627586;6.8019;3.7445;2.3296;0.0454;0.0077;0.2040
0000627595;6.3446;3.5650;2.3511;0.0220;-0.0228;0.1644
0000627608;5.6455;3.3854;2.5331;-0.0092;-0.0986;0.1023
0000627617;5.4971;3.4500;2.4373;-0.0281;-0.1667;0.0733
0000627629;5.2481;3.1005;2.3008;-0.0644;-0.2360;0.0477
0000627638;5.1906;2.7605;2.3966;-0.0849;-0.2745;0.0356
0000627651;5.6144;2.2625;2.2098;-0.0927;-0.3019;0.0203
0000627660;5.8538;1.9824;2.0542;-0.0763;-0.3195;0.0153
0000627669;6.2776;1.9034;1.9130;-0.0589;-0.3171;0.0165
0000627681;6.7229;1.9896;1.7885;-0.0430;-0.3156;0.0076
0000627690;6.7325;1.9656;1.9369;-0.0370;-0.3178;-0.0191
0000627759;6.6056;1.9848;1.8842;-0.0953;-0.3138;-0.1027
0000627768;6.6032;2.0470;1.8962;-0.0779;-0.3210;-0.1160
0000627780;6.8666;2.1955;1.7813;-0.0601;-0.3242;-0.1152
0000627789;7.1323;2.3415;1.8244;-0.0626;-0.3132;-0.1025
0000627802;7.5154;2.6073;1.8316;-0.0556;-0.2991;-0.0871
0000627811;7.4986;2.5187;1.8028;-0.0470;-0.2734;-0.0710
0000627820;7.7716;2.6504;1.6017;-0.0388;-0.2519;-0.0633
0000627832;7.9176;2.8539;1.6688;-0.0225;-0.2181;-0.0500
0000627841;7.5681;2.6288;1.7980;-0.0240;-0.1932;-0.0298
0000627854;7.3909;2.5283;1.5323;-0.0216;-0.1827;-0.0023
0000627863;7.1347;2.3152;1.4772;-0.0278;-0.1831;0.0188
0000627877;6.8474;2.2003;1.4485;-0.0337;-0.1933;0.0348
0000627886;6.8187;2.2889;1.2306;-0.0184;-0.2025;0.0382
0000627899;6.6990;2.5570;1.3312;-0.0069;-0.2026;0.0179
0000627908;6.7636;2.9640;1.4317;-0.0159;-0.1917;-0.0031
0000627917;6.9312;3.2489;1.7478;-0.0418;-0.1753;-0.0385
0000627929;7.2951;3.1532;1.9776;-0.0878;-0.1637;-0.0637
0000627938;7.7093;3.1364;1.6592;-0.1081;-0.1443;-0.0481
0000628007;7.0653;2.4900;1.4844;0.0107;-0.0902;0.0148
0000628016;7.0437;2.4110;1.2713;0.0285;-0.0987;-0.0017
0000628028;7.0749;2.3655;0.9170;0.0751;-0.1029;-0.0189
0000628037;7.0533;2.4612;0.7470;0.1251;-0.1166;-0.0310
0000628050;6.8809;2.7414;0.6967;0.1555;-0.1314;-0.0345
0000628059;6.6990;2.9233;0.7542;0.1640;-0.1539;-0.0460
0000628068;6.6224;3.0263;0.6776;0.1452;-0.1673;-0.0562
0000628080;6.6655;3.1005;0.8667;0.1037;-0.1883;-0.0695
0000628089;6.5218;2.9257;0.9553;0.0681;-0.1900;-0.0753
0000628103;6.9552;2.9449;1.1109;0.0297;-0.1943;-0.1005
0000628112;7.2377;3.1675;1.1301;0.0152;-0.1956;-0.1077
0000628125;7.4555;3.1819;1.1779;-0.0043;-0.1835;-0.1276
0000628134;7.6207;3.4955;1.4246;-0.0341;-0.1712;-0.1387
0000628143;7.3670;3.2609;1.4150;-0.0565;-0.1707;-0.1641
0000628155;7.4340;3.2010;1.2809;-0.0850;-0.1761;-0.1783
0000628164;7.1323;2.9856;1.1851;-0.0823;-0.1819;-0.1680
0000628177;6.7971;2.7102;0.8547;-0.0159;-0.2170;-0.1608
0000628186;6.6726;2.6025;0.6656;0.0450;-0.2449;-0.1667
0000628198;6.2968;2.9712;0.7614;0.1131;-0.2614;-0.1733
0000628207;6.2369;3.1556;0.6464;0.1452;-0.2765;-0.1899
0000628220;6.5601;3.6464;0.9744;0.1268;-0.2762;-0.1877
0000628229;6.9216;3.9265;1.0702;0.0866;-0.2934;-0.1880
0000628238;7.2353;3.9193;1.1779;0.0300;-0.2908;-0.1729
0000628308;6.9264;3.5338;0.6033;0.0802;-0.2145;-0.1960
0000628317;6.8450;3.6392;0.6321;0.0946;-0.2114;-0.1849
0000628330;6.7900;3.3902;0.7422;0.0827;-0.1985;-0.1524
0000628339;6.7660;3.0765;0.9673;0.0569;-0.2026;-0.1230
0000628351;7.0246;2.9329;1.3096;0.0119;-0.2020;-0.0786
0000628360;7.2281;2.8084;1.6305;-0.0172;-0.2080;-0.0373
0000628373;6.7732;2.4517;1.8244;-0.0413;-0.2586;0.0176
0000628382;6.5074;2.3320;1.7262;-0.0434;-0.3086;0.0285
0000628391;6.1004;2.4086;1.6113;-0.0191;-0.3640;0.0298
0000628403;5.5091;2.6624;1.5969;0.0582;-0.4505;0.0139
0000628412;5.3175;2.8778;1.4150;0.1266;-0.5244;-0.0266
0000628425;5.2050;3.5075;1.4748;0.1572;-0.5812;-0.1203
0000628434;5.3750;3.8666;1.5993;0.1376;-0.5852;-0.1709
0000628446;6.1292;3.9121;1.9130;0.0810;-0.5728;-0.1779
0000628455;6.6008;3.5219;1.9154;0.0318;-0.5476;-0.1314
0000628464;7.2951;3.0598;1.8699;0.0036;-0.5012;-0.0758
0000628477;7.9679;2.1548;1.5490;0.0060;-0.4246;-0.0117
0000628486;8.2361;1.9297;0.9768;0.0224;-0.3584;0.0001
0000628498;8.3199;1.9321;0.8499;0.0353;-0.2455;-0.0270
0000628507;7.8697;2.2841;0.8954;0.0456;-0.1748;-0.0837
0000628520;6.8546;2.9640;1.3671;0.0332;-0.1214;-0.1833
0000628529;6.1148;3.4189;1.6735;-0.0003;-0.1196;-0.2172
0000628597;6.7421;2.7581;1.1301;0.0113;-0.4231;-0.1549
0000628606;6.9743;3.1675;1.2665;0.0358;-0.4105;-0.2041
0000628615;6.8953;3.3662;1.3623;0.0244;-0.3841;-0.2409
0000628628;6.5146;3.8331;1.7549;-0.0183;-0.3497;-0.2698
0000628637;5.9855;4.1731;2.0686;-0.0620;-0.3353;-0.2510
0000628649;5.5354;4.2713;2.1500;-0.0997;-0.3496;-0.1972
0000628658;5.6551;4.3144;2.2075;-0.1148;-0.3613;-0.1403
0000628671;5.8682;4.1994;2.0973;-0.1155;-0.3745;-0.0957
0000628680;6.1004;4.4317;2.0183;-0.1320;-0.3766;-0.0977
0000628689;6.4500;4.4532;2.1261;-0.1683;-0.3625;-0.1131
0000628701;6.3614;4.1899;2.4732;-0.2333;-0.3495;-0.1454
0000628710;6.1651;3.8810;2.4397;-0.2729;-0.3580;-0.1584
0000628723;5.7724;3.3615;2.6480;-0.3299;-0.3673;-0.1729
0000628732;5.5450;3.1101;3.0143;-0.3652;-0.4010;-0.1937
0000628744;4.8914;2.8778;3.2705;-0.3922;-0.4699;-0.1924
0000628753;4.6280;2.9951;3.2441;-0.3894;-0.5388;-0.1896
0000628766;4.6017;3.0406;2.7916;-0.3673;-0.6340;-0.1909
0000628775;4.7645;3.1077;2.4157;-0.3448;-0.6836;-0.2169
0000628787;5.3367;2.6264;2.0470;-0.3279;-0.7052;-0.2595
0000628796;5.8323;2.2625;1.7765;-0.3006;-0.7041;-0.3080
0000628805;6.2249;2.0399;1.5251;-0.2570;-0.6873;-0.3336
0000628818;6.5170;1.6927;1.2474;-0.1744;-0.6443;-0.3472
0000628827;6.6128;1.6065;1.2258;-0.1290;-0.6185;-0.3403
0000628895;6.4189;4.3886;2.4253;-0.2453;-0.5462;-0.0556
0000628904;6.6822;4.2521;2.3152;-0.2555;-0.5373;-0.0498
0000628917;7.0820;3.8331;2.4229;-0.2290;-0.5205;-0.0368
0000628926;6.9863;3.5985;2.4541;-0.1956;-0.5079;-0.0378
0000628938;6.8091;3.2777;2.4157;-0.1592;-0.4812;-0.0514
0000628947;6.9001;3.6105;2.4373;-0.1544;-0.4386;-0.0534
0000628956;6.5386;3.7685;2.4995;-0.1559;-0.4231;-0.0741
0000628969;6.3614;4.0486;2.5450;-0.1851;-0.4049;-0.0909
0000628978;5.9855;4.3239;2.6240;-0.2106;-0.4036;-0.1033
0000628990;5.7748;4.2425;2.8252;-0.2376;-0.4146;-0.1086
0000628999;5.5234;4.2090;2.8036;-0.2735;-0.4225;-0.1037
0000629012;5.6048;3.7804;2.5714;-0.2923;-0.4618;-0.1054
0000629021;5.7126;3.4022;2.5139;-0.2859;-0.4914;-0.1228
0000629033;5.8921;2.9521;2.4325;-0.2499;-0.5332;-0.1407
0000629042;5.7844;2.7557;2.4900;-0.2257;-0.5693;-0.1621
0000629051;5.7700;2.9305;2.4756;-0.1941;-0.6127;-0.1824
0000629064;5.7844;3.1963;2.5690;-0.2097;-0.6710;-0.2116
0000629073;5.4971;3.3112;2.5426;-0.2559;-0.7081;-0.2356
0000629085;5.3989;3.1819;2.6121;-0.3292;-0.7773;-0.2698
0000629094;5.3391;3.1556;2.5738;-0.3968;-0.8171;-0.2906
0000629107;5.3079;2.4948;2.5043;-0.4624;-0.8801;-0.3384
0000629116;5.4851;1.9992;2.2362;-0.4778;-0.9117;-0.3679
0000629184;6.3805;2.4612;1.9010;-0.2434;-0.9697;-0.4016
0000629193;6.3758;2.7677;2.0566;-0.2691;-0.9633;-0.3756
0000629202;6.4763;2.9856;1.9752;-0.3152;-0.9325;-0.3384
0000629215;6.4691;2.8515;1.9776;-0.3645;-0.9060;-0.3034
0000629224;6.3590;2.5666;1.8531;-0.3693;-0.8896;-0.2998
0000629236;6.3662;2.2146;1.7645;-0.3239;-0.8675;-0.3032
0000629245;6.2704;2.0351;1.8268;-0.2366;-0.8660;-0.3256
0000629258;6.3805;2.2051;1.8004;-0.1087;-0.8557;-0.3295
0000629267;6.3782;2.6456;1.7214;-0.0336;-0.8516;-0.3126
0000629279;6.2441;3.4093;1.6568;0.0119;-0.8577;-0.2822
0000629288;6.0765;3.8475;1.8052;-0.0069;-0.8669;-0.2662
0000629297;5.9520;4.2976;1.8268;-0.0436;-0.8811;-0.2431
0000629310;5.7916;4.3814;1.8459;-0.1263;-0.9045;-0.2288
0000629319;5.6144;4.1204;1.8723;-0.1905;-0.9156;-0.2336
0000629331;5.4396;3.7302;1.7478;-0.2205;-0.9459;-0.2595
0000629340;5.4947;3.3112;1.8340;-0.1920;-0.9771;-0.2944
0000629353;5.2960;2.9688;1.7095;-0.1335;-1.0118;-0.3224
0000629362;5.3463;3.1005;1.6233;-0.0839;-1.0393;-0.3376
0000629374;5.3032;3.2489;1.5562;-0.0497;-1.0782;-0.3272
0000629383;5.1858;3.1939;1.4246;-0.0440;-1.1134;-0.3164
0000629392;5.0230;3.2178;1.3647;-0.0504;-1.1454;-0.2915
0000629405;4.6639;2.9616;1.4078;-0.0655;-1.2028;-0.2677
0000629414;4.6136;2.7629;1.2833;-0.0713;-1.2682;-0.2549
0000629482;6.9145;3.7541;2.8012;0.0901;-1.4846;-0.3268
0000629491;7.8410;3.6272;2.3918;0.0701;-1.4349;-0.3563
0000629504;8.6622;2.9377;2.2170;0.0200;-1.3034;-0.4008
0000629513;8.4467;2.5402;2.5067;-0.0079;-1.1812;-0.4139
0000629525;7.5537;1.8866;2.3918;-0.0007;-1.0994;-0.3679
0000629534;6.9408;1.4868;2.4828;0.0127;-1.0928;-0.3022
0000629543;6.4691;1.5945;2.3631;0.0116;-1.1046;-0.2172
0000629556;5.5737;1.1229;2.4493;0.0161;-1.1804;-0.1223
0000629565;5.5186;1.4748;2.6408;0.0252;-1.2588;-0.0825
0000629576;5.2265;1.7214;2.9449;0.0370;-1.3720;-0.0661
0000629585;5.3223;2.0830;3.1580;0.0616;-1.4909;-0.0917
0000629599;5.5665;2.4612;3.4165;0.0919;-1.6465;-0.1701
0000629608;5.7413;2.7054;3.5793;0.0986;-1.7431;-0.2597
0000629617;6.1746;2.8419;3.4860;0.0926;-1.7909;-0.3380
0000629630;6.6774;2.7509;3.5937;0.0803;-1.8884;-0.4542
0000629639;6.8115;2.5738;3.6847;0.0677;-1.8823;-0.4926
0000629651;7.1347;2.6600;3.5506;0.0691;-1.8808;-0.5075
0000629660;6.7780;2.3535;3.4285;0.0489;-1.8859;-0.4774
0000629673;6.9983;2.0470;3.1699;0.0348;-1.8876;-0.4096
0000629682;7.0102;1.9034;2.9664;0.0397;-1.9159;-0.3605
0000629694;7.1156;1.8052;2.8299;0.0601;-1.9664;-0.3111
0000629703;7.2760;1.8220;2.6288;0.0841;-1.9730;-0.2793
0000629712;7.2688;1.9585;2.4876;0.0991;-1.9831;-0.2637
0000629779;8.6359;2.5522;2.2817;0.0725;-1.8389;-0.3505
0000629788;8.5162;2.6839;2.3008;0.0632;-1.7682;-0.3480
0000629800;8.5234;2.6456;2.4948;0.0533;-1.7007;-0.3507
0000629809;8.2408;2.5666;2.4900;0.0417;-1.6543;-0.3545
0000629822;8.2001;2.6624;2.4373;0.0402;-1.6093;-0.3401
0000629831;7.9080;2.6312;2.6504;0.0328;-1.6050;-0.3267
0000629840;7.6902;2.4349;2.6647;0.0338;-1.5785;-0.2940
0000629852;7.5346;2.3703;2.6288;0.0286;-1.5837;-0.2874
0000629861;7.5034;2.2936;2.6360;0.0044;-1.5788;-0.2835
0000629874;7.3789;2.2745;2.6193;0.0099;-1.6058;-0.2914
0000629883;7.1084;2.1452;2.5402;0.0016;-1.6395;-0.3171
0000629895;6.8474;2.0039;2.5139;-0.0258;-1.7175;-0.4054
0000629904;7.0509;2.2673;2.0470;-0.0691;-1.6987;-0.4947
0000629917;6.8594;2.3200;2.2577;-0.0987;-1.7228;-0.6034
0000629926;6.8115;2.3535;2.4469;-0.0645;-1.7876;-0.6491
0000629935;6.9073;2.5690;2.3703;-0.0282;-1.8624;-0.6636
0000629947;6.9097;2.6815;2.1691;-0.0088;-1.8916;-0.6707
0000629956;7.2113;3.0191;2.2936;-0.0023;-1.8991;-0.6263
0000629969;7.3789;3.0813;2.2817;-0.0181;-1.9931;-0.5929
0000629978;7.5250;2.9999;2.0303;-0.0268;-2.0336;-0.6006
0000629990;7.7668;3.0502;1.9513;-0.0442;-2.0482;-0.5989
0000629999;7.5896;2.7318;1.8555;-0.0514;-2.0582;-0.5959
0000630066;7.9248;3.3232;1.6089;-0.1091;-2.0845;-0.5275
0000630075;8.1786;3.2537;1.5993;-0.1243;-2.0741;-0.4990
0000630084;8.1020;3.2154;1.5323;-0.1318;-2.0768;-0.4815
0000630096;7.9320;3.0574;1.4916;-0.1416;-2.0727;-0.4489
0000630105;8.2217;3.0981;1.4222;-0.1418;-2.0716;-0.4322
0000630118;8.1139;3.1101;1.4198;-0.1426;-2.0439;-0.4110
0000630127;8.2720;3.1244;1.4461;-0.1455;-2.0330;-0.4022
0000630139;8.0661;3.1316;1.3791;-0.1507;-2.0102;-0.3872
0000630148;8.0780;3.0191;1.4150;-0.1609;-1.9823;-0.3641
0000630161;8.0637;2.9592;1.4868;-0.1772;-1.9597;-0.3473
0000630170;8.0493;2.8922;1.3024;-0.1721;-1.9673;-0.3317
0000630179;8.1594;2.9856;1.2905;-0.1647;-1.9509;-0.3123
0000630191;7.7788;2.9090;1.4964;-0.1556;-1.9564;-0.2926
0000630200;7.8482;3.1651;1.5993;-0.1621;-1.9033;-0.2695
0000630213;7.8650;3.4381;1.5467;-0.1636;-1.9370;-0.2325
0000630222;8.0541;3.5602;1.5490;-0.1911;-1.9382;-0.2012
0000630234;7.9871;3.3710;1.5993;-0.2270;-1.8860;-0.1707
0000630243;8.3677;3.2441;1.4557;-0.2493;-1.8780;-0.1518
0000630256;8.8250;2.8084;1.4509;-0.2675;-1.8413;-0.1194
0000630265;9.0357;2.7294;1.3479;-0.2734;-1.7668;-0.0878
0000630274;9.2632;2.7102;1.3695;-0.2651;-1.7110;-0.0650
0000630286;9.6391;2.7940;1.4246;-0.2618;-1.6186;-0.0326
0000630295;9.7659;2.8730;1.3479;-0.2633;-1.5580;-0.0171
0000630362;9.3733;2.2936;1.2498;-0.2643;-0.9354;-0.0594
0000630371;9.2847;2.2745;1.3168;-0.2356;-0.8547;-0.0717
0000630383;8.8083;2.2577;1.3623;-0.1911;-0.7646;-0.0830
0000630392;8.6886;2.4373;1.6233;-0.1589;-0.6947;-0.0818
0000630405;8.2241;2.5139;1.5850;-0.1270;-0.6253;-0.1050
0000630414;8.0134;2.7749;1.6640;-0.1030;-0.6029;-0.1230
0000630423;7.9464;2.7150;1.6544;-0.1037;-0.5898;-0.1338
0000630435;7.9464;2.8036;1.7047;-0.1092;-0.5737;-0.1476
0000630444;7.9918;2.6695;1.6400;-0.1179;-0.5606;-0.1727
0000630457;8.1475;2.5857;1.5682;-0.1280;-0.5348;-0.1957
0000630466;8.0158;2.4756;1.4772;-0.1187;-0.5245;-0.2222
0000630478;7.9918;2.5402;1.4988;-0.1081;-0.4983;-0.2439
0000630487;8.1187;2.6001;1.4389;-0.0993;-0.4814;-0.2581
0000630500;8.1451;2.5618;1.2809;-0.0954;-0.4747;-0.2847
0000630509;8.2337;2.7078;1.4054;-0.0881;-0.4796;-0.3032
0000630518;8.3941;2.7318;1.3551;-0.0927;-0.4723;-0.3074
0000630530;8.1906;2.4804;1.4126;-0.0893;-0.4864;-0.3215
0000630539;8.1834;2.6073;1.4868;-0.0923;-0.5031;-0.3412
0000630552;8.3534;2.6576;1.5275;-0.0875;-0.5165;-0.3619
0000630561;8.4635;2.7366;1.5874;-0.0851;-0.5315;-0.3774
0000630573;8.6048;2.7318;1.6376;-0.0878;-0.5391;-0.4057
0000630582;8.6359;2.4684;1.5371;-0.0854;-0.5256;-0.4108
0000630649;9.5170;2.8347;1.0391;0.0979;-0.1837;-0.3188
0000630658;9.4188;2.8108;1.1205;0.1166;-0.1388;-0.3071
0000630667;9.4930;2.9832;1.1660;0.1017;-0.0866;-0.2898
0000630679;9.3015;3.0478;1.2091;0.0818;-0.0200;-0.2835
0000630688;9.2081;3.0718;1.1732;0.0521;0.0232;-0.2884
0000630701;9.0214;2.8946;1.0702;0.0125;0.0858;-0.3080
0000630710;8.9136;2.8252;1.1732;-0.0120;0.1354;-0.3162
0000630722;8.7676;2.6767;1.2833;-0.0262;0.1903;-0.3389
0000630731;8.6670;2.6217;1.3096;-0.0360;0.2228;-0.3447
0000630744;8.3270;2.6504;1.5658;-0.0249;0.2369;-0.3547
0000630753;8.2456;2.7701;1.6400;-0.0081;0.2531;-0.3484
0000630762;7.9942;2.7246;1.6688;0.0116;0.2686;-0.3404
0000630774;7.8290;2.9066;1.7430;0.0433;0.2875;-0.3199
0000630783;7.8913;3.1125;1.8675;0.0742;0.3039;-0.2955
0000630796;7.4675;3.3830;2.1021;0.1231;0.3094;-0.2418
0000630805;7.1946;3.2010;2.0518;0.1479;0.3050;-0.2074
0000630817;7.0030;3.3926;2.0758;0.1600;0.2923;-0.1402
0000630826;7.0940;3.5171;2.2027;0.1595;0.2666;-0.0837
0000630835;7.0725;3.5267;2.5402;0.1423;0.2244;-0.0333
0000630848;6.9073;3.4093;2.4924;0.1070;0.1643;0.0312
0000630857;6.6846;3.1603;2.4684;0.0787;0.1114;0.0612
0000630869;6.8929;3.0813;2.4636;0.0241;0.0452;0.0743
0000630878;6.8378;2.7150;2.3200;0.0028;-0.0032;0.0621
0000630947;6.3446;2.5163;2.6001;-0.0193;-0.0737;-0.2292
0000630956;6.2752;2.5690;2.7629;0.0020;-0.0746;-0.2332
0000630965;6.1339;2.7126;2.9257;0.0081;-0.0753;-0.2486
0000630977;5.7174;2.8659;3.0167;0.0092;-0.0717;-0.2855
0000630986;5.4779;2.9257;3.1436;-0.0025;-0.0793;-0.3194
0000630999;5.2457;2.9688;3.0718;-0.0199;-0.1124;-0.3539
0000631008;5.0685;2.9066;3.0478;-0.0248;-0.1514;-0.3702
0000631020;4.9608;2.7988;2.8706;-0.0103;-0.2109;-0.3988
0000631029;5.0973;2.9640;2.7701;-0.0071;-0.2389;-0.4170
0000631043;5.2601;2.9377;2.7605;-0.0028;-0.2848;-0.4478
0000631052;5.2002;2.9880;2.6432;0.0135;-0.3216;-0.4734
0000631061;5.3558;3.1508;2.5762;0.0187;-0.3505;-0.4755
0000631074;5.1882;3.3040;2.3822;0.0012;-0.3780;-0.4931
0000631083;5.1906;3.4524;2.3990;-0.0153;-0.4088;-0.5116
0000631095;5.4492;3.6512;2.4684;-0.0380;-0.4293;-0.5401
0000631104;5.0973;3.4788;2.3894;-0.0417;-0.4495;-0.5733
0000631117;5.0350;3.3734;2.4086;-0.0290;-0.4815;-0.6258
0000631126;5.0973;3.2705;2.3750;-0.0345;-0.4959;-0.6478
0000631135;4.8315;3.0837;2.4253;-0.0253;-0.5187;-0.6650
0000631147;4.8147;2.8299;2.3080;-0.0104;-0.5634;-0.6837
0000631156;4.5633;2.5019;2.1165;0.0029;-0.5857;-0.6771
0000631225;5.1475;2.7557;1.5036;0.0360;-0.7276;-0.6162
0000631234;5.0685;2.7892;1.5706;0.0326;-0.7598;-0.6098
0000631246;4.9297;2.7342;1.5443;0.0254;-0.7926;-0.5844
0000631255;5.0206;2.8563;1.5323;0.0147;-0.8282;-0.5714
0000631268;4.9440;2.9161;1.5155;0.0033;-0.8764;-0.5568
0000631277;4.7190;2.6839;1.4461;0.0045;-0.9353;-0.5518
0000631286;4.6902;2.6911;1.4317;0.0060;-0.9788;-0.5461
0000631298;4.5969;2.7845;1.4485;0.0144;-1.0439;-0.5327
0000631307;4.6543;2.8491;1.5802;0.0163;-1.0896;-0.5131
0000631320;4.6902;2.8252;1.5730;0.0233;-1.1687;-0.4962
0000631329;4.9775;3.0526;1.5658;0.0296;-1.2112;-0.4747
0000631341;5.2433;3.1484;1.5323;0.0204;-1.2618;-0.4594
0000631350;5.4324;3.1005;1.6041;0.0120;-1.2957;-0.4550
0000631363;5.7772;3.2298;1.5131;-0.0064;-1.3150;-0.4471
0000631372;5.7269;3.0430;1.6879;-0.0262;-1.3201;-0.4485
0000631381;5.8227;3.0502;1.6472;-0.0494;-1.3238;-0.4478
0000631393;5.8323;3.0287;1.8531;-0.0658;-1.3169;-0.4361
0000631402;5.6216;2.8323;1.8292;-0.0778;-1.3009;-0.4243
0000631415;5.8921;2.8347;1.9106;-0.0671;-1.2977;-0.4266
0000631424;5.7557;2.7821;1.8914;-0.0661;-1.2737;-0.4113
0000631436;5.6024;2.7222;2.0255;-0.0634;-1.2549;-0.4044
0000631445;5.6144;2.7533;2.0446;-0.0677;-1.2384;-0.3988
0000631514;5.2361;2.7366;2.0470;0.0209;-1.1403;-0.4206
0000631521;5.2146;2.6695;2.1524;0.0296;-1.1395;-0.4198
0000631529;5.2672;2.6743;2.0710;0.0446;-1.1341;-0.4101
0000631540;5.2385;2.6911;1.9632;0.0593;-1.1357;-0.4093
0000631548;5.1020;2.6336;2.0063;0.0544;-1.1265;-0.3985
0000631560;5.3079;2.7821;2.0686;0.0516;-1.1279;-0.4002
0000631568;5.1260;2.6887;1.9680;0.0470;-1.1293;-0.4018
0000631579;5.2553;2.6504;2.0758;0.0532;-1.1409;-0.4171
0000631587;5.3032;2.9066;1.9656;0.0486;-1.1447;-0.4214
0000631595;5.4109;2.8802;2.0446;0.0422;-1.1403;-0.4253
0000631607;5.1978;2.9688;1.9680;0.0392;-1.1474;-0.4319
0000631615;5.2002;2.8754;2.0039;0.0382;-1.1532;-0.4313
0000631626;5.2505;3.0023;2.0159;0.0529;-1.1680;-0.4309
0000631634;5.1499;2.8228;1.9920;0.0514;-1.1656;-0.4295
0000631646;5.2696;2.7988;1.9537;0.0670;-1.1836;-0.4298
0000631654;5.3175;2.8347;1.9345;0.0826;-1.1943;-0.4357
0000631665;5.2888;2.8084;1.8531;0.0977;-1.1992;-0.4323
0000631673;5.2696;2.8419;1.9393;0.1027;-1.1979;-0.4283
