time;acc_x;acc_y;acc_z;gyro_x;gyro_y;gyro_z
0000798615;-2.2960;-7.3095;4.5179;0.2730;-0.1077;-0.1220
0000798623;-2.3439;-7.2305;4.5250;0.2673;-0.0973;-0.1176
0000798630;-2.4445;-7.1850;4.6352;0.2650;-0.1013;-0.1204
0000798638;-2.2362;-7.0437;4.6208;0.2595;-0.1031;-0.1234
0000798646;-2.0063;-6.7924;4.6735;0.2462;-0.0878;-0.1160
0000798654;-2.2027;-6.9887;4.6448;0.2269;-0.0857;-0.1154
0000798662;-2.0351;-6.9192;4.5945;0.2246;-0.0801;-0.1215
0000798670;-2.3008;-6.9432;4.7238;0.2088;-0.0659;-0.1170
0000798678;-2.3822;-7.0390;4.6352;0.1958;-0.0648;-0.1191
0000798686;-2.3272;-6.9408;4.6424;0.1825;-0.0612;-0.1174
0000798694;-2.4086;-7.0485;4.6208;0.1835;-0.0667;-0.1122
0000798702;-2.4277;-7.2257;4.6064;0.1699;-0.0625;-0.1099
0000798710;-2.4708;-7.1275;4.5873;0.1705;-0.0648;-0.1081
0000798718;-2.4612;-7.1658;4.5657;0.1604;-0.0636;-0.1022
0000798726;-2.6839;-7.3191;4.6256;0.1537;-0.0711;-0.0987
0000798734;-2.4828;-7.0940;4.5993;0.1423;-0.0705;-0.0871
0000798742;-2.4612;-7.1419;4.6017;0.1254;-0.0682;-0.0846
0000798750;-2.5163;-7.1515;4.5633;0.1226;-0.0737;-0.0819
0000798758;-2.4636;-7.1587;4.6184;0.1067;-0.0781;-0.0730
0000798766;-2.4541;-6.9815;4.6232;0.0879;-0.0773;-0.0657
0000798774;-2.4134;-7.1347;4.6280;0.0798;-0.0817;-0.0614
0000798782;-2.6336;-7.3095;4.4963;0.0690;-0.0874;-0.0517
0000798790;-2.3607;-7.1467;4.5849;0.0602;-0.0937;-0.0530
0000798798;-2.2434;-7.1204;4.5418;0.0553;-0.1018;-0.0465
0000798806;-2.3894;-7.3430;4.5753;0.0428;-0.0935;-0.0416
0000798814;-2.3607;-7.3598;4.5969;0.0332;-0.0926;-0.0416
0000798822;-2.4469;-7.5202;4.5753;0.0313;-0.1006;-0.0382
0000798830;-2.3200;-7.3454;4.6519;0.0257;-0.1014;-0.0354
0000798838;-2.1787;-7.1994;4.6376;0.0108;-0.0926;-0.0272
0000798846;-2.3798;-7.3047;4.5418;0.0003;-0.0874;-0.0258
0000798854;-2.1356;-7.2784;4.6064;-0.0043;-0.0882;-0.0298
0000798862;-2.2003;-7.3239;4.6687;-0.0155;-0.0785;-0.0266
0000798870;-2.2625;-7.3741;4.6280;-0.0261;-0.0678;-0.0192
0000798878;-2.2697;-7.5130;4.6759;-0.0338;-0.0727;-0.0262
0000798886;-2.2697;-7.3909;4.7118;-0.0422;-0.0642;-0.0269
0000798894;-2.2122;-7.3502;4.6998;-0.0461;-0.0652;-0.0204
0000798902;-2.3439;-7.5824;4.6663;-0.0494;-0.0751;-0.0266
0000798910;-2.2936;-7.4364;4.6711;-0.0526;-0.0759;-0.0249
0000798918;-2.2529;-7.4603;4.6064;-0.0610;-0.0717;-0.0203
0000798926;-2.4708;-7.7117;4.7118;-0.0625;-0.0722;-0.0261
0000798934;-2.3511;-7.6255;4.6759;-0.0614;-0.0733;-0.0270
0000798942;-2.2601;-7.4891;4.6783;-0.0653;-0.0697;-0.0250
0000798950;-2.3727;-7.6614;4.6519;-0.0685;-0.0661;-0.0268
0000798958;-2.3774;-7.6734;4.6017;-0.0629;-0.0669;-0.0228
0000798966;-2.2242;-7.5274;4.6855;-0.0685;-0.0608;-0.0226
0000798974;-2.3870;-7.8314;4.7597;-0.0679;-0.0661;-0.0273
0000798982;-2.2266;-7.5369;4.6352;-0.0653;-0.0593;-0.0180
0000798990;-2.2817;-7.6567;4.6687;-0.0573;-0.0637;-0.0191
0000798998;-2.2745;-7.7045;4.6615;-0.0558;-0.0610;-0.0180
0000799006;-2.2817;-7.6088;4.6615;-0.0581;-0.0590;-0.0193
0000799014;-2.2434;-7.7213;4.7573;-0.0466;-0.0606;-0.0258
0000799022;-2.3176;-7.8290;4.6639;-0.0405;-0.0512;-0.0233
0000799030;-2.3152;-7.8243;4.6926;-0.0381;-0.0486;-0.0197
0000799038;-2.4181;-7.8003;4.6926;-0.0317;-0.0454;-0.0265
0000799046;-2.3152;-7.7548;4.7070;-0.0246;-0.0472;-0.0264
0000799054;-2.3415;-7.6686;4.7166;-0.0240;-0.0384;-0.0226
0000799062;-2.3080;-7.7859;4.6615;-0.0237;-0.0386;-0.0217
0000799070;-2.2529;-7.7476;4.8100;-0.0207;-0.0381;-0.0256
0000799078;-2.1500;-7.6088;4.8076;-0.0117;-0.0349;-0.0200
0000799086;-2.3104;-7.7357;4.7357;-0.0104;-0.0277;-0.0189
0000799094;-2.2482;-7.6950;4.7980;-0.0148;-0.0296;-0.0180
0000799102;-2.1859;-7.6255;4.6831;-0.0051;-0.0328;-0.0208
0000799110;-2.2960;-7.7883;4.7309;0.0008;-0.0285;-0.0167
0000799118;-2.4397;-7.6758;4.7860;-0.0001;-0.0276;-0.0197
0000799126;-2.2242;-7.6447;4.8650;0.0040;-0.0332;-0.0195
0000799134;-2.1380;-7.5776;4.8100;0.0007;-0.0309;-0.0201
0000799142;-2.1332;-7.4531;4.8028;0.0003;-0.0310;-0.0204
0000799150;-2.2362;-7.5968;4.8028;0.0017;-0.0344;-0.0234
0000799158;-2.2793;-7.6423;4.8028;-0.0033;-0.0306;-0.0180
0000799166;-2.3152;-7.5968;4.7405;-0.0125;-0.0281;-0.0089
0000799193;-2.4469;-7.6543;4.7860;-0.0045;-0.0418;-0.0141
0000799201;-2.3846;-7.7428;4.7094;-0.0105;-0.0400;-0.0128
0000799209;-2.3798;-7.7812;4.6974;-0.0029;-0.0478;-0.0155
0000799217;-2.1500;-7.4699;4.7908;-0.0095;-0.0496;-0.0087
0000799225;-2.1763;-7.4867;4.8123;-0.0171;-0.0412;-0.0169
0000799233;-2.2051;-7.3981;4.8411;-0.0187;-0.0460;-0.0143
0000799241;-2.1500;-7.4699;4.8435;-0.0336;-0.0309;-0.0095
0000799249;-2.2410;-7.5154;4.8052;-0.0372;-0.0261;-0.0051
0000799257;-2.1093;-7.4148;4.7669;-0.0449;-0.0301;-0.0093
0000799265;-2.0734;-7.4029;4.7525;-0.0420;-0.0216;-0.0075
0000799273;-2.2314;-7.5322;4.8171;-0.0526;-0.0167;-0.0045
0000799281;-2.3391;-7.6591;4.8219;-0.0538;-0.0129;-0.0059
0000799289;-2.2170;-7.5154;4.8267;-0.0478;-0.0208;-0.0084
0000799297;-2.3272;-7.6231;4.8076;-0.0502;-0.0143;-0.0073
0000799305;-2.3008;-7.6543;4.7669;-0.0418;-0.0233;-0.0081
0000799313;-2.3463;-7.6040;4.7860;-0.0426;-0.0205;-0.0053
0000799321;-2.2697;-7.5369;4.7836;-0.0393;-0.0249;-0.0077
0000799329;-2.4708;-7.6423;4.8028;-0.0460;-0.0254;-0.0056
0000799337;-2.3224;-7.5465;4.8746;-0.0432;-0.0332;-0.0109
0000799345;-2.3367;-7.5729;4.8004;-0.0404;-0.0334;-0.0145
0000799353;-2.2889;-7.4388;4.8387;-0.0476;-0.0282;-0.0068
0000799361;-2.3966;-7.4699;4.8698;-0.0465;-0.0309;-0.0097
0000799369;-2.2649;-7.6184;4.8028;-0.0456;-0.0290;-0.0068
0000799377;-2.3272;-7.5992;4.7333;-0.0514;-0.0250;-0.0019
0000799385;-2.2625;-7.5753;4.8339;-0.0509;-0.0290;-0.0052
0000799393;-2.4612;-7.6279;4.7669;-0.0489;-0.0234;-0.0003
0000799401;-2.2960;-7.5202;4.7190;-0.0553;-0.0260;0.0008
0000799409;-2.2194;-7.4675;4.6807;-0.0581;-0.0297;-0.0029
0000799417;-2.3559;-7.4388;4.7190;-0.0542;-0.0356;-0.0056
0000799425;-2.2960;-7.3670;4.7908;-0.0610;-0.0332;0.0041
0000799433;-2.3774;-7.4699;4.8746;-0.0654;-0.0329;0.0045
0000799441;-2.3559;-7.5082;4.7429;-0.0718;-0.0358;0.0047
0000799449;-2.2194;-7.5250;4.7333;-0.0782;-0.0373;0.0069
0000799457;-2.3631;-7.5657;4.7812;-0.0787;-0.0369;0.0092
0000799465;-2.3655;-7.5298;4.7309;-0.0791;-0.0410;0.0064
0000799473;-2.4062;-7.5705;4.7860;-0.0827;-0.0362;0.0116
0000799481;-2.2673;-7.5896;4.7285;-0.0879;-0.0336;0.0169
0000799489;-2.1907;-7.4268;4.7788;-0.0886;-0.0306;0.0169
0000799497;-2.2817;-7.5729;4.7214;-0.0854;-0.0329;0.0137
0000799505;-2.2218;-7.5609;4.6448;-0.0774;-0.0298;0.0143
0000799513;-2.3583;-7.6614;4.6783;-0.0754;-0.0232;0.0197
0000799521;-2.4421;-7.7045;4.6591;-0.0755;-0.0237;0.0168
0000799529;-2.4277;-7.6447;4.5825;-0.0678;-0.0290;0.0097
0000799537;-2.3798;-7.6926;4.6112;-0.0654;-0.0237;0.0136
0000799545;-2.5690;-7.8123;4.6495;-0.0659;-0.0265;0.0127
0000799553;-2.3463;-7.5417;4.6639;-0.0614;-0.0290;0.0060
0000799561;-2.2865;-7.6112;4.5586;-0.0570;-0.0238;0.0080
0000799569;-2.2577;-7.5202;4.6543;-0.0546;-0.0187;0.0049
0000799577;-2.3008;-7.6184;4.6376;-0.0508;-0.0172;0.0045
0000799585;-2.3583;-7.6567;4.5873;-0.0442;-0.0173;0.0015
0000799593;-2.3056;-7.5609;4.5681;-0.0449;-0.0075;0.0063
0000799601;-2.3750;-7.5034;4.5729;-0.0378;-0.0137;-0.0007
0000799609;-2.4325;-7.6830;4.6232;-0.0316;-0.0141;0.0001
0000799617;-2.2697;-7.5968;4.5562;-0.0309;-0.0172;-0.0052
0000799625;-2.4229;-7.6327;4.6064;-0.0257;-0.0175;-0.0059
0000799633;-2.4373;-7.6016;4.6352;-0.0293;-0.0159;-0.0023
0000799641;-2.3679;-7.5968;4.5801;-0.0260;-0.0240;-0.0104
0000799649;-2.4325;-7.4603;4.5586;-0.0318;-0.0282;-0.0076
0000799657;-2.3415;-7.3789;4.6064;-0.0270;-0.0342;-0.0145
0000799665;-2.3727;-7.5369;4.7573;-0.0281;-0.0318;-0.0180
0000799673;-2.3056;-7.4795;4.5442;-0.0368;-0.0238;-0.0111
0000799681;-2.2649;-7.4196;4.6783;-0.0429;-0.0116;-0.0005
0000799689;-2.2673;-7.4220;4.6974;-0.0462;-0.0155;-0.0012
0000799697;-2.3822;-7.6160;4.6783;-0.0421;-0.0201;-0.0057
0000799705;-2.3679;-7.4819;4.8004;-0.0432;-0.0160;-0.0011
0000799713;-2.5283;-7.5609;4.6064;-0.0452;-0.0148;0.0031
0000799721;-2.4445;-7.5992;4.7190;-0.0446;-0.0139;-0.0012
0000799729;-2.2362;-7.5226;4.7190;-0.0413;-0.0242;-0.0077
0000799737;-2.3296;-7.5250;4.7094;-0.0350;-0.0272;-0.0033
0000799745;-2.5067;-7.5369;4.7597;-0.0413;-0.0258;-0.0017
0000799828;-2.2553;-7.5513;4.6998;-0.0394;-0.0446;0.0087
0000799836;-2.2960;-7.5848;4.6902;-0.0373;-0.0422;0.0037
0000799844;-2.1859;-7.4460;4.6280;-0.0368;-0.0342;0.0053
0000799852;-2.3631;-7.6519;4.5777;-0.0441;-0.0196;0.0081
0000799860;-2.4876;-7.6854;4.5610;-0.0456;-0.0229;0.0032
0000799868;-2.2889;-7.5896;4.6088;-0.0532;-0.0216;0.0100
0000799876;-2.3511;-7.7021;4.5849;-0.0625;-0.0153;0.0083
0000799884;-2.3152;-7.6543;4.5777;-0.0681;-0.0181;-0.0012
0000799892;-2.4445;-7.6184;4.5059;-0.0739;-0.0109;0.0012
0000799900;-2.2745;-7.5657;4.5131;-0.0822;-0.0089;0.0065
0000799908;-2.3918;-7.5681;4.4867;-0.0786;-0.0109;0.0003
0000799916;-2.3128;-7.6279;4.4987;-0.0838;0.0016;0.0119
0000799924;-2.4517;-7.6758;4.3407;-0.0857;-0.0057;0.0052
0000799932;-2.5522;-7.8003;4.3766;-0.0797;-0.0084;0.0096
0000799940;-2.5331;-7.6902;4.3838;-0.0750;-0.0061;0.0085
0000799948;-2.5259;-7.7500;4.3766;-0.0609;-0.0017;0.0116
0000799956;-2.6959;-7.8434;4.3311;-0.0488;-0.0089;0.0069
0000799964;-2.5283;-7.7788;4.2928;-0.0377;-0.0179;0.0033
0000799972;-2.6480;-7.7524;4.5298;-0.0208;-0.0266;-0.0069
0000799980;-2.5091;-7.7907;4.4317;0.0016;-0.0302;-0.0085
0000799988;-2.4804;-7.7979;4.2808;0.0084;-0.0245;-0.0037
0000799996;-2.3487;-7.6974;4.3790;0.0167;-0.0222;-0.0156
0000800004;-2.4181;-7.6638;4.3790;0.0218;-0.0172;-0.0173
0000800012;-2.2051;-7.6184;4.3981;0.0157;-0.0004;-0.0091
0000800020;-2.2769;-7.5633;4.4221;0.0189;0.0152;-0.0075
0000800028;-1.9393;-7.4005;4.3335;0.0169;0.0292;0.0005
0000800036;-2.1165;-7.5010;4.4796;0.0063;0.0513;0.0137
0000800044;-2.0159;-7.3526;4.4987;-0.0083;0.0775;0.0268
0000800052;-2.2434;-7.3741;4.4604;-0.0180;0.0885;0.0325
0000800060;-2.1979;-7.2425;4.4796;-0.0366;0.1027;0.0454
0000800068;-2.7054;-7.6016;4.5274;-0.0441;0.0998;0.0461
0000800076;-2.8467;-7.5609;4.5969;-0.0589;0.0949;0.0614
0000800084;-2.6959;-7.4124;4.5538;-0.0705;0.0763;0.0636
0000800092;-3.0670;-7.5729;4.5011;-0.0683;0.0528;0.0622
0000800100;-2.9688;-7.7285;4.5897;-0.0691;0.0338;0.0699
0000800108;-2.7438;-7.6782;4.5610;-0.0727;0.0185;0.0837
0000800116;-2.6815;-7.5202;4.6256;-0.0630;-0.0047;0.0770
0000800124;-2.5211;-7.6327;4.5729;-0.0709;-0.0001;0.0871
0000800132;-2.2649;-7.5561;4.5203;-0.0670;-0.0008;0.0871
0000800140;-2.4086;-7.6375;4.4580;-0.0568;-0.0019;0.0798
0000800148;-2.3008;-7.5154;4.4460;-0.0496;0.0032;0.0774
0000800156;-2.4708;-7.6638;4.4700;-0.0461;0.0079;0.0677
0000800164;-2.5426;-7.7381;4.4915;-0.0280;-0.0063;0.0454
0000800172;-2.6911;-8.0062;4.4580;-0.0132;-0.0203;0.0265
0000800180;-2.4852;-8.0756;4.5538;0.0097;-0.0314;0.0084
0000800188;-2.3200;-7.9535;4.5801;0.0397;-0.0501;-0.0234
0000800196;-2.2290;-8.0445;4.4269;0.0666;-0.0480;-0.0438
0000800204;-1.9872;-7.8171;4.3335;0.0943;-0.0468;-0.0677
0000800212;-2.2410;-7.8985;4.4293;0.1188;-0.0384;-0.0875
0000800220;-2.2505;-7.7357;4.4077;0.1355;-0.0176;-0.1030
0000800228;-2.4181;-7.7357;4.3981;0.1492;-0.0156;-0.1227
0000800236;-2.4708;-7.5561;4.4724;0.1705;-0.0238;-0.1376
0000800244;-2.4014;-7.2018;4.3958;0.1815;-0.0265;-0.1456
0000800252;-2.6240;-7.4412;4.3503;0.1925;-0.0389;-0.1596
0000800260;-2.5977;-7.3263;4.3551;0.2077;-0.0546;-0.1792
0000800268;-2.7605;-7.4795;4.2665;0.2168;-0.0689;-0.1931
0000800276;-2.6264;-7.4316;4.2713;0.2169;-0.0822;-0.2125
0000800284;-2.6145;-7.4819;4.4412;0.2314;-0.0966;-0.2357
0000800292;-2.4205;-7.4843;4.3814;0.2344;-0.0951;-0.2510
0000800300;-2.5833;-7.6734;4.3814;0.2486;-0.1009;-0.2726
0000800308;-2.2290;-7.4412;4.3407;0.2670;-0.1013;-0.2883
0000800316;-2.2936;-7.6591;4.4484;0.2701;-0.0987;-0.2923
0000800324;-2.2529;-7.4867;4.3958;0.2767;-0.0977;-0.2987
0000800332;-2.2936;-7.4508;4.4197;0.2836;-0.1055;-0.3100
0000800340;-2.3607;-7.5226;4.3934;0.2936;-0.1022;-0.3243
0000800348;-2.3104;-7.4819;4.4484;0.2838;-0.0955;-0.3224
0000800356;-2.3559;-7.3430;4.4412;0.2689;-0.0898;-0.3258
0000800364;-2.4517;-7.3430;4.4125;0.2634;-0.0897;-0.3168
0000800372;-2.3439;-7.1611;4.5370;0.2470;-0.0817;-0.2998
0000800380;-2.4565;-7.0964;4.5657;0.2402;-0.0766;-0.2902
0000800463;-2.5067;-7.0701;4.4676;0.0714;-0.0919;-0.1422
0000800471;-2.4134;-7.0342;4.5777;0.0510;-0.0966;-0.1431
0000800479;-2.6504;-7.2808;4.4652;0.0416;-0.1009;-0.1422
0000800487;-2.6217;-7.4172;4.3981;0.0250;-0.1104;-0.1418
0000800495;-2.5163;-7.5776;4.4412;0.0265;-0.1206;-0.1488
0000800503;-2.4157;-7.5920;4.3383;0.0225;-0.1204;-0.1541
0000800511;-2.5139;-8.0062;4.3622;0.0326;-0.1206;-0.1624
0000800519;-2.2098;-7.9966;4.2521;0.0477;-0.1188;-0.1652
0000800527;-2.2290;-8.0589;4.1899;0.0409;-0.0930;-0.1556
0000800535;-2.2793;-8.0302;4.2234;0.0404;-0.0778;-0.1458
0000800543;-2.1907;-7.8913;4.1683;0.0360;-0.0517;-0.1344
0000800551;-2.1045;-7.5848;4.1420;0.0225;-0.0309;-0.1174
0000800559;-2.4660;-7.6519;4.0989;0.0060;0.0045;-0.0849
0000800567;-2.6528;-7.5633;4.1515;-0.0067;0.0203;-0.0620
0000800575;-2.7581;-7.4531;4.1324;-0.0064;0.0044;-0.0490
0000800583;-2.7318;-7.3406;4.1827;-0.0092;0.0032;-0.0381
0000800591;-2.5953;-7.4364;4.2066;-0.0165;-0.0020;-0.0289
0000800599;-2.5211;-7.6255;4.2904;-0.0244;-0.0024;-0.0330
0000800607;-2.5091;-7.8362;4.0462;-0.0310;-0.0123;-0.0449
0000800615;-2.2960;-7.7309;4.0701;-0.0405;-0.0168;-0.0573
0000800623;-2.4948;-7.7572;4.0390;-0.0508;-0.0045;-0.0392
0000800631;-2.2122;-7.5489;3.9863;-0.0686;0.0151;-0.0077
0000800639;-2.0877;-7.5920;3.8307;-0.0791;0.0388;0.0171
0000800647;-2.1380;-7.5513;3.8954;-0.0894;0.0628;0.0368
0000800655;-2.2841;-7.4579;3.8954;-0.1107;0.0874;0.0717
0000800663;-2.4157;-7.4699;3.7134;-0.1144;0.1033;0.0915
0000800671;-2.7078;-7.5154;3.5841;-0.1131;0.1086;0.1088
0000800679;-2.7390;-7.5369;3.8475;-0.1099;0.1013;0.1144
0000800687;-2.8706;-7.6351;4.0749;-0.0983;0.0799;0.1017
0000800695;-2.7964;-7.6998;4.0654;-0.0679;0.0810;0.0867
0000800703;-2.6001;-7.7931;4.0582;-0.0366;0.0891;0.0644
0000800711;-2.4948;-7.9990;4.0318;0.0000;0.0819;0.0556
0000800719;-2.2386;-8.0230;4.0294;0.0229;0.0823;0.0341
0000800727;-2.3774;-8.0517;4.2473;0.0492;0.0922;0.0181
0000800735;-2.3559;-8.0397;4.1875;0.0652;0.0967;0.0157
0000800743;-2.1524;-7.8985;4.3479;0.0706;0.1055;0.0269
0000800751;-1.9034;-7.5705;4.3598;0.0749;0.1148;0.0416
0000800759;-2.1332;-7.5154;4.4700;0.0661;0.1231;0.0578
0000800767;-2.3320;-7.3981;4.5155;0.0618;0.1094;0.0630
0000800775;-2.5067;-7.2784;4.6424;0.0588;0.0687;0.0597
0000800783;-2.4612;-7.2089;4.6950;0.0532;0.0268;0.0453
0000800791;-2.5666;-7.4268;4.7309;0.0484;0.0057;0.0208
0000800799;-2.2098;-7.2233;4.4891;0.0462;-0.0390;-0.0084
0000800807;-2.0877;-7.5417;4.4652;0.0521;-0.0771;-0.0542
0000800815;-1.9178;-7.4460;4.4460;0.0616;-0.0637;-0.0899
0000800823;-1.6137;-7.5106;4.2258;0.0594;-0.0320;-0.1120
0000800831;-1.5036;-7.7045;4.1970;0.0771;-0.0181;-0.1320
0000800839;-1.5610;-7.7859;4.0989;0.0877;-0.0069;-0.1407
0000800847;-1.4150;-7.6207;4.2665;0.1085;-0.0278;-0.1712
0000800855;-1.5682;-7.6854;4.2377;0.1232;-0.0203;-0.1895
0000800863;-1.8435;-7.8123;4.1348;0.1450;-0.0057;-0.2053
0000800871;-1.9273;-8.0110;4.4508;0.1735;-0.0003;-0.2154
0000800879;-1.9393;-7.9727;4.3981;0.1997;-0.0185;-0.2535
0000800887;-1.8986;-7.7668;4.2114;0.2248;-0.0292;-0.2827
0000800895;-1.9106;-8.0373;4.2425;0.2570;-0.0246;-0.3151
0000800903;-2.1308;-8.1858;4.3551;0.2907;-0.0456;-0.3778
0000800911;-2.1213;-8.1594;4.3790;0.3224;-0.0260;-0.4249
0000800919;-2.4708;-8.3606;4.5226;0.3492;-0.0004;-0.4574
0000800927;-2.5762;-8.5234;4.3215;0.3793;-0.0253;-0.4842
0000800935;-2.3296;-8.3270;4.3479;0.4139;-0.0743;-0.5041
0000800943;-2.2027;-8.6431;4.4125;0.4607;-0.0750;-0.5052
0000800951;-1.9417;-8.5186;4.5921;0.5128;-0.0735;-0.4898
0000800959;-1.9537;-8.5114;4.5226;0.5618;-0.0409;-0.4664
0000800967;-1.3958;-8.1259;4.4269;0.5995;-0.0614;-0.4640
0000800975;-1.2186;-7.9703;4.4149;0.6376;-0.0753;-0.4907
0000800983;-0.9122;-7.6423;4.3287;0.6670;-0.0855;-0.5121
0000800991;-1.2402;-7.6136;4.2401;0.6875;-0.0281;-0.5319
0000800999;-1.6185;-7.7381;4.2832;0.7028;0.0081;-0.5638
0000801007;-1.8507;-7.5178;4.2784;0.7060;-0.0096;-0.5861
0000801015;-2.1835;-7.6088;4.2449;0.7121;-0.0245;-0.6030
0000801023;-2.1093;-7.5322;4.2521;0.7127;-0.0482;-0.6303
0000801031;-2.0710;-7.6016;4.1084;0.7129;-0.0737;-0.6430
0000801115;-0.5339;-7.4292;3.9480;0.7509;-0.0650;-0.5750
0000801123;-0.3711;-7.3239;3.7781;0.7465;-0.0741;-0.5621
0000801131;-0.5339;-7.4316;3.8116;0.7190;-0.0553;-0.5432
0000801139;-0.5052;-7.5561;3.5626;0.7088;-0.0309;-0.5155
0000801147;-0.1532;-7.4986;3.4069;0.7036;-0.0298;-0.4964
0000801155;0.0551;-7.3382;3.3615;0.7100;-0.0232;-0.4818
0000801163;0.1532;-7.4220;3.3734;0.6987;0.0196;-0.4739
0000801171;-0.0862;-7.6471;3.3423;0.6975;0.0406;-0.4887
0000801179;-0.4070;-7.7381;3.3782;0.6911;0.0433;-0.5012
0000801187;-0.6009;-7.5872;4.0749;0.7013;0.0444;-0.5113
0000801195;-1.2163;-7.9751;4.8602;0.7182;0.0286;-0.5145
0000801203;-2.1979;-8.6718;5.5522;0.7703;-0.0405;-0.5153
0000801211;-3.0981;-9.1339;5.4947;0.8292;-0.0991;-0.5216
0000801219;-4.1037;-9.5337;5.1595;0.8463;-0.1124;-0.5642
0000801227;-4.4987;-9.2344;5.5138;0.8078;-0.0989;-0.6472
0000801235;-4.5705;-8.8921;5.9831;0.7641;-0.0586;-0.7104
0000801243;-5.2002;-8.7580;6.4476;0.7465;-0.0137;-0.7033
0000801251;-5.7293;-8.8155;6.6248;0.7440;-0.0364;-0.6125
0000801259;-6.3135;-9.1889;6.9121;0.7685;-0.0842;-0.4719
0000801267;-6.3758;-9.3637;7.3478;0.8282;-0.1471;-0.3696
0000801275;-6.0286;-9.6486;7.1419;0.8701;-0.1605;-0.3337
0000801283;-5.1212;-10.0724;6.8738;0.9122;-0.1406;-0.3836
0000801291;-4.4221;-9.9383;6.7109;0.9499;-0.0674;-0.4525
0000801299;-4.0247;-9.8306;6.5122;0.9623;0.0135;-0.5053
0000801307;-3.6943;-9.1698;6.2441;0.9674;0.0681;-0.5577
0000801315;-3.4381;-8.4276;6.1627;0.9406;0.1130;-0.6038
0000801323;-3.2394;-7.6998;6.0908;0.9149;0.1303;-0.6412
0000801331;-2.9712;-7.4603;6.0501;0.8828;0.1335;-0.6643
0000801339;-2.4636;-7.0342;6.1651;0.8663;0.1238;-0.6776
0000801347;-2.5115;-7.8171;6.2680;0.8523;0.1143;-0.6515
0000801355;-2.2266;-8.1666;6.1890;0.8704;0.1160;-0.6009
0000801363;-1.9728;-8.3534;6.0501;0.8824;0.1195;-0.5368
0000801371;-2.2003;-8.2456;5.9185;0.8860;0.1120;-0.4838
0000801379;-2.4134;-7.8410;5.9376;0.8716;0.0931;-0.4422
0000801387;-2.5738;-7.4891;6.0334;0.8186;0.0685;-0.4306
0000801395;-2.6240;-7.3047;6.0478;0.7488;0.0606;-0.4145
0000801403;-2.4397;-7.0653;5.9544;0.6647;0.0552;-0.3957
0000801411;-2.1596;-6.9911;5.9256;0.5852;0.0538;-0.3660
0000801419;-1.6448;-7.0605;5.8682;0.5199;0.0508;-0.3166
0000801427;-1.3647;-7.3191;5.7772;0.4526;0.0636;-0.2671
0000801435;-1.2234;-7.4388;5.8442;0.4078;0.0544;-0.2376
0000801443;-1.1612;-7.7069;5.8347;0.3748;0.0286;-0.2192
0000801451;-0.9481;-7.9392;5.8395;0.3551;-0.0027;-0.1961
0000801459;-1.0175;-8.2959;5.7557;0.3479;-0.0420;-0.1901
0000801467;-0.8811;-8.2696;5.7174;0.3455;-0.0857;-0.1737
0000801475;-0.9960;-8.3677;5.6192;0.3488;-0.1328;-0.1624
0000801483;-0.9720;-8.2504;5.6862;0.3305;-0.1739;-0.1525
0000801491;-0.8475;-7.9607;5.5593;0.3036;-0.1912;-0.1619
0000801499;-0.7590;-7.8075;5.5067;0.2765;-0.1957;-0.1909
0000801507;-0.7542;-7.7428;5.4396;0.2385;-0.1733;-0.2089
0000801515;-0.2251;-7.2999;5.2098;0.2028;-0.1454;-0.2312
0000801523;-0.1820;-7.3287;5.0206;0.1731;-0.1078;-0.2454
0000801531;-0.1269;-7.3933;4.9081;0.1411;-0.0636;-0.2571
0000801539;-0.1652;-7.4555;4.9321;0.1244;-0.0224;-0.2651
0000801547;-0.4573;-7.5010;5.0661;0.1160;-0.0035;-0.2445
0000801555;-0.9673;-8.0014;5.5067;0.1411;-0.0201;-0.1985
0000801563;-2.2913;-8.7005;6.2369;0.1820;-0.0541;-0.1049
0000801571;-3.8427;-9.4954;6.5960;0.2566;-0.1123;0.0222
0000801579;-5.5785;-10.4220;6.4907;0.3207;-0.1772;0.1787
0000801587;-6.6655;-11.1570;5.8778;0.3528;-0.2386;0.3111
0000801595;-5.9544;-10.1131;5.7126;0.3316;-0.3055;0.3437
0000801603;-4.1779;-8.3486;5.6383;0.2790;-0.3275;0.2701
0000801611;-1.8627;-6.4763;5.7389;0.2141;-0.2368;0.1928
0000801619;-0.8356;-5.5857;5.6623;0.1551;-0.1014;0.1406
0000801627;-0.3903;-5.1092;5.4253;0.0921;0.0071;0.1144
0000801635;-0.9313;-5.2984;5.3726;0.0304;0.0453;0.1288
0000801643;-1.6041;-6.1052;5.3989;-0.0120;0.0222;0.1716
0000801651;-2.0686;-6.7181;5.6120;-0.0360;-0.0037;0.2214
0000801659;-2.3415;-7.6998;5.7197;-0.0524;0.0027;0.2705
0000801667;-1.9728;-7.9368;5.7102;-0.0412;0.0221;0.3002
0000801675;-1.7765;-8.0421;5.7413;-0.0140;0.0505;0.3175
0000801758;-2.1524;-7.7213;5.4875;-0.0017;-0.1512;0.1879
0000801766;-1.8675;-7.9392;5.4755;0.0222;-0.1522;0.1704
0000801774;-1.5921;-7.9895;5.2241;0.0486;-0.1367;0.1708
0000801782;-1.2570;-7.8434;5.1236;0.0799;-0.1130;0.1695
0000801790;-1.4269;-7.8650;5.1260;0.1061;-0.0771;0.1813
0000801798;-1.3192;-7.4412;5.0685;0.1330;-0.0629;0.2080
0000801806;-1.7382;-7.3287;5.0518;0.1496;-0.0538;0.2280
0000801814;-1.8340;-6.7421;5.2601;0.1587;-0.0570;0.2340
0000801822;-2.1021;-6.4859;5.3127;0.1529;-0.0624;0.2278
0000801830;-2.4421;-6.5505;5.5043;0.1186;-0.0754;0.2192
0000801838;-2.5379;-6.6272;5.4947;0.0861;-0.0923;0.2021
0000801846;-2.5331;-6.8043;5.5330;0.0553;-0.1074;0.1767
0000801854;-2.3200;-7.0797;5.4133;0.0421;-0.1239;0.1418
0000801862;-2.1811;-7.2281;5.4300;0.0345;-0.1211;0.1254
0000801870;-2.0662;-7.5681;5.3750;0.0406;-0.1136;0.0946
0000801878;-1.9058;-7.8362;5.2672;0.0586;-0.0947;0.0786
0000801886;-1.6161;-7.6950;5.1571;0.0827;-0.0770;0.0644
0000801894;-1.6568;-7.7045;5.1068;0.1179;-0.0521;0.0502
0000801902;-1.6592;-7.6638;4.9680;0.1350;-0.0265;0.0350
0000801910;-1.8076;-7.5274;4.9704;0.1535;-0.0095;0.0246
0000801918;-1.7190;-7.2808;4.8914;0.1719;0.0044;0.0120
0000801926;-2.0423;-7.1826;4.9105;0.1807;0.0333;0.0032
0000801934;-1.9441;-7.0102;4.9033;0.1969;0.0504;-0.0080
0000801942;-2.0806;-7.1635;4.7573;0.2054;0.0673;0.0063
0000801950;-1.9920;-7.3167;4.7692;0.2182;0.0937;0.0131
0000801958;-1.8483;-7.3310;4.6543;0.2233;0.1335;0.0203
0000801966;-1.6544;-7.2568;4.7381;0.2419;0.1779;0.0196
0000801974;-1.5850;-7.2377;4.5514;0.2607;0.2213;0.0340
0000801982;-1.7406;-7.3646;4.4125;0.2735;0.2717;0.0402
0000801990;-1.9178;-7.4029;4.4077;0.2896;0.3115;0.0500
0000801998;-1.7238;-7.1611;4.3144;0.3087;0.3500;0.0554
0000802006;-1.7478;-6.7852;4.2904;0.3187;0.3717;0.0667
0000802014;-2.2745;-6.9336;4.3287;0.3078;0.3897;0.0825
0000802022;-2.4469;-6.7109;4.2689;0.2959;0.3860;0.1025
0000802030;-2.5690;-6.4524;4.4724;0.2834;0.3655;0.1202
0000802038;-2.6360;-6.4021;4.4341;0.2662;0.3504;0.1508
0000802046;-2.9449;-6.4476;4.5394;0.2426;0.3304;0.1729
0000802054;-2.7605;-6.3805;4.5921;0.2198;0.2995;0.1847
0000802062;-2.8539;-6.5912;4.5538;0.1990;0.2615;0.1998
0000802070;-2.7007;-6.5864;4.5394;0.1724;0.2222;0.2149
0000802078;-2.8084;-6.8426;4.5298;0.1532;0.1873;0.2214
0000802086;-2.7581;-7.0030;4.5777;0.1407;0.1452;0.2144
0000802094;-2.7725;-7.1012;4.4221;0.1286;0.1037;0.2245
0000802102;-2.8108;-7.3143;4.6735;0.1167;0.0815;0.2361
0000802110;-2.5115;-7.1299;4.6783;0.1136;0.0608;0.2447
0000802118;-2.6671;-7.3598;4.7166;0.1174;0.0444;0.2537
0000802126;-2.2960;-7.1515;4.6184;0.1116;0.0398;0.2695
0000802134;-2.3774;-7.0198;4.7477;0.1104;0.0209;0.2735
0000802142;-2.3966;-6.9671;4.7860;0.1045;0.0019;0.2919
0000802150;-2.6001;-6.9480;4.8100;0.0961;-0.0242;0.3039
0000802158;-2.4493;-6.9097;4.7788;0.0981;-0.0584;0.3151
0000802166;-2.6408;-7.0916;4.7740;0.0975;-0.0801;0.3269
0000802174;-2.5450;-7.0773;4.7764;0.0974;-0.0973;0.3340
0000802182;-2.3176;-7.2089;4.8507;0.1092;-0.1045;0.3376
0000802190;-2.2242;-7.0892;4.6256;0.1142;-0.0930;0.3529
0000802198;-2.0997;-7.1371;4.6950;0.1248;-0.0861;0.3601
0000802206;-1.9585;-6.9456;4.6663;0.1374;-0.0871;0.3676
0000802214;-1.9728;-6.8354;4.8123;0.1311;-0.0762;0.3829
0000802222;-2.2458;-6.6942;4.8674;0.1200;-0.0846;0.3850
0000802230;-2.4134;-6.4787;5.0350;0.1026;-0.0894;0.3929
0000802238;-2.6384;-6.2010;5.1763;0.0675;-0.0855;0.4041
0000802246;-2.5139;-5.8897;5.3032;0.0264;-0.0834;0.3998
0000802254;-2.5426;-5.8107;5.3510;-0.0292;-0.0546;0.3945
0000802262;-2.4732;-5.7365;5.3606;-0.0826;-0.0340;0.3756
0000802270;-2.1213;-5.7604;5.3271;-0.1298;-0.0124;0.3683
0000802278;-2.2505;-5.9735;5.2601;-0.1767;0.0132;0.3725
0000802286;-2.2721;-6.2201;5.2840;-0.2162;0.0290;0.3822
0000802294;-2.2290;-6.1938;5.4133;-0.2490;0.0332;0.3840
0000802302;-2.1907;-6.1316;5.2577;-0.2813;0.0544;0.3870
0000802310;-2.4110;-6.3279;5.2529;-0.3140;0.0742;0.3742
0000802318;-2.2960;-6.3422;5.2218;-0.3456;0.0969;0.3468
0000802326;-2.3463;-6.4883;4.9009;-0.3644;0.1230;0.3170
0000802410;-2.2410;-5.6360;4.6280;-0.4634;0.0492;0.2198
0000802418;-2.4421;-5.6671;4.7525;-0.4872;0.0406;0.2034
0000802426;-2.3846;-5.7533;4.6448;-0.5123;0.0288;0.1897
0000802434;-2.3966;-6.1459;4.6807;-0.5268;0.0217;0.1863
0000802442;-2.0423;-6.0932;4.5681;-0.5380;0.0155;0.1823
0000802450;-1.7621;-6.2800;4.5203;-0.5411;0.0272;0.1893
0000802458;-1.3192;-6.0861;4.5274;-0.5564;0.0476;0.2004
0000802466;-1.2594;-6.0501;4.5801;-0.5725;0.0675;0.2152
0000802474;-1.3910;-5.8969;4.5466;-0.5894;0.0953;0.2196
0000802482;-1.3408;-5.5378;4.6615;-0.6075;0.1187;0.2129
0000802490;-1.4413;-5.5282;4.6543;-0.6267;0.1484;0.2009
0000802498;-1.4317;-5.4492;4.5681;-0.6450;0.1775;0.1903
0000802506;-1.5778;-5.4324;4.6088;-0.6667;0.2008;0.1756
0000802514;-1.7047;-5.6934;4.6064;-0.6726;0.2240;0.1579
0000802522;-1.7071;-5.7868;4.6376;-0.6787;0.2377;0.1444
0000802530;-1.9058;-5.8610;4.5897;-0.6695;0.2478;0.1163
0000802538;-1.7693;-5.8466;4.5657;-0.6662;0.2658;0.0971
0000802546;-1.9872;-5.9807;4.4293;-0.6582;0.2729;0.0665
0000802554;-1.9896;-6.1076;4.4843;-0.6458;0.2794;0.0308
0000802562;-1.7621;-5.9616;4.4484;-0.6390;0.2900;0.0023
0000802570;-1.8555;-6.1483;4.6017;-0.6281;0.2994;-0.0352
0000802578;-1.8651;-6.0717;4.6902;-0.6081;0.3086;-0.0663
0000802586;-1.9609;-6.1148;4.7980;-0.5882;0.3268;-0.1025
0000802594;-2.2122;-6.2560;4.8722;-0.5592;0.3387;-0.1319
0000802602;-2.2793;-6.3734;4.9033;-0.5197;0.3444;-0.1599
0000802610;-2.3487;-6.5625;4.9967;-0.4754;0.3507;-0.1699
0000802618;-2.4301;-6.7253;4.9560;-0.4233;0.3532;-0.1896
0000802626;-2.6049;-6.8283;4.9823;-0.3641;0.3492;-0.2002
0000802634;-2.7581;-6.9504;4.9919;-0.3087;0.3447;-0.2158
0000802642;-3.0023;-6.9911;5.0542;-0.2372;0.3283;-0.2353
0000802650;-3.0191;-6.8235;5.0278;-0.1812;0.3119;-0.2491
0000802658;-3.1149;-6.9312;4.9584;-0.1164;0.2799;-0.2742
0000802666;-3.0335;-6.8019;4.8291;-0.0581;0.2462;-0.2914
0000802674;-3.2489;-6.8738;4.8602;-0.0089;0.2130;-0.3056
0000802682;-3.1675;-6.5577;4.7740;0.0301;0.1940;-0.3064
0000802690;-2.8204;-6.4212;4.7429;0.0573;0.1797;-0.3027
0000802698;-2.7845;-6.0717;4.6567;0.0858;0.1669;-0.2918
0000802706;-2.8012;-6.0118;4.5633;0.0909;0.1700;-0.2667
0000802714;-2.7318;-5.7748;4.4269;0.0806;0.1699;-0.2506
0000802722;-2.9209;-5.6288;4.3958;0.0726;0.1692;-0.2392
0000802730;-3.0263;-5.4444;4.3551;0.0512;0.1707;-0.2120
0000802738;-2.7677;-5.1715;4.3742;0.0312;0.1641;-0.1948
0000802746;-2.9449;-5.3439;4.3598;0.0131;0.1563;-0.1744
0000802754;-3.3208;-5.4803;4.3503;-0.0164;0.1549;-0.1460
0000802762;-3.4237;-5.7964;4.4580;-0.0349;0.1460;-0.1252
0000802770;-3.5434;-6.0741;4.3048;-0.0313;0.1187;-0.0993
0000802778;-3.7302;-6.2393;4.1922;-0.0266;0.0953;-0.0702
0000802786;-3.7182;-6.4907;4.2641;-0.0352;0.0610;-0.0524
0000802794;-3.5841;-6.5266;4.2066;-0.0185;0.0296;-0.0320
0000802802;-3.5410;-6.6966;4.2234;-0.0177;0.0152;-0.0105
0000802810;-3.5243;-6.7397;4.1827;-0.0065;-0.0092;-0.0007
0000802818;-3.2896;-6.5793;4.0773;0.0052;-0.0282;-0.0032
0000802826;-3.0143;-6.3398;4.1372;0.0171;-0.0640;-0.0069
0000802834;-2.9233;-6.4667;4.1228;0.0141;-0.0869;-0.0191
0000802842;-2.8994;-6.6248;4.1492;0.0212;-0.1124;-0.0368
0000802850;-2.7102;-6.5027;4.1659;0.0152;-0.1132;-0.0452
0000802858;-2.6169;-6.6152;4.1013;0.0049;-0.1166;-0.0609
0000802866;-2.4373;-6.5122;4.1324;0.0032;-0.1224;-0.0757
0000802874;-2.5474;-6.6343;4.0318;-0.0124;-0.1123;-0.0861
0000802882;-2.5594;-6.7373;4.0749;-0.0171;-0.1156;-0.0989
0000802890;-2.4541;-6.5362;4.0510;-0.0229;-0.1119;-0.1026
0000802898;-2.5474;-6.6655;4.0606;-0.0276;-0.1094;-0.1128
0000802906;-2.5019;-6.5793;4.0175;-0.0312;-0.1136;-0.1283
0000802914;-2.5331;-6.9025;4.0366;-0.0346;-0.1043;-0.1334
0000802922;-2.5570;-6.9935;3.8331;-0.0398;-0.0961;-0.1351
0000802930;-2.4134;-6.9192;3.8882;-0.0373;-0.0870;-0.1541
0000802938;-2.3583;-7.0964;3.9456;-0.0381;-0.0584;-0.1490
0000802946;-2.2769;-7.0653;3.8595;-0.0302;-0.0404;-0.1519
0000802954;-2.3703;-7.2880;3.9768;-0.0145;-0.0169;-0.1498
0000802962;-2.3774;-7.1060;3.8331;-0.0147;0.0171;-0.1388
0000802970;-2.3727;-7.2712;3.8188;-0.0031;0.0416;-0.1336
0000803105;-3.0478;-6.6702;3.3758;0.0428;0.1572;-0.1962
0000803113;-2.9090;-6.5003;3.5027;0.0300;0.1557;-0.1992
0000803121;-3.0957;-6.7014;3.5051;0.0215;0.1492;-0.2090
0000803129;-2.8443;-6.4165;3.5817;0.0132;0.1364;-0.2160
0000803137;-2.9449;-6.4596;3.5937;-0.0031;0.1267;-0.2133
0000803145;-3.0287;-6.5864;3.6176;-0.0217;0.1192;-0.2141
0000803153;-3.0550;-6.5793;3.8140;-0.0290;0.1059;-0.2134
0000803161;-2.8252;-6.5434;3.7134;-0.0388;0.0967;-0.1981
0000803169;-2.8228;-6.7133;3.7421;-0.0453;0.0873;-0.2017
0000803177;-2.6647;-6.7181;3.6990;-0.0510;0.0630;-0.2198
0000803185;-2.7509;-6.8570;3.8259;-0.0557;0.0568;-0.2272
0000803193;-2.7246;-6.8091;3.8164;-0.0596;0.0462;-0.2368
0000803201;-3.0406;-7.2544;3.8116;-0.0694;0.0161;-0.2597
0000803209;-2.7533;-7.3047;3.9480;-0.0863;-0.0229;-0.2730
0000803217;-2.4636;-7.3526;3.9528;-0.1162;-0.0617;-0.2828
0000803225;-2.3990;-7.4603;3.8930;-0.1300;-0.0814;-0.2956
0000803233;-2.3248;-7.4029;3.9840;-0.1443;-0.0785;-0.2864
0000803241;-2.1524;-7.2233;4.2066;-0.1471;-0.1094;-0.2770
0000803249;-2.1835;-7.3071;4.1180;-0.1335;-0.1262;-0.2661
0000803257;-2.2386;-7.3478;4.2904;-0.1311;-0.0890;-0.2539
0000803265;-2.2051;-7.3981;4.2258;-0.1262;-0.1019;-0.2443
0000803273;-2.1787;-7.4172;4.3383;-0.1184;-0.1300;-0.2518
0000803281;-2.3008;-7.4579;4.4843;-0.1061;-0.1488;-0.2651
0000803289;-2.4349;-7.8410;4.4388;-0.0942;-0.1522;-0.2691
0000803297;-2.2745;-7.9607;4.4341;-0.0815;-0.1652;-0.2906
0000803305;-2.2529;-8.1954;4.4365;-0.0588;-0.1661;-0.3140
0000803313;-2.0542;-8.3079;4.5849;-0.0598;-0.1796;-0.3596
0000803321;-1.9752;-8.6886;4.4101;-0.0426;-0.1716;-0.3850
0000803329;-1.9752;-8.7460;4.2737;-0.0051;-0.1490;-0.3770
0000803337;-1.8866;-8.4084;4.3311;0.0314;-0.1286;-0.3663
0000803345;-1.7478;-7.9296;4.2210;0.0592;-0.0993;-0.3481
0000803353;-1.9345;-7.8506;4.2258;0.0799;-0.0746;-0.3273
0000803361;-2.0662;-7.6519;4.2545;0.0863;-0.0554;-0.3175
0000803369;-2.2553;-7.6399;4.3527;0.0715;-0.0266;-0.3067
0000803377;-2.7414;-7.5417;4.3479;0.0618;0.0001;-0.3152
0000803385;-3.2034;-7.7213;4.3838;0.0494;0.0089;-0.3110
0000803393;-3.5075;-7.9104;4.3838;0.0406;-0.0124;-0.3234
0000803401;-3.6990;-8.1092;4.4987;0.0410;-0.0488;-0.3336
0000803409;-3.7661;-8.2049;4.4652;0.0505;-0.0939;-0.3272
0000803417;-3.4907;-8.2768;4.5274;0.0545;-0.1478;-0.3094
0000803425;-2.9712;-8.4156;4.6112;0.0622;-0.1985;-0.2920
0000803433;-2.5139;-8.4851;4.5179;0.0715;-0.2152;-0.2606
0000803441;-2.1165;-8.4396;4.4221;0.1015;-0.2145;-0.2316
0000803449;-1.5227;-8.2289;4.1827;0.1335;-0.1935;-0.2092
0000803457;-1.4700;-8.2408;4.1108;0.1621;-0.1549;-0.1847
0000803465;-1.4174;-8.3007;3.9049;0.1997;-0.1238;-0.1769
0000803473;-1.4964;-8.2432;3.9121;0.2225;-0.0953;-0.1661
0000803481;-1.6185;-8.0278;3.9576;0.2397;-0.0795;-0.1760
0000803489;-2.2098;-8.1020;4.0606;0.2322;-0.0556;-0.1864
0000803497;-2.5283;-7.9080;4.1252;0.2272;-0.0390;-0.2118
0000803505;-2.9497;-7.7955;4.2856;0.2236;-0.0484;-0.2554
0000803513;-3.1436;-7.5298;4.3574;0.2022;-0.0644;-0.2848
0000803521;-3.2226;-7.4962;4.4101;0.1791;-0.0939;-0.2988
0000803529;-3.2705;-7.5034;4.3048;0.1651;-0.1315;-0.3024
0000803537;-2.8874;-7.6686;4.2665;0.1495;-0.1552;-0.2761
0000803545;-2.2505;-7.6950;4.0725;0.1512;-0.1669;-0.2483
0000803553;-1.8316;-8.0541;3.9648;0.1544;-0.1402;-0.2038
0000803561;-1.2953;-8.0517;3.7445;0.1747;-0.1053;-0.1655
0000803569;-1.3623;-8.3462;3.6057;0.1958;-0.0687;-0.1495
0000803577;-1.3791;-8.3031;3.4620;0.2177;-0.0456;-0.1616
0000803585;-2.0135;-8.5186;3.4740;0.2296;-0.0264;-0.1869
0000803593;-2.2386;-8.2935;3.6152;0.2395;-0.0135;-0.2272
0000803601;-2.5594;-8.1666;3.7373;0.2429;-0.0107;-0.2641
0000803609;-2.8587;-7.9583;3.8690;0.2278;-0.0184;-0.3022
0000803617;-3.2825;-8.0230;4.0199;0.2150;-0.0528;-0.3455
0000803626;-3.1292;-7.8697;4.0318;0.2025;-0.0905;-0.3725
0000803635;-2.4900;-7.9679;4.1276;0.2037;-0.1378;-0.4030
0000803644;-1.9585;-8.3318;3.8307;0.2146;-0.1472;-0.4058
0000803653;-1.4269;-8.6742;3.5027;0.2407;-0.1235;-0.4116
0000803662;-1.0750;-8.8945;3.3064;0.2863;-0.0903;-0.4169
0000803750;-1.9249;-7.6447;3.2896;0.5231;-0.0927;-0.4242
0000803759;-2.1763;-7.7333;3.2561;0.5157;-0.0695;-0.4267
0000803768;-2.3750;-7.8626;3.5410;0.5263;-0.0733;-0.4299
0000803777;-2.4301;-7.7955;3.5793;0.5115;-0.0682;-0.4048
0000803786;-2.6456;-7.7859;3.4907;0.5097;-0.0771;-0.3868
0000803795;-2.6504;-7.7644;3.5099;0.5032;-0.0905;-0.3688
0000803804;-2.4373;-7.6351;3.3615;0.4995;-0.1210;-0.3540
0000803813;-2.1452;-7.6495;3.3854;0.4776;-0.1172;-0.3361
0000803822;-1.6927;-7.5274;3.3567;0.4762;-0.1139;-0.3168
0000803831;-1.4676;-7.4292;3.4189;0.4903;-0.1077;-0.2908
0000803840;-1.5897;-7.4531;3.2872;0.4992;-0.0909;-0.2591
0000803849;-1.7382;-7.5657;3.1843;0.5031;-0.0897;-0.2459
0000803858;-1.7861;-7.5010;3.0358;0.4784;-0.0807;-0.2352
0000803867;-1.8387;-7.2137;3.1939;0.4630;-0.0971;-0.2469
0000803876;-2.4134;-7.3071;3.8499;0.4442;-0.1418;-0.2535
0000803885;-2.9209;-7.2736;4.5274;0.4678;-0.2170;-0.2581
0000803894;-3.2657;-7.7117;4.8698;0.4766;-0.2719;-0.2296
0000803903;-3.3040;-8.0349;5.1260;0.4864;-0.2791;-0.2153
0000803912;-3.4548;-8.5114;5.8371;0.4974;-0.2765;-0.1936
0000803921;-4.0534;-9.2943;5.9927;0.4830;-0.2226;-0.1322
0000803930;-3.7086;-9.5433;5.7389;0.4222;-0.0867;-0.0622
0000803939;-3.4524;-9.1267;5.5115;0.3675;0.0584;-0.0067
0000803948;-2.9904;-7.9368;5.2888;0.3293;0.1572;-0.0127
0000803957;-2.7988;-7.5106;5.0494;0.3124;0.1719;-0.0337
0000803966;-3.7709;-8.0637;5.2481;0.3174;0.1174;-0.0292
0000803975;-4.5346;-8.8992;5.6168;0.3191;0.0356;0.0401
0000803984;-4.9680;-9.6534;5.9256;0.3689;-0.0632;0.1195
0000803993;-5.0254;-10.2639;5.9855;0.3988;-0.0907;0.1944
0000804002;-4.3838;-10.2975;5.7581;0.4385;-0.0370;0.2020
0000804011;-4.0893;-9.7827;5.5713;0.4666;0.0722;0.1470
0000804020;-3.5291;-8.7652;5.2194;0.4832;0.1518;0.0552
0000804029;-3.4884;-8.0517;5.2648;0.4608;0.1855;-0.0288
0000804038;-3.4907;-7.3957;5.0637;0.4190;0.1849;-0.0761
0000804047;-3.2825;-6.8522;4.9919;0.3411;0.1703;-0.0838
0000804056;-3.3902;-6.6774;4.9009;0.2611;0.1463;-0.0681
0000804065;-3.4069;-6.7301;4.8315;0.1808;0.1022;-0.0342
0000804074;-3.1603;-6.6559;4.8243;0.1047;0.0488;0.0141
0000804083;-2.7940;-6.8259;4.7716;0.0270;-0.0056;0.0655
0000804092;-2.3990;-6.8905;4.7764;-0.0358;-0.0762;0.1086
0000804101;-1.8148;-6.9408;4.6376;-0.0891;-0.1159;0.1575
0000804110;-1.3527;-7.3885;4.5514;-0.1392;-0.1403;0.2001
0000804119;-0.7254;-7.5609;4.5945;-0.1685;-0.1591;0.2397
0000804128;-0.5674;-7.6950;4.8291;-0.1715;-0.1993;0.2715
0000804137;-1.4892;-8.3462;5.3415;-0.1359;-0.2673;0.2966
0000804146;-2.7509;-9.4116;5.8514;-0.0765;-0.3459;0.3248
0000804155;-3.7517;-10.0772;6.0310;-0.0192;-0.3748;0.3704
0000804164;-4.5322;-10.9319;5.9759;0.0233;-0.3405;0.3872
0000804173;-4.0869;-10.7021;5.9424;0.0616;-0.2922;0.3551
0000804182;-3.3088;-9.7324;5.6360;0.1195;-0.2630;0.2674
0000804191;-2.0159;-8.6143;5.6048;0.1503;-0.2116;0.1515
0000804200;-0.9888;-7.7428;5.5306;0.1796;-0.1540;0.0384
0000804209;-0.3855;-7.0222;5.3941;0.1815;-0.1081;-0.0392
0000804218;-0.3831;-6.9647;5.2529;0.1743;-0.0902;-0.0745
0000804227;-0.5195;-7.0485;4.9584;0.1665;-0.0850;-0.0636
0000804236;-0.8619;-7.2640;5.1595;0.1865;-0.0830;-0.0485
0000804245;-1.3886;-7.8171;5.1308;0.2006;-0.0612;-0.0218
0000804254;-2.0973;-8.1331;5.1571;0.2317;-0.0524;-0.0147
0000804263;-2.6528;-8.5353;5.0829;0.2586;-0.0530;-0.0155
0000804272;-2.9616;-8.6407;5.0925;0.2876;-0.0679;-0.0211
0000804281;-3.0670;-8.2600;5.0302;0.3078;-0.0779;-0.0316
0000804290;-2.6336;-7.9703;5.0757;0.3218;-0.1128;-0.0376
0000804299;-2.6336;-7.7261;5.0039;0.3391;-0.1346;-0.0485
0000804308;-2.3080;-7.4986;4.9153;0.3325;-0.1124;-0.0529
0000804317;-2.1308;-7.3478;4.9991;0.3267;-0.1111;-0.0650
0000804326;-2.2338;-7.4795;4.9081;0.3188;-0.1267;-0.0706
0000804335;-2.2865;-7.5417;4.9129;0.3086;-0.1334;-0.0721
0000804344;-2.1069;-7.5848;4.8507;0.3066;-0.1403;-0.0719
0000804353;-2.0423;-7.6854;4.7860;0.3035;-0.1432;-0.0608
0000804362;-1.9273;-7.4029;4.8411;0.3103;-0.1327;-0.0589
0000804371;-1.9321;-7.3263;5.0542;0.2928;-0.1216;-0.0630
0000804380;-1.9321;-7.1754;5.1332;0.2723;-0.1204;-0.0665
0000804466;-1.8771;-7.0749;4.6567;0.0041;-0.0434;0.1039
0000804475;-2.3296;-7.2329;4.6615;-0.0147;-0.0425;0.1322
0000804484;-2.4277;-7.2233;4.6926;-0.0164;-0.0554;0.1424
0000804493;-2.5977;-7.1012;4.6687;-0.0265;-0.0606;0.1510
0000804502;-2.5881;-6.9911;4.7597;-0.0413;-0.0620;0.1522
0000804511;-2.6552;-7.1299;4.6855;-0.0596;-0.0598;0.1628
0000804520;-2.4972;-7.1682;4.6184;-0.0742;-0.0470;0.1708
0000804529;-2.3559;-7.1467;4.5490;-0.0727;-0.0348;0.1712
0000804538;-2.2434;-7.3909;4.3311;-0.0601;-0.0189;0.1811
0000804547;-2.6073;-7.5369;4.4101;-0.0409;-0.0041;0.1849
0000804556;-2.5283;-7.4412;4.4604;-0.0257;-0.0009;0.1804
0000804565;-2.7869;-7.4795;4.4772;-0.0184;-0.0019;0.1664
0000804574;-2.5570;-7.4579;4.4604;-0.0057;0.0031;0.1581
0000804583;-2.4708;-7.5872;4.3503;0.0120;0.0132;0.1478
0000804592;-2.3774;-7.5896;4.2569;0.0192;0.0425;0.1524
0000804601;-2.0877;-7.5226;4.2377;0.0472;0.0674;0.1474
0000804610;-2.0710;-7.4268;4.0199;0.0717;0.1055;0.1524
0000804619;-2.1356;-7.5130;3.8882;0.0959;0.1246;0.1577
0000804628;-2.2817;-7.5705;3.8930;0.1175;0.1604;0.1737
0000804637;-2.5235;-7.4699;3.9145;0.1424;0.1652;0.1761
0000804646;-2.7677;-7.6160;3.9385;0.1568;0.1668;0.1904
0000804655;-2.7390;-7.5657;3.9600;0.1657;0.1454;0.2008
0000804664;-2.9042;-7.4484;4.0175;0.1724;0.1079;0.2041
0000804673;-2.7533;-7.2305;4.1180;0.1697;0.0801;0.2093
0000804682;-2.7509;-7.2425;4.0941;0.1612;0.0794;0.2297
0000804691;-2.6360;-7.2736;4.0893;0.1507;0.0663;0.2376
0000804700;-2.6576;-7.2425;4.0749;0.1339;0.0634;0.2705
0000804709;-2.5283;-7.1587;4.0989;0.1223;0.0517;0.2950
0000804718;-2.3655;-7.2042;4.1587;0.1178;0.0488;0.3276
0000804727;-2.3966;-6.9312;4.2928;0.1231;0.0301;0.3435
0000804736;-2.6432;-7.1036;4.3215;0.1190;0.0211;0.3599
0000804745;-2.6528;-6.9935;4.3431;0.1270;-0.0045;0.3547
0000804754;-2.7126;-7.2137;4.3527;0.1258;-0.0211;0.3592
0000804763;-2.4972;-7.1419;4.3766;0.1440;-0.0369;0.3443
0000804772;-2.4948;-7.4723;4.4460;0.1522;-0.0238;0.3348
0000804781;-2.2601;-7.3502;4.4676;0.1783;-0.0201;0.3184
0000804790;-2.2673;-7.5130;4.3838;0.2134;0.0059;0.3056
0000804799;-2.1715;-7.4555;4.2090;0.2546;0.0216;0.2939
0000804808;-2.2936;-7.4915;4.2329;0.2892;0.0485;0.2827
0000804817;-2.1500;-7.1946;4.1707;0.3239;0.0673;0.2691
0000804826;-2.1045;-7.0964;4.1994;0.3561;0.0751;0.2566
0000804835;-2.2936;-6.9983;4.2569;0.3834;0.0775;0.2430
0000804844;-2.3272;-6.9360;4.2329;0.4018;0.0925;0.2437
0000804853;-2.2769;-6.8690;4.2234;0.4259;0.0911;0.2401
0000804862;-2.3559;-6.7684;4.4317;0.4341;0.0995;0.2537
0000804871;-2.6408;-6.5769;4.6328;0.4214;0.1017;0.2593
0000804880;-2.6193;-6.2153;4.8195;0.4048;0.0774;0.2550
0000804889;-2.7845;-5.8682;4.9392;0.3704;0.0743;0.2558
0000804898;-2.7701;-5.7269;5.0661;0.3321;0.0663;0.2308
0000804907;-2.8659;-5.5929;5.2744;0.2813;0.0661;0.2068
0000804916;-2.8299;-5.7916;5.2265;0.2312;0.0618;0.1780
0000804925;-2.7198;-5.7820;5.2720;0.1920;0.0538;0.1653
0000804934;-2.5498;-5.9328;5.2481;0.1483;0.0532;0.1595
0000804943;-2.4636;-6.0765;5.1547;0.1182;0.0397;0.1374
0000804952;-2.3152;-6.1004;5.2313;0.0802;0.0293;0.1232
0000804961;-2.4421;-6.4093;5.2505;0.0478;0.0305;0.1082
0000804970;-2.4972;-6.3805;5.1691;0.0304;0.0248;0.0907
0000804979;-2.2098;-6.3901;5.1284;0.0151;0.0278;0.0893
0000804988;-2.1189;-6.3111;5.1332;0.0163;0.0240;0.0839
0000804997;-2.2098;-6.1986;5.0637;0.0073;0.0165;0.0881
0000805006;-2.3080;-5.9735;5.0637;0.0057;-0.0052;0.0711
0000805015;-2.5474;-5.8371;5.1068;-0.0132;-0.0228;0.0648
0000805024;-2.6264;-5.9352;5.0733;-0.0213;-0.0432;0.0522
0000805033;-2.5881;-5.9185;4.9967;-0.0353;-0.0642;0.0410
0000805042;-2.5786;-6.0597;5.0087;-0.0365;-0.1041;0.0321
0000805051;-2.4972;-6.2034;4.9416;-0.0540;-0.1370;0.0400
0000805060;-2.5091;-6.3207;4.9680;-0.0550;-0.1536;0.0437
0000805069;-2.3320;-6.2273;4.9057;-0.0469;-0.1700;0.0453
0000805078;-2.3104;-6.4811;4.9775;-0.0449;-0.1684;0.0512
0000805087;-1.8842;-6.3231;4.8602;-0.0306;-0.1775;0.0548
0000805096;-1.8411;-6.2728;4.8339;-0.0317;-0.1575;0.0629
0000805105;-1.9225;-6.3255;4.8961;-0.0308;-0.1371;0.0554
0000805114;-1.9154;-6.2273;4.8243;-0.0290;-0.1171;0.0522
0000805212;-1.9776;-5.7916;4.8698;-0.0189;0.0191;-0.0145
0000805221;-1.9537;-5.7700;4.8507;-0.0326;0.0272;-0.0606
0000805230;-2.0518;-5.8586;4.7908;-0.0477;0.0277;-0.1061
0000805239;-1.7526;-5.6743;4.8483;-0.0670;0.0309;-0.1608
0000805248;-1.5730;-5.6048;4.7884;-0.0865;0.0460;-0.2086
0000805257;-1.4293;-5.6144;4.7836;-0.1041;0.0634;-0.2585
0000805266;-1.3024;-5.5952;4.7357;-0.1131;0.0873;-0.3123
0000805275;-1.1468;-5.5354;4.6543;-0.1254;0.1168;-0.3523
0000805284;-1.2570;-5.4947;4.6208;-0.1399;0.1494;-0.3941
0000805293;-1.3408;-5.4324;4.6759;-0.1676;0.1920;-0.4197
0000805302;-1.5634;-5.5474;4.7022;-0.1856;0.2142;-0.4430
0000805311;-1.9896;-5.5330;4.7836;-0.2013;0.2294;-0.4623
0000805320;-2.3655;-5.6407;4.7788;-0.2096;0.2376;-0.4735
0000805329;-2.6360;-5.6719;4.8937;-0.2156;0.2439;-0.4720
0000805338;-3.1388;-6.1555;4.9656;-0.2042;0.2333;-0.4684
0000805347;-3.2274;-6.2991;4.8076;-0.1775;0.2157;-0.4475
0000805356;-3.3998;-6.7373;4.6974;-0.1439;0.1821;-0.4189
0000805365;-3.3830;-6.9552;4.6639;-0.0991;0.1450;-0.3746
0000805374;-3.4333;-6.9599;4.5562;-0.0497;0.1223;-0.3248
0000805383;-3.2322;-6.6439;4.5514;-0.0224;0.0923;-0.2742
0000805392;-3.2777;-6.2704;4.5203;0.0008;0.0469;-0.2462
0000805401;-3.0837;-5.7269;4.5322;0.0044;0.0183;-0.2101
0000805410;-3.0550;-5.4612;4.5777;-0.0073;0.0127;-0.1725
0000805419;-2.8802;-5.1763;4.4388;-0.0318;0.0072;-0.1396
0000805428;-2.7102;-5.0254;4.4197;-0.0597;0.0191;-0.0938
0000805437;-2.7438;-4.7405;4.3670;-0.1085;0.0344;-0.0500
0000805446;-2.6264;-4.6543;4.2162;-0.1483;0.0290;-0.0224
0000805455;-2.7246;-4.7764;4.2713;-0.2009;0.0320;0.0109
0000805464;-3.0239;-5.1763;4.2258;-0.2380;0.0221;0.0449
0000805473;-2.9832;-5.4037;4.1539;-0.2618;0.0073;0.0702
0000805482;-3.0454;-5.6790;4.1587;-0.2773;0.0036;0.1071
0000805491;-3.1675;-5.9280;4.2665;-0.2801;0.0016;0.1351
0000805500;-3.2777;-6.1339;4.3503;-0.2551;-0.0169;0.1455
0000805509;-3.2178;-6.2920;4.2306;-0.2394;-0.0147;0.1681
0000805518;-3.2250;-6.4404;4.2401;-0.2126;-0.0305;0.1745
0000805527;-3.0622;-6.2728;4.1899;-0.1881;-0.0432;0.1724
0000805536;-2.7964;-6.0956;4.1587;-0.1741;-0.0641;0.1415
0000805545;-2.3607;-5.9017;4.1659;-0.1723;-0.0698;0.1096
0000805554;-2.2266;-5.9879;4.2042;-0.1740;-0.0730;0.0674
0000805563;-1.9992;-5.8299;4.2329;-0.1752;-0.0797;0.0184
0000805572;-2.0207;-6.0071;4.1228;-0.1651;-0.0847;-0.0167
0000805581;-1.9034;-6.3901;4.2018;-0.1511;-0.0822;-0.0460
0000805590;-1.9968;-6.5793;4.2162;-0.1379;-0.0701;-0.0657
0000805599;-2.0063;-6.7397;4.2425;-0.1170;-0.0616;-0.0959
0000805608;-2.3703;-6.7253;4.1563;-0.0917;-0.0594;-0.1306
0000805617;-2.4924;-6.7636;4.2282;-0.0718;-0.0574;-0.1494
0000805626;-2.3822;-6.5721;4.2713;-0.0529;-0.0659;-0.1771
0000805635;-2.5786;-6.5888;4.3646;-0.0389;-0.0709;-0.1953
0000805644;-2.3918;-6.3710;4.1970;-0.0228;-0.0739;-0.2120
0000805653;-2.3870;-6.2417;4.1061;-0.0040;-0.0837;-0.2205
0000805662;-2.5857;-6.4500;4.2808;-0.0047;-0.0826;-0.2153
0000805671;-2.6145;-6.2920;4.2832;0.0048;-0.0921;-0.2090
0000805680;-2.7174;-6.3518;4.1707;0.0048;-0.1075;-0.1973
0000805689;-2.4469;-6.1818;4.1515;0.0048;-0.1271;-0.1817
0000805698;-2.1572;-6.3111;4.1707;-0.0047;-0.1518;-0.1463
0000805707;-1.8579;-6.2944;4.3622;-0.0031;-0.1791;-0.1215
0000805716;-1.3910;-6.4045;4.3024;-0.0159;-0.1877;-0.0731
0000805725;-1.0918;-6.3470;4.3000;-0.0228;-0.1948;-0.0350
0000805734;-0.5124;-6.2417;4.2641;-0.0237;-0.1845;-0.0060
0000805743;-0.2586;-6.3111;4.0270;-0.0297;-0.1451;0.0136
0000805752;-0.1820;-6.5721;3.9672;-0.0240;-0.1055;0.0224
0000805761;-0.4046;-6.5553;4.0390;-0.0320;-0.0504;0.0149
0000805770;-0.5363;-6.4069;4.0677;-0.0334;-0.0121;-0.0152
0000805779;-1.1157;-6.4715;4.0007;-0.0520;0.0260;-0.0381
0000805788;-1.2210;-6.2680;4.0103;-0.0718;0.0472;-0.0799
0000805797;-1.6903;-6.2991;4.0725;-0.0982;0.0675;-0.1198
0000805806;-2.0399;-6.3853;3.9911;-0.1260;0.0646;-0.1708
0000805815;-2.3343;-6.5936;3.9935;-0.1358;0.0229;-0.2102
0000805824;-2.5235;-6.6726;4.1731;-0.1418;-0.0434;-0.2346
0000805833;-2.5307;-6.7301;4.3431;-0.1374;-0.1047;-0.2317
0000805920;-3.3208;-6.6894;4.6208;-0.1030;-0.0440;-0.1669
0000805929;-3.5099;-6.4165;4.6400;-0.1263;-0.1075;-0.1958
0000805938;-3.3998;-6.2680;4.6639;-0.1660;-0.1725;-0.2276
0000805947;-2.9544;-6.5290;4.5394;-0.1928;-0.2431;-0.2669
0000805956;-2.3152;-6.9145;4.2329;-0.1919;-0.2647;-0.2787
0000805965;-1.9896;-7.4579;4.1659;-0.1675;-0.2421;-0.2987
0000805974;-1.6137;-7.6447;4.3742;-0.1332;-0.1880;-0.3126
0000805983;-1.8411;-7.5776;4.4317;-0.0947;-0.1467;-0.3417
0000805992;-2.2482;-7.6543;4.4412;-0.0618;-0.1174;-0.3483
0000806001;-2.6145;-7.6447;4.5657;-0.0482;-0.1160;-0.3469
0000806010;-2.6312;-7.2377;4.4652;-0.0269;-0.1379;-0.3479
0000806019;-3.0646;-7.2472;4.5274;-0.0156;-0.1476;-0.3289
0000806028;-3.2561;-7.0916;4.5657;0.0023;-0.1899;-0.3371
0000806037;-3.4572;-7.0820;4.4676;-0.0079;-0.2442;-0.3453
0000806046;-3.5626;-7.2449;4.4173;-0.0217;-0.3219;-0.3785
0000806055;-3.4524;-7.3287;4.4197;-0.0352;-0.3793;-0.3837
0000806064;-2.8946;-7.1180;4.3694;-0.0492;-0.4143;-0.3878
0000806073;-2.4828;-7.1946;4.1755;-0.0486;-0.4141;-0.3945
0000806082;-2.0877;-7.1635;4.3503;-0.0474;-0.3764;-0.3916
0000806091;-1.9417;-7.2161;4.4221;-0.0461;-0.3397;-0.3921
0000806100;-2.0016;-6.9576;4.5729;-0.0342;-0.3207;-0.3865
0000806109;-2.0063;-7.0533;4.5945;-0.0298;-0.2907;-0.3673
0000806118;-2.1069;-6.9839;4.6663;-0.0205;-0.2976;-0.3632
0000806127;-1.9824;-6.9743;4.5586;-0.0188;-0.2983;-0.3561
0000806136;-1.8100;-6.9168;4.4412;-0.0230;-0.3070;-0.3563
0000806145;-1.4365;-6.8139;4.3622;-0.0236;-0.2938;-0.3431
0000806154;-1.1636;-6.9240;4.2090;-0.0157;-0.2887;-0.3339
0000806163;-0.6584;-6.8690;4.1683;-0.0290;-0.2621;-0.3103
0000806172;-0.5483;-6.9097;4.3766;-0.0329;-0.2422;-0.2810
0000806181;-0.6297;-7.2425;4.7573;-0.0173;-0.2341;-0.2518
0000806190;-0.9337;-7.6160;4.9871;-0.0147;-0.1904;-0.2172
0000806199;-1.3551;-7.9847;5.3941;0.0185;-0.1861;-0.2357
0000806208;-2.2051;-8.7317;5.6767;0.0520;-0.1731;-0.2505
0000806217;-2.6049;-8.8657;5.7700;0.0981;-0.1735;-0.2886
0000806226;-3.1173;-9.2967;6.1339;0.1957;-0.2034;-0.3516
0000806235;-3.4309;-9.7396;6.4859;0.2878;-0.2418;-0.4010
0000806244;-3.7230;-10.5728;6.8259;0.4026;-0.2803;-0.4561
0000806253;-3.5291;-11.1450;6.9145;0.4958;-0.2357;-0.4811
0000806262;-3.0694;-11.4682;6.7469;0.6005;-0.1274;-0.5173
0000806271;-2.7294;-11.3461;6.3734;0.6692;0.0432;-0.5192
0000806280;-2.4588;-10.2544;5.7796;0.7205;0.1864;-0.5353
0000806289;-2.7270;-9.1626;5.3989;0.7306;0.2530;-0.5609
0000806298;-2.9592;-8.3175;5.2218;0.6731;0.2573;-0.5461
0000806307;-3.1963;-7.9703;5.0015;0.6073;0.2080;-0.5107
0000806316;-3.5123;-7.7069;5.1571;0.5570;0.1234;-0.4413
0000806325;-3.5386;-7.8362;5.5043;0.5239;0.0298;-0.3441
0000806334;-3.7828;-8.6143;5.9903;0.5208;-0.0697;-0.2607
0000806343;-3.9433;-9.5385;6.4691;0.5810;-0.1644;-0.1966
0000806352;-4.1899;-10.4746;6.5386;0.6728;-0.1848;-0.1427
0000806361;-4.4436;-11.2456;6.4141;0.7604;-0.0971;-0.1274
0000806370;-4.3120;-11.7867;6.0071;0.8007;0.0512;-0.1604
0000806379;-3.9456;-10.5752;5.3415;0.8382;0.1692;-0.1972
0000806388;-3.8810;-8.4755;5.1571;0.8450;0.2021;-0.2486
0000806397;-3.7014;-6.5218;5.0661;0.8047;0.1684;-0.3223
0000806406;-3.6464;-5.6431;5.0350;0.7262;0.1099;-0.3909
0000806415;-3.1220;-5.0302;5.0996;0.6608;0.0402;-0.4379
0000806424;-2.5355;-5.3678;5.0661;0.5782;0.0099;-0.4294
0000806433;-2.1715;-6.3782;4.9728;0.5385;-0.0177;-0.4037
0000806442;-2.1237;-7.1299;5.0159;0.5144;-0.0334;-0.3596
0000806451;-2.1835;-7.9272;4.9105;0.5247;-0.0715;-0.3156
0000806460;-2.4229;-8.3007;4.9009;0.5263;-0.0942;-0.2575
0000806469;-2.4062;-8.1594;4.9321;0.5324;-0.1139;-0.2140
0000806478;-2.2314;-7.8099;5.0135;0.5215;-0.1058;-0.1808
0000806487;-2.0494;-7.1371;5.1619;0.5113;-0.0963;-0.1442
0000806496;-1.9130;-6.7301;5.1547;0.4803;-0.0735;-0.1208
0000806505;-1.9704;-6.7038;5.1811;0.4662;-0.0606;-0.1178
0000806514;-2.2553;-6.7947;5.1092;0.4341;-0.0424;-0.1112
0000806523;-1.9178;-6.7684;5.1643;0.3968;-0.0308;-0.1136
0000806532;-2.0877;-7.0054;5.1020;0.3761;-0.0382;-0.1120
0000806541;-2.0135;-7.0270;4.9847;0.3515;-0.0669;-0.0867
0000806628;-1.7166;-7.4699;5.3056;0.1901;-0.0197;0.0149
0000806637;-1.9058;-7.6782;5.3079;0.1848;-0.0160;0.0207
0000806646;-1.8268;-7.6638;5.3415;0.1808;-0.0192;0.0192
0000806655;-1.9106;-7.7237;5.4181;0.1895;-0.0324;0.0041
0000806664;-1.9010;-7.6662;5.4133;0.1855;-0.0338;0.0068
0000806673;-1.6903;-7.5657;5.4061;0.1829;-0.0320;0.0021
0000806682;-1.6592;-7.3957;5.3606;0.1872;-0.0277;-0.0049
0000806691;-1.5395;-7.4053;5.2098;0.1860;-0.0153;-0.0089
0000806700;-1.6424;-7.2425;5.1667;0.1885;-0.0085;-0.0013
0000806709;-1.6616;-7.2808;5.2289;0.1860;0.0017;0.0073
0000806718;-1.7095;-7.1922;5.2984;0.1947;0.0048;0.0025
0000806727;-1.6712;-7.1635;5.3199;0.1865;0.0177;0.0218
0000806736;-1.9393;-7.2089;5.2720;0.1888;0.0100;0.0293
0000806745;-1.9752;-7.3694;5.1787;0.1860;0.0087;0.0474
0000806754;-2.2170;-7.3837;5.2313;0.1923;-0.0087;0.0626
0000806763;-2.1907;-7.2449;5.2457;0.1865;-0.0422;0.0750
0000806772;-2.1356;-7.0581;5.4277;0.1791;-0.0771;0.0809
0000806781;-2.2146;-6.9528;5.5019;0.1579;-0.1127;0.0883
0000806790;-1.9728;-6.8354;5.7221;0.1236;-0.1284;0.0990
0000806799;-2.0255;-6.8546;5.7197;0.0953;-0.1374;0.1119
0000806808;-1.8268;-6.8426;5.7772;0.0783;-0.1545;0.1320
0000806817;-1.8124;-6.8857;5.8514;0.0497;-0.1745;0.1579
0000806826;-1.6065;-6.8498;5.7772;0.0430;-0.1877;0.1755
0000806835;-1.4102;-6.8594;5.7892;0.0258;-0.1903;0.1865
0000806844;-1.4222;-6.8594;5.9041;0.0195;-0.1968;0.1856
0000806853;-1.3503;-6.9049;5.8921;0.0169;-0.1871;0.1724
0000806862;-1.4341;-6.8402;5.7844;0.0218;-0.1743;0.1539
0000806871;-1.6281;-7.1228;5.9017;0.0193;-0.1613;0.1539
0000806880;-1.5610;-7.0581;5.7676;0.0256;-0.1535;0.1472
0000806889;-1.5850;-7.0797;5.7676;0.0357;-0.1460;0.1426
0000806898;-1.5682;-7.0366;5.7844;0.0510;-0.1351;0.1290
0000806907;-1.4844;-7.0868;5.8275;0.0569;-0.1176;0.1082
0000806916;-1.6137;-7.0246;5.8610;0.0702;-0.1001;0.0745
0000806925;-1.5323;-6.9216;5.7317;0.0691;-0.0839;0.0582
0000806934;-1.5203;-6.9192;5.6144;0.0823;-0.0811;0.0472
0000806943;-1.8028;-7.2018;5.6671;0.0937;-0.0751;0.0290
0000806952;-1.7837;-7.1228;5.5857;0.0902;-0.0702;0.0280
0000806961;-1.8603;-7.1108;5.4779;0.1055;-0.0678;0.0189
0000806970;-1.9154;-7.0006;5.5091;0.1270;-0.0771;0.0147
0000806979;-2.0614;-7.0509;5.4923;0.1370;-0.0882;0.0084
0000806988;-2.2984;-6.9456;5.5019;0.1480;-0.1005;-0.0107
0000806997;-2.2673;-7.0102;5.3678;0.1604;-0.0978;-0.0242
0000807006;-1.8842;-6.7804;5.2265;0.1765;-0.1073;-0.0424
0000807015;-2.0039;-6.9887;5.2026;0.1958;-0.0951;-0.0570
0000807024;-1.7789;-7.0557;5.1427;0.2149;-0.0842;-0.0590
0000807033;-1.9704;-7.1778;4.9608;0.2477;-0.0874;-0.0560
0000807042;-1.9321;-7.0653;4.9728;0.2864;-0.1018;-0.0526
0000807051;-2.0375;-7.0150;4.8698;0.2948;-0.1200;-0.0426
0000807060;-2.1979;-6.8546;4.9560;0.3159;-0.1476;-0.0422
0000807069;-2.2242;-6.7133;5.0470;0.3207;-0.1616;-0.0381
0000807078;-2.1835;-6.5170;4.9775;0.3240;-0.1792;-0.0349
0000807087;-2.1572;-6.2920;4.9392;0.2963;-0.1755;-0.0195
0000807096;-1.9704;-6.1268;4.9249;0.2702;-0.1824;-0.0117
0000807105;-2.1476;-6.0071;4.9608;0.2268;-0.1715;0.0244
0000807114;-2.2553;-5.9400;5.1571;0.1797;-0.1785;0.0521
0000807123;-2.5067;-5.9185;5.1930;0.1224;-0.1800;0.0970
0000807132;-2.3248;-5.9352;5.1978;0.0697;-0.1904;0.1318
0000807141;-2.1332;-5.9687;5.1954;0.0075;-0.1792;0.1621
0000807150;-1.9417;-6.1746;5.2050;-0.0309;-0.1611;0.1864
0000807159;-1.6544;-6.3159;5.0757;-0.0707;-0.1199;0.2196
0000807168;-1.6065;-6.7660;4.9632;-0.0946;-0.0927;0.2401
0000807177;-1.7190;-6.8067;5.1044;-0.1063;-0.0903;0.2610
0000807186;-1.8794;-6.9145;5.1930;-0.1284;-0.0865;0.2803
0000807195;-1.9249;-7.0078;5.3056;-0.1303;-0.1087;0.2785
0000807204;-2.0638;-7.1970;5.1715;-0.1406;-0.1123;0.2960
0000807213;-2.1524;-7.3023;5.1882;-0.1283;-0.1288;0.3022
0000807222;-1.8818;-7.3861;5.2816;-0.1075;-0.1390;0.3108
0000807231;-1.7837;-7.6998;5.2984;-0.0902;-0.1295;0.3140
0000807240;-1.3815;-7.6998;5.2481;-0.0528;-0.1234;0.3084
0000807249;-1.3527;-7.9631;5.1308;-0.0084;-0.0982;0.2999
0000807258;-0.9337;-8.0996;5.0159;0.0509;-0.0742;0.2840
0000807267;-0.9816;-8.3869;5.2146;0.1202;-0.0488;0.2547
0000807411;-1.9632;-7.3143;5.8371;-0.4120;-0.0312;-0.1964
0000807420;-1.8890;-7.9224;5.7557;-0.3964;-0.0088;-0.2177
0000807429;-1.7382;-8.3079;5.4875;-0.3548;-0.0015;-0.2122
0000807438;-1.7621;-8.5832;5.2577;-0.2982;0.0064;-0.1868
0000807447;-1.8699;-8.8322;5.0996;-0.2376;-0.0290;-0.1711
0000807456;-1.9968;-8.8681;5.1116;-0.1743;-0.0831;-0.1507
0000807465;-2.0470;-8.6646;5.1763;-0.0930;-0.1440;-0.1344
0000807474;-2.0303;-8.2001;5.3223;-0.0420;-0.1729;-0.1280
0000807483;-1.8340;-7.4795;5.5019;-0.0063;-0.2028;-0.1450
0000807492;-1.7023;-6.6966;5.7150;-0.0028;-0.1974;-0.1640
0000807501;-1.6951;-6.0837;5.8299;-0.0104;-0.2072;-0.1781
0000807510;-1.7909;-5.5138;5.9376;-0.0524;-0.2110;-0.1887
0000807519;-1.8411;-5.1547;5.9640;-0.1006;-0.2225;-0.2005
0000807528;-1.6999;-5.3678;5.8778;-0.1601;-0.2101;-0.1996
0000807537;-1.4988;-5.8730;5.8083;-0.1985;-0.2017;-0.2018
0000807546;-1.2617;-6.3997;5.8706;-0.2234;-0.1720;-0.1828
0000807555;-1.2402;-6.9935;5.8395;-0.2152;-0.1571;-0.1756
0000807564;-1.0008;-7.2856;5.9807;-0.1997;-0.1259;-0.1675
0000807573;-0.8787;-7.5872;6.0430;-0.1771;-0.0987;-0.1692
0000807582;-0.8140;-7.6686;6.0956;-0.1460;-0.0718;-0.1712
0000807591;-0.8499;-7.3430;6.0669;-0.1282;-0.0401;-0.1636
0000807600;-0.6225;-6.7995;6.1794;-0.1142;-0.0230;-0.1768
0000807609;-0.7374;-6.3470;6.2106;-0.1212;0.0113;-0.1925
0000807618;-0.8619;-6.1148;6.1411;-0.1451;0.0297;-0.2094
0000807627;-1.1372;-6.1148;6.2010;-0.1660;0.0176;-0.2168
0000807636;-1.6257;-6.1866;6.2010;-0.1763;-0.0197;-0.2258
0000807645;-1.8220;-6.3829;6.0693;-0.1915;-0.0554;-0.2281
0000807654;-1.5514;-6.2058;6.0286;-0.1961;-0.0763;-0.2435
0000807663;-1.4533;-6.4332;6.1675;-0.2000;-0.0865;-0.2642
0000807672;-1.5323;-6.8259;6.0262;-0.1908;-0.0889;-0.3012
0000807681;-1.4413;-6.9408;5.8251;-0.1856;-0.0867;-0.3218
0000807690;-1.4246;-7.0940;5.8299;-0.1651;-0.1062;-0.3520
0000807699;-1.4533;-7.0940;5.8490;-0.1624;-0.1158;-0.3761
0000807708;-1.5155;-7.1156;5.8442;-0.1536;-0.1243;-0.4054
0000807717;-1.2881;-6.7804;5.8490;-0.1559;-0.1406;-0.4146
0000807726;-1.5586;-6.6152;5.7772;-0.1543;-0.1748;-0.4197
0000807735;-1.6951;-6.2393;5.8442;-0.1649;-0.1982;-0.4250
0000807744;-1.5538;-5.9424;5.9616;-0.1679;-0.2012;-0.4462
0000807753;-1.2091;-5.9711;5.9735;-0.1981;-0.1696;-0.4684
0000807762;-0.9864;-6.1244;6.0142;-0.2261;-0.1191;-0.4702
0000807771;-0.7159;-6.3446;6.0071;-0.2529;-0.0807;-0.4618
0000807780;-0.6752;-6.4380;6.1076;-0.2675;-0.0520;-0.4511
0000807789;-0.7757;-6.5745;5.9855;-0.2830;-0.0100;-0.4101
0000807798;-1.1732;-6.6248;5.8035;-0.2968;-0.0125;-0.3673
0000807807;-1.6927;-6.5649;6.0118;-0.3248;-0.0230;-0.3226
0000807816;-2.2793;-6.5027;6.0190;-0.3489;-0.0320;-0.2923
0000807825;-2.4948;-6.2968;5.7006;-0.3880;-0.0594;-0.2601
0000807834;-2.6217;-5.8395;5.6216;-0.4258;-0.1138;-0.2168
0000807843;-2.8299;-5.5881;5.5881;-0.4726;-0.1831;-0.2017
0000807852;-2.5019;-5.4731;5.7916;-0.5253;-0.2041;-0.1859
0000807861;-1.6951;-5.5282;5.7245;-0.5786;-0.1977;-0.1719
0000807870;-1.3360;-5.9711;5.7676;-0.6201;-0.1743;-0.1559
0000807879;-0.8021;-6.4883;5.7820;-0.6301;-0.1470;-0.1222
0000807888;-0.5100;-6.9959;5.8634;-0.6447;-0.0929;-0.1027
0000807897;-0.1580;-7.3598;5.9065;-0.6474;-0.0208;-0.0926
0000807906;-0.0263;-7.6591;5.9328;-0.6355;0.0580;-0.1049
0000807915;-0.0215;-7.6950;5.8610;-0.6167;0.1608;-0.1088
0000807924;-0.1772;-7.6543;5.7940;-0.5721;0.2233;-0.1331
0000807933;-0.8978;-7.7883;5.6120;-0.5252;0.2774;-0.1383
0000807942;-1.5993;-7.5298;5.7174;-0.4623;0.3156;-0.1460
0000807951;-2.3774;-7.6854;5.7126;-0.4110;0.3046;-0.1537
0000807960;-2.9640;-7.8266;5.7509;-0.3609;0.2605;-0.1427
0000807969;-2.9999;-8.3270;5.7221;-0.2983;0.1949;-0.1148
0000807978;-2.8706;-8.5258;5.8251;-0.2328;0.1504;-0.0581
0000807987;-2.4277;-8.6933;5.7389;-0.1777;0.1496;0.0145
0000807996;-1.9537;-8.4922;5.4061;-0.1248;0.1471;0.0691
0000808005;-1.8316;-8.3510;5.1834;-0.0901;0.1581;0.1228
0000808014;-1.4605;-8.2241;5.0949;-0.0707;0.1693;0.1677
0000808023;-1.5658;-7.8913;4.8674;-0.0671;0.1824;0.1992
0000808032;-1.2953;-7.6734;4.7333;-0.0806;0.2088;0.2398
0000808120;-1.9010;-8.9926;4.8052;-0.2657;0.2707;0.2018
0000808129;-1.9896;-8.9208;4.7285;-0.2638;0.2637;0.2052
0000808138;-2.0734;-9.2296;4.7621;-0.2511;0.2614;0.1978
0000808147;-2.1428;-9.3278;4.6926;-0.2489;0.2867;0.2064
0000808156;-2.0949;-9.4260;4.6543;-0.2246;0.2886;0.2037
0000808165;-2.1213;-9.4739;4.5370;-0.2037;0.2830;0.1973
0000808174;-2.1572;-9.6798;4.6855;-0.1865;0.2856;0.1935
0000808183;-1.9848;-9.5768;4.7357;-0.1500;0.2781;0.1791
0000808192;-1.6712;-9.4092;4.6663;-0.1346;0.2954;0.1604
0000808201;-1.7430;-9.3039;4.8243;-0.1154;0.3150;0.1310
0000808210;-1.8148;-9.0932;4.7740;-0.1019;0.3287;0.0991
0000808219;-2.0231;-9.0357;4.8100;-0.1059;0.3456;0.0697
0000808228;-2.1213;-8.9040;4.7812;-0.1034;0.3557;0.0410
0000808237;-2.3727;-8.7676;4.8004;-0.1096;0.3640;0.0205
0000808246;-2.7509;-8.8202;4.8363;-0.1023;0.3473;0.0075
0000808255;-3.0071;-8.9280;4.6974;-0.1070;0.3380;0.0188
0000808264;-2.7988;-8.8609;4.7190;-0.0978;0.3114;0.0236
0000808273;-2.4493;-8.7891;4.8650;-0.0977;0.3091;0.0360
0000808282;-2.3367;-8.8394;4.7621;-0.0871;0.2946;0.0437
0000808291;-2.3679;-8.7987;4.7142;-0.0835;0.2960;0.0596
0000808300;-2.2170;-8.6838;4.8100;-0.0891;0.2988;0.0721
0000808309;-2.1380;-8.6431;4.7405;-0.1003;0.3120;0.0786
0000808318;-2.1691;-8.4683;4.7214;-0.1074;0.3269;0.0931
0000808327;-2.2817;-8.4731;4.6232;-0.1140;0.3333;0.1094
0000808336;-2.4325;-8.6072;4.5394;-0.1190;0.3281;0.1207
0000808345;-2.1835;-8.5952;4.5681;-0.1230;0.3226;0.1384
0000808354;-2.3056;-8.6335;4.5610;-0.1234;0.3142;0.1527
0000808363;-2.2984;-8.6000;4.6017;-0.1211;0.2910;0.1660
0000808372;-2.2122;-8.4420;4.6017;-0.1268;0.2819;0.1823
0000808381;-2.0279;-8.3222;4.6424;-0.1318;0.2706;0.1860
0000808390;-2.0423;-8.1403;4.6471;-0.1323;0.2767;0.1724
0000808399;-2.0830;-8.0014;4.5322;-0.1476;0.2932;0.1633
0000808408;-1.8220;-7.9080;4.3527;-0.1472;0.2986;0.1490
0000808417;-2.2051;-8.1044;4.2641;-0.1406;0.2959;0.1344
0000808426;-2.2218;-8.1068;4.1994;-0.1435;0.2839;0.1214
0000808435;-2.1907;-8.0613;4.2569;-0.1450;0.2686;0.1038
0000808444;-2.3679;-7.9751;4.2689;-0.1478;0.2559;0.0822
0000808453;-2.7007;-8.0254;4.3048;-0.1479;0.2527;0.0556
0000808462;-2.6839;-7.9895;4.2832;-0.1447;0.2559;0.0320
0000808471;-2.8299;-7.9487;4.2521;-0.1410;0.2527;0.0033
0000808480;-3.1053;-8.2337;4.1731;-0.1474;0.2406;-0.0133
0000808489;-2.9640;-8.1594;4.1994;-0.1398;0.2144;-0.0262
0000808498;-3.0430;-8.3749;4.3383;-0.1386;0.2110;-0.0143
0000808507;-2.9042;-8.3989;4.2784;-0.1279;0.2166;-0.0015
0000808516;-2.7988;-8.3797;4.2090;-0.1095;0.2313;0.0201
0000808525;-2.9305;-8.4108;4.1420;-0.0869;0.2265;0.0445
0000808534;-3.0478;-8.4013;4.0821;-0.0634;0.2173;0.0690
0000808543;-2.9497;-8.3510;4.1755;-0.0317;0.1966;0.0642
0000808552;-2.7102;-8.2241;4.2713;-0.0115;0.1817;0.0626
0000808561;-2.5905;-8.1499;4.1300;0.0273;0.1577;0.0425
0000808570;-2.6121;-8.2025;4.1492;0.0691;0.1475;0.0289
0000808579;-2.4038;-8.3797;4.1515;0.0867;0.1352;0.0228
0000808588;-2.4636;-8.4276;4.1013;0.1054;0.1057;-0.0031
0000808597;-2.4852;-8.3558;4.0797;0.1131;0.0973;0.0004
0000808606;-2.5163;-8.2241;4.1563;0.1111;0.0906;0.0048
0000808615;-2.2769;-8.1163;4.0773;0.1135;0.0823;0.0017
0000808624;-2.1931;-8.0661;4.0749;0.1034;0.0939;0.0155
0000808633;-2.1763;-8.1355;3.9097;0.0947;0.0902;0.0195
0000808642;-2.2745;-8.1403;3.8786;0.0821;0.0907;0.0352
0000808651;-2.3104;-8.2384;3.9552;0.0810;0.0899;0.0262
0000808660;-2.5139;-8.2528;4.0701;0.0693;0.1081;0.0244
0000808669;-2.6552;-8.1211;3.9361;0.0574;0.1115;0.0172
0000808678;-2.9544;-8.1403;3.9911;0.0492;0.0967;0.0160
0000808687;-2.9712;-8.0780;3.9648;0.0321;0.0845;0.0230
0000808696;-2.7342;-8.0541;3.9720;0.0057;0.0746;0.0376
0000808705;-2.4301;-7.6950;3.8954;-0.0084;0.0715;0.0529
0000808714;-2.2003;-7.8482;3.9025;-0.0476;0.0926;0.0811
0000808723;-1.8723;-7.5274;3.6607;-0.0731;0.0978;0.1066
0000808732;-1.8938;-7.4531;3.6152;-0.1103;0.1291;0.1444
0000808741;-1.9082;-7.4795;3.5123;-0.1412;0.1412;0.1486
0000808750;-2.0997;-7.5322;3.7014;-0.1593;0.1688;0.1343
0000808759;-2.5187;-7.7668;3.7014;-0.1943;0.1932;0.1215
0000808844;-3.0382;-7.1539;3.3040;-0.3741;0.0047;0.1171
0000808853;-3.3016;-7.0605;3.2705;-0.4066;-0.0297;0.1010
0000808862;-2.9185;-6.9288;3.2202;-0.4535;-0.0402;0.0919
0000808871;-2.9736;-7.0270;3.1603;-0.5111;-0.0469;0.0807
0000808880;-2.9497;-7.1467;3.0191;-0.5628;-0.0394;0.0947
0000808889;-2.8084;-7.2281;3.0167;-0.5966;-0.0352;0.1027
0000808898;-2.8204;-7.2903;2.9066;-0.6078;-0.0384;0.1143
0000808907;-2.9736;-7.4675;2.9784;-0.5954;-0.0382;0.1144
0000808916;-3.2250;-7.8266;3.0406;-0.5714;-0.0458;0.1103
0000808925;-3.3662;-7.9487;2.9377;-0.5480;-0.0621;0.0943
0000808934;-3.3854;-8.4084;2.9425;-0.5164;-0.0747;0.0494
0000808943;-3.4117;-8.6503;3.0526;-0.4812;-0.0682;0.0065
0000808952;-3.1651;-8.5617;2.9760;-0.4285;-0.0582;-0.0195
0000808961;-3.0406;-8.4324;2.9568;-0.3717;-0.0402;-0.0133
0000808970;-2.9113;-8.0014;2.9090;-0.3239;-0.0338;-0.0139
0000808979;-2.7892;-7.9535;3.0311;-0.2783;-0.0117;-0.0059
0000808988;-2.7821;-8.0397;3.0215;-0.2426;0.0089;-0.0041
0000808997;-2.5857;-7.9607;3.1436;-0.2114;0.0132;-0.0095
0000809006;-2.2242;-7.9104;3.0239;-0.1891;0.0175;-0.0278
0000809015;-1.7286;-7.7141;3.0742;-0.1660;0.0301;-0.0618
0000809024;-1.2210;-7.5609;2.9856;-0.1649;0.0711;-0.0751
0000809033;-0.9744;-7.3646;2.8922;-0.1500;0.1023;-0.0749
0000809042;-0.5219;-6.8187;2.7964;-0.1411;0.1805;-0.0430
0000809051;-0.4094;-6.4476;2.8132;-0.1387;0.2689;-0.0119
0000809060;-0.4573;-6.3087;2.7892;-0.1436;0.3488;0.0285
0000809069;-0.6776;-5.9328;2.8276;-0.1487;0.4093;0.0805
0000809078;-1.0918;-5.6910;2.8299;-0.1589;0.4454;0.1374
0000809087;-1.3144;-5.2002;2.7869;-0.2010;0.4668;0.1629
0000809096;-1.9297;-5.0757;2.5809;-0.2902;0.5068;0.1986
0000809105;-2.2362;-4.5514;2.7270;-0.3633;0.4978;0.2054
0000809114;-2.8204;-4.3814;3.5195;-0.4237;0.4263;0.2076
0000809123;-3.4046;-4.4053;3.9385;-0.5147;0.3046;0.1737
0000809132;-3.4955;-5.2170;4.2234;-0.5905;0.1394;0.1124
0000809141;-3.4357;-6.9121;4.4125;-0.6507;-0.0215;0.1002
0000809150;-3.2705;-8.3797;4.6783;-0.6819;-0.1720;0.1302
0000809159;-2.6073;-9.3302;4.8123;-0.7061;-0.2409;0.2220
0000809168;-1.6376;-9.9647;4.8483;-0.7425;-0.1865;0.3540
0000809177;-0.7805;-9.7300;5.2337;-0.7306;-0.0456;0.5123
0000809186;-0.3160;-8.9136;5.3846;-0.6903;0.1462;0.6246
0000809195;-0.7207;-8.6574;5.2170;-0.6456;0.3135;0.6640
0000809204;-1.6281;-8.8202;5.2816;-0.6396;0.3940;0.6418
0000809213;-2.7821;-9.2273;5.2936;-0.6278;0.3673;0.6025
0000809222;-3.9480;-9.8833;5.1715;-0.5946;0.3082;0.5766
0000809231;-4.9201;-10.2711;4.9704;-0.5472;0.2442;0.5373
0000809240;-5.4875;-10.5321;4.6639;-0.4779;0.1612;0.4932
0000809249;-5.8897;-10.7332;4.0031;-0.3942;0.0967;0.4269
0000809258;-5.9424;-10.7284;3.3399;-0.3080;0.0425;0.3495
0000809267;-5.8083;-10.8936;2.8467;-0.2334;-0.0534;0.2614
0000809276;-5.3151;-10.3190;2.6887;-0.1657;-0.1438;0.2105
0000809285;-4.6543;-9.7444;2.8683;-0.0863;-0.1992;0.1871
0000809294;-4.1946;-8.9783;3.0909;-0.0099;-0.2038;0.1568
0000809303;-4.1084;-8.6574;3.2920;0.0328;-0.1434;0.1368
0000809312;-4.1492;-8.4707;3.3160;0.0945;-0.0886;0.0995
0000809321;-4.6280;-8.7939;2.8587;0.1419;-0.0380;0.0798
0000809330;-4.7166;-8.8825;2.2841;0.1807;-0.0412;0.0721
0000809339;-4.9416;-9.0956;2.0135;0.1965;-0.0923;0.0634
0000809348;-4.8004;-8.8322;2.1739;0.1865;-0.1757;0.0737
0000809357;-4.4436;-8.3653;2.2075;0.1852;-0.2344;0.0568
0000809366;-3.9648;-7.6447;2.2601;0.1732;-0.2141;0.0280
0000809375;-3.7493;-7.0725;2.3224;0.1555;-0.1757;-0.0269
0000809384;-3.6440;-6.7325;2.4732;0.1536;-0.1456;-0.1091
0000809393;-3.5482;-6.7828;2.4948;0.1311;-0.1258;-0.1958
0000809402;-3.4812;-6.8307;2.5115;0.1074;-0.1764;-0.3008
0000809411;-3.3902;-7.0916;2.4684;0.0593;-0.2578;-0.3782
0000809420;-3.2417;-7.4675;2.7078;0.0087;-0.3138;-0.3934
0000809429;-3.2274;-7.4531;2.8276;-0.0195;-0.3712;-0.3829
0000809438;-2.7988;-7.5585;2.9664;-0.0313;-0.3673;-0.3348
0000809447;-2.5522;-7.6543;3.3040;-0.0333;-0.3340;-0.2715
0000809456;-2.8659;-8.0613;3.5865;-0.0168;-0.3487;-0.2685
0000809465;-3.1603;-8.6622;4.2976;0.0068;-0.3665;-0.2891
0000809550;-3.6248;-4.9464;2.7533;-0.0742;-0.2329;0.0666
0000809559;-3.6847;-4.7884;3.0957;-0.1752;-0.2281;0.0975
0000809568;-3.4836;-4.5921;3.1364;-0.2781;-0.1756;0.0982
0000809577;-3.8690;-5.5737;2.9257;-0.3698;-0.1291;0.0695
0000809586;-4.1515;-6.3877;2.6073;-0.4120;-0.1107;0.0618
0000809595;-4.0917;-7.4124;2.4684;-0.4165;-0.1510;0.0540
0000809604;-4.3191;-8.2384;2.2936;-0.3949;-0.2106;0.0320
0000809613;-4.3431;-8.8705;2.4708;-0.3593;-0.2910;-0.0270
0000809622;-4.1659;-9.3565;2.7414;-0.3063;-0.3508;-0.1061
0000809631;-3.9696;-9.7899;2.9568;-0.2461;-0.3776;-0.1621
0000809640;-3.6009;-9.7540;3.3160;-0.1825;-0.3696;-0.1972
0000809649;-3.1388;-9.1051;3.2801;-0.1244;-0.3477;-0.1994
0000809658;-2.9904;-8.7269;3.3255;-0.0791;-0.3066;-0.1879
0000809667;-2.8515;-8.1977;3.2872;-0.0557;-0.2699;-0.1677
0000809676;-2.6983;-7.6758;3.1268;-0.0558;-0.2393;-0.1431
0000809685;-2.7845;-7.3909;3.0670;-0.0625;-0.2370;-0.1226
0000809694;-2.7078;-7.1012;3.0574;-0.0861;-0.2346;-0.0871
0000809703;-2.9760;-7.1826;3.3064;-0.0930;-0.2403;-0.0711
0000809712;-3.0933;-7.2832;3.4165;-0.1067;-0.2178;-0.0473
0000809721;-3.5171;-7.8123;3.5434;-0.1124;-0.1949;-0.0224
0000809730;-3.6536;-8.0062;3.4069;-0.1058;-0.1949;-0.0132
0000809739;-3.7565;-8.3175;3.3303;-0.0977;-0.2085;-0.0037
0000809748;-3.6966;-8.4467;3.2944;-0.0783;-0.2353;0.0145
0000809757;-3.4812;-8.2289;3.1915;-0.0530;-0.2650;0.0249
0000809766;-3.2346;-8.3199;3.1963;-0.0297;-0.2838;0.0289
0000809775;-2.9640;-8.3007;3.2058;-0.0220;-0.2915;0.0293
0000809784;-2.4900;-7.8506;3.2130;-0.0016;-0.2844;0.0025
0000809793;-2.6001;-8.0302;3.3495;-0.0004;-0.2570;-0.0357
0000809802;-2.4517;-8.0182;3.6655;0.0217;-0.2297;-0.1007
0000809811;-2.7677;-8.4539;3.7541;0.0694;-0.2016;-0.1639
0000809820;-2.8587;-8.7819;3.8403;0.1200;-0.1771;-0.2166
0000809829;-3.5099;-9.5912;3.7876;0.1827;-0.1888;-0.2438
0000809838;-3.5554;-9.9671;3.6871;0.2246;-0.2045;-0.2276
0000809847;-3.6392;-10.1514;3.7445;0.2790;-0.2385;-0.1816
0000809856;-3.1388;-9.5433;3.9121;0.3219;-0.2665;-0.1100
0000809865;-2.8922;-8.9998;4.0893;0.3392;-0.2864;-0.0605
0000809874;-2.2434;-8.0349;4.1252;0.3269;-0.2737;-0.0248
0000809883;-2.1237;-7.8003;4.2760;0.3000;-0.2557;-0.0164
0000809892;-1.8364;-7.5776;4.2210;0.2725;-0.2057;-0.0083
0000809901;-1.8148;-7.8482;4.2066;0.2482;-0.1404;-0.0079
0000809910;-1.9800;-8.2528;4.1755;0.2316;-0.0739;0.0077
0000809919;-2.0446;-8.5593;3.9935;0.2423;-0.0289;0.0161
0000809928;-2.2458;-8.9543;4.0558;0.2627;0.0041;0.0268
0000809937;-2.5211;-9.0908;4.0318;0.2769;0.0236;0.0216
0000809946;-2.5426;-9.0668;4.1420;0.2946;0.0000;-0.0064
0000809955;-2.6887;-9.0597;4.2234;0.2956;-0.0192;-0.0244
0000809964;-2.6073;-8.7604;4.3239;0.2980;-0.0560;-0.0410
0000809973;-2.3990;-8.5353;4.3144;0.2931;-0.0834;-0.0324
0000809982;-2.3918;-8.2528;4.4149;0.2683;-0.1018;-0.0087
0000809991;-2.4038;-8.0493;4.4819;0.2322;-0.1308;0.0366
0000810000;-2.4181;-8.0661;4.6950;0.1835;-0.1652;0.0919
0000810009;-2.3583;-7.7931;4.6807;0.1247;-0.2077;0.1668
0000810018;-2.1524;-7.6830;4.6208;0.0814;-0.2643;0.2342
0000810027;-2.0231;-7.8865;4.6663;0.0468;-0.3359;0.2876
0000810036;-1.7190;-8.2337;4.5969;0.0336;-0.3853;0.3255
0000810045;-1.7789;-8.4132;4.5729;0.0420;-0.4057;0.3359
0000810054;-1.8052;-8.5401;4.3646;0.0582;-0.3805;0.3301
0000810063;-1.9680;-8.6862;4.2856;0.0949;-0.3569;0.2884
0000810072;-2.3583;-8.9807;4.2425;0.1427;-0.3281;0.2324
0000810081;-2.6935;-9.1004;4.1515;0.2009;-0.3183;0.1625
0000810090;-2.7581;-9.0692;3.9672;0.2551;-0.3375;0.0861
0000810099;-2.7438;-9.1554;3.9361;0.3008;-0.3513;0.0261
0000810108;-2.9521;-8.9208;3.8355;0.3535;-0.3790;-0.0185
0000810117;-2.5618;-8.3749;3.8978;0.3806;-0.3921;-0.0340
0000810126;-2.4493;-8.0038;3.9911;0.4102;-0.4120;-0.0416
0000810135;-2.6647;-7.7668;3.9840;0.4132;-0.4151;-0.0180
0000810144;-2.4373;-7.3981;3.8523;0.4197;-0.4222;-0.0043
0000810153;-2.5331;-7.2616;4.0247;0.4044;-0.4124;0.0161
0000810162;-2.6695;-7.0844;3.9600;0.4017;-0.4350;0.0163
0000810171;-2.6647;-7.2616;4.0247;0.3917;-0.4555;0.0216
0000810180;-2.6193;-7.3885;4.1659;0.3861;-0.4650;0.0456
0000810265;-2.9066;-7.1036;3.4979;0.5857;-0.4728;0.1844
0000810274;-2.7102;-7.0940;3.6416;0.6047;-0.5233;0.1612
0000810283;-2.4349;-7.3071;3.6440;0.6415;-0.5319;0.1568
0000810292;-1.9656;-7.5369;3.6176;0.6964;-0.5063;0.1572
0000810301;-1.7023;-7.7357;3.6296;0.7714;-0.4461;0.1705
0000810310;-1.1660;-7.8147;3.4261;0.8620;-0.3728;0.1863
0000810319;-1.2019;-7.9368;3.3950;0.9304;-0.2766;0.2045
0000810328;-1.1229;-7.7716;3.5362;1.0066;-0.1969;0.2221
0000810337;-1.4461;-7.5465;3.7900;1.0846;-0.1458;0.2282
0000810346;-1.7430;-6.9839;3.9145;1.1309;-0.1130;0.2050
0000810355;-1.7454;-6.5984;3.8547;1.1399;-0.0783;0.1544
0000810364;-1.9872;-6.4260;3.9409;1.1358;-0.0719;0.0991
0000810373;-1.8914;-6.3327;3.9169;1.1355;-0.0861;0.0610
0000810382;-1.8771;-6.2752;4.0534;1.1502;-0.1022;0.0412
0000810391;-1.8890;-6.4524;4.0773;1.1411;-0.1087;0.0422
0000810400;-1.9369;-6.5194;4.2521;1.1474;-0.0874;0.0486
0000810409;-1.8268;-6.6343;4.1827;1.1362;-0.0397;0.0669
0000810418;-1.6616;-6.3566;4.4580;1.1235;-0.0172;0.0770
0000810427;-1.9944;-6.3829;4.7764;1.0856;-0.0069;0.1006
0000810436;-1.8100;-6.0501;5.0398;1.0457;-0.0119;0.1152
0000810445;-1.9106;-5.9280;4.9728;0.9940;0.0003;0.1171
0000810454;-1.5227;-5.5378;5.3989;0.9322;0.0073;0.0982
0000810463;-1.6185;-5.2457;6.8450;0.8170;-0.0246;0.0530
0000810472;-2.1332;-4.6160;8.9735;0.5505;-0.0773;-0.0181
0000810481;-2.4612;-2.7366;8.8370;0.2773;0.0385;-0.1126
0000810490;-2.0470;-1.0223;6.6224;0.1456;0.3235;-0.1637
0000810499;-2.0231;-1.6496;4.6855;0.1151;0.4724;-0.1176
0000810508;-2.0303;-3.5051;4.0031;0.1406;0.4744;-0.0348
0000810517;-2.5307;-5.4133;3.4668;0.2173;0.3994;-0.0081
0000810526;-2.6145;-7.0198;3.2896;0.3016;0.3252;-0.0131
0000810535;-2.4828;-8.6215;3.2609;0.3813;0.2617;-0.0685
0000810544;-2.0039;-9.9000;3.1963;0.4823;0.2332;-0.1412
0000810553;-1.5514;-10.9032;2.9784;0.6238;0.2637;-0.1986
0000810562;-1.0894;-10.4890;2.9568;0.7675;0.3493;-0.2407
0000810571;-1.4341;-8.8873;3.5626;0.8797;0.4599;-0.2314
0000810580;-2.0806;-7.0797;4.1994;0.8976;0.5777;-0.1951
0000810589;-2.5977;-5.2361;4.5562;0.8493;0.6634;-0.1492
0000810598;-3.2968;-3.3016;5.0613;0.7372;0.6967;-0.0757
0000810607;-3.9576;-1.6999;5.0925;0.5842;0.6587;-0.0216
0000810616;-4.1827;-0.8164;5.2409;0.3874;0.5817;0.0272
0000810625;-4.0534;-0.8595;4.9680;0.2057;0.4668;0.0337
0000810634;-3.5865;-2.0327;4.8914;0.0510;0.3537;0.0284
0000810643;-2.4181;-3.4333;4.5203;-0.0613;0.2559;-0.0029
0000810652;-1.2641;-4.8147;4.3646;-0.1223;0.2458;-0.0116
0000810661;-0.0263;-5.8299;4.1970;-0.1090;0.3134;-0.0152
0000810670;0.7422;-6.5864;3.8906;-0.0477;0.4461;-0.0284
0000810679;1.2857;-6.9408;3.3734;0.0465;0.5903;-0.0353
0000810688;1.2043;-6.8402;3.1651;0.1347;0.6817;-0.0593
0000810697;0.4477;-6.7325;3.1723;0.1784;0.7373;-0.0775
0000810706;-0.7207;-6.1770;3.5769;0.1779;0.7570;-0.0973
0000810715;-1.9369;-5.9687;3.9097;0.1518;0.7356;-0.0899
0000810724;-3.0382;-5.3056;4.4053;0.1114;0.6315;-0.0839
0000810733;-3.7086;-4.8507;4.7309;0.0140;0.5305;-0.0741
0000810742;-3.9816;-4.0989;4.7453;-0.0648;0.4271;-0.0951
0000810751;-3.5985;-3.8666;4.6017;-0.1254;0.3409;-0.1322
0000810760;-3.2178;-4.2689;4.2689;-0.1557;0.2774;-0.1653
0000810769;-2.4445;-4.8219;3.9816;-0.1479;0.2386;-0.1827
0000810778;-2.0159;-5.5905;4.1659;-0.1236;0.2358;-0.2026
0000810787;-2.2242;-6.4667;4.2186;-0.0758;0.2406;-0.2352
0000810796;-2.6480;-6.7062;4.2713;-0.0124;0.2477;-0.2662
0000810805;-3.2729;-6.8690;4.2832;0.0761;0.2013;-0.3034
0000810814;-3.9792;-6.5314;4.2210;0.1587;0.1018;-0.3485
0000810823;-4.3096;-6.1268;4.1061;0.2334;-0.0285;-0.3884
0000810832;-4.4532;-5.7006;4.1707;0.2730;-0.1378;-0.4258
0000810841;-4.2090;-5.2601;4.5035;0.2928;-0.2409;-0.4627
0000810850;-3.9433;-4.7860;4.6543;0.2709;-0.3195;-0.4775
0000810859;-3.5171;-4.3551;4.6950;0.2226;-0.3714;-0.5029
0000810868;-3.1101;-4.1252;4.7764;0.1891;-0.4175;-0.5323
0000810877;-2.5043;-4.0175;4.5514;0.1506;-0.4437;-0.5474
0000810886;-2.0303;-4.3239;4.3527;0.1354;-0.4349;-0.5176
0000810895;-1.3264;-4.9584;4.3886;0.1438;-0.3688;-0.4546
0000810904;-1.0008;-5.4779;4.3814;0.1660;-0.2735;-0.3784
0000810989;-2.6240;-3.1173;4.5729;-0.1851;-0.1164;-0.0993
0000810998;-2.4349;-3.0119;4.1659;-0.2835;-0.1077;-0.1071
0000811007;-2.3367;-3.1580;3.8882;-0.3679;-0.1252;-0.1358
0000811016;-2.3559;-4.0055;3.7086;-0.4381;-0.1316;-0.1510
0000811025;-2.5714;-4.6519;3.6296;-0.4736;-0.1524;-0.1879
0000811034;-2.7940;-5.1691;3.4764;-0.4958;-0.1660;-0.2373
0000811043;-2.9113;-5.3056;3.4620;-0.5009;-0.1937;-0.2914
0000811052;-3.3208;-5.6695;3.4309;-0.4910;-0.2411;-0.3481
0000811061;-3.3495;-5.5976;3.4261;-0.4850;-0.2880;-0.3994
0000811070;-3.0622;-5.4731;3.4453;-0.4864;-0.3293;-0.4377
0000811079;-2.8419;-5.5761;3.6296;-0.4815;-0.3568;-0.4683
0000811088;-2.1332;-5.4492;3.6320;-0.4952;-0.3695;-0.4772
0000811097;-1.6424;-5.4803;3.5937;-0.4959;-0.3966;-0.4754
0000811106;-1.1708;-5.6336;3.7206;-0.5017;-0.4333;-0.4827
0000811115;-0.6728;-5.5186;3.7182;-0.5155;-0.4401;-0.4748
0000811124;-0.3903;-5.5162;3.6105;-0.5280;-0.4526;-0.4996
0000811133;-0.0742;-5.3510;3.3615;-0.5328;-0.4782;-0.5373
0000811142;0.0479;-5.5976;3.1436;-0.5572;-0.4810;-0.5702
0000811151;0.0407;-5.7078;3.0071;-0.5777;-0.4899;-0.6191
0000811160;0.3328;-6.0693;3.2729;-0.5794;-0.5011;-0.6411
0000811169;-0.1460;-6.6990;3.7781;-0.5474;-0.5644;-0.6432
0000811178;-0.4190;-7.2233;4.5155;-0.4808;-0.6791;-0.6141
0000811187;-0.8164;-8.3246;5.0087;-0.3902;-0.7894;-0.5812
0000811196;-0.9026;-9.2464;5.4947;-0.2721;-0.9253;-0.5778
0000811205;-1.3048;-10.3789;6.1483;-0.1471;-1.0392;-0.5806
0000811214;-1.3312;-11.4156;6.5027;-0.0448;-1.0693;-0.5885
0000811223;-1.1253;-11.9231;6.8283;0.0546;-0.9824;-0.6346
0000811232;-0.9361;-11.7675;7.1730;0.1671;-0.7718;-0.6912
0000811241;-1.0367;-11.0373;7.2065;0.2657;-0.5674;-0.7301
0000811250;-1.6855;-10.1754;7.2880;0.3313;-0.4169;-0.7847
0000811259;-1.9249;-9.0884;7.5178;0.3537;-0.3643;-0.8354
0000811268;-2.6983;-8.6646;7.9655;0.3194;-0.3740;-0.8298
0000811277;-3.4788;-8.8705;8.1762;0.2709;-0.3816;-0.7777
0000811286;-3.6464;-9.1650;7.4603;0.1633;-0.3023;-0.6624
0000811295;-3.8427;-9.0261;6.8402;0.0353;-0.1608;-0.4840
0000811304;-4.0845;-8.0373;6.9336;-0.0596;-0.0167;-0.2017
0000811313;-4.2090;-6.8977;6.7038;-0.1103;0.0659;0.0803
0000811322;-4.3814;-6.0166;6.3973;-0.2010;0.0890;0.2781
0000811331;-4.6112;-6.0334;6.1890;-0.3024;0.0294;0.3613
0000811340;-4.8530;-6.7301;6.3351;-0.3770;-0.0450;0.3773
0000811349;-5.3917;-8.0589;6.4667;-0.4077;-0.1075;0.3517
0000811358;-5.5067;-9.1818;6.2704;-0.4134;-0.1103;0.3375
0000811367;-5.6096;-10.0940;5.9855;-0.4013;-0.0814;0.3473
0000811376;-5.6862;-10.3286;5.7245;-0.3517;-0.0428;0.3888
0000811385;-5.4564;-10.0820;5.3439;-0.2987;-0.0417;0.4614
0000811394;-5.1140;-9.2919;5.2625;-0.2463;-0.0895;0.5197
0000811403;-4.5394;-8.5473;5.1260;-0.2262;-0.1408;0.5768
0000811412;-4.2066;-8.1834;5.0853;-0.2116;-0.1824;0.6370
0000811421;-3.5362;-7.6998;4.9895;-0.2176;-0.2077;0.6851
0000811430;-3.1987;-7.5298;4.7525;-0.2272;-0.2344;0.6979
0000811439;-2.8347;-7.1970;4.7716;-0.2485;-0.2509;0.6735
0000811448;-2.7533;-6.9911;4.7932;-0.2799;-0.2437;0.6283
0000811457;-2.8419;-6.6391;4.8483;-0.3175;-0.2455;0.5343
0000811466;-3.0335;-6.4907;4.8076;-0.3796;-0.2401;0.4018
0000811475;-2.8060;-6.1699;4.9057;-0.4498;-0.2228;0.2514
0000811484;-2.7581;-6.2130;4.7573;-0.5155;-0.2024;0.1155
0000811493;-2.4493;-6.6367;4.5993;-0.5616;-0.1803;0.0181
0000811502;-2.0183;-6.7756;4.5849;-0.5845;-0.1543;-0.0585
0000811511;-1.9417;-7.4843;4.5203;-0.5875;-0.1026;-0.1030
0000811520;-1.9537;-7.5729;4.4125;-0.5665;-0.0534;-0.1042
0000811529;-2.3104;-7.7524;4.4412;-0.5476;-0.0183;-0.0596
0000811538;-2.6169;-7.6064;4.3144;-0.5263;-0.0103;-0.0084
0000811547;-3.1939;-7.2496;4.1779;-0.5200;-0.0276;0.0617
0000811556;-3.5650;-7.1730;4.2401;-0.5292;-0.0922;0.0970
0000811565;-3.5362;-6.9145;4.4125;-0.5501;-0.1667;0.1122
0000811574;-3.0861;-7.0749;4.5921;-0.5818;-0.2141;0.1035
0000811583;-2.3343;-7.3143;4.7501;-0.5830;-0.2392;0.0737
0000811592;-1.9920;-7.7692;4.8100;-0.5590;-0.2040;0.0625
0000811601;-1.6424;-8.2768;4.6615;-0.5201;-0.1944;0.0608
0000811610;-1.2450;-8.5617;4.7621;-0.4541;-0.1685;0.0733
0000811749;-1.9561;-7.7476;5.0470;-0.3312;-0.0005;0.0056
0000811758;-1.5826;-7.6686;5.1691;-0.3247;0.0065;0.0226
0000811767;-1.4509;-7.9009;5.0159;-0.3095;0.0073;0.0131
0000811776;-1.6305;-8.0038;4.9656;-0.2906;0.0209;0.0244
0000811785;-1.5730;-7.9895;5.2074;-0.2770;0.0278;0.0205
0000811794;-1.7621;-8.2528;5.2792;-0.2522;0.0256;0.0040
0000811803;-1.8771;-8.1977;5.2744;-0.2246;0.0272;-0.0109
0000811812;-2.0853;-8.4060;5.2840;-0.1977;0.0274;-0.0164
0000811821;-2.1596;-8.7149;5.3271;-0.1692;0.0140;-0.0312
0000811830;-1.8794;-8.6526;5.2936;-0.1350;0.0128;-0.0405
0000811839;-2.1261;-8.6431;5.3271;-0.1035;0.0013;-0.0513
0000811848;-1.9130;-8.6598;5.2816;-0.0653;-0.0127;-0.0588
0000811857;-1.9537;-8.6766;5.2696;-0.0368;-0.0100;-0.0522
0000811866;-1.5802;-8.3103;5.2529;0.0024;-0.0232;-0.0673
0000811875;-1.7765;-8.4443;5.2768;0.0325;-0.0207;-0.0707
0000811884;-1.9585;-8.5281;5.3032;0.0462;-0.0280;-0.0857
0000811893;-1.9417;-8.3821;5.4085;0.0829;-0.0386;-0.0923
0000811902;-1.6448;-8.4084;5.3630;0.0973;-0.0488;-0.0994
0000811911;-1.7478;-8.7101;5.4540;0.1302;-0.0594;-0.1074
0000811920;-1.5323;-8.6287;5.4324;0.1510;-0.0558;-0.0963
0000811929;-1.6185;-8.7652;5.4995;0.1801;-0.0446;-0.0953
0000811938;-1.4629;-8.7412;5.4372;0.1937;-0.0246;-0.0933
0000811947;-1.5060;-8.7197;5.3391;0.2132;-0.0053;-0.0842
0000811956;-1.4988;-8.6694;5.1523;0.2312;0.0076;-0.0890
0000811965;-1.5969;-8.5090;5.0733;0.2471;0.0149;-0.0883
0000811974;-1.5131;-8.4036;5.0661;0.2741;0.0140;-0.0946
0000811983;-1.8076;-8.4611;5.0925;0.2930;0.0161;-0.1046
0000811992;-1.9561;-8.3606;4.9704;0.3087;0.0049;-0.1335
0000812001;-2.0207;-8.4563;5.0111;0.3159;0.0012;-0.1499
0000812010;-2.2458;-8.4156;4.9632;0.3313;-0.0120;-0.1673
0000812019;-2.1476;-8.5353;5.0398;0.3359;-0.0067;-0.1583
0000812028;-2.2146;-8.7580;4.8076;0.3448;-0.0063;-0.1557
0000812037;-2.1093;-8.7053;4.7716;0.3545;-0.0035;-0.1434
0000812046;-2.1237;-8.8202;4.6088;0.3688;-0.0213;-0.1226
0000812055;-2.2290;-8.8633;4.5993;0.3902;-0.0345;-0.1013
0000812064;-2.1931;-8.8394;4.7764;0.4065;-0.0478;-0.0903
0000812073;-1.9704;-8.5138;4.6519;0.4141;-0.0454;-0.0769
0000812082;-2.2098;-8.7077;4.5681;0.4353;-0.0521;-0.0802
0000812091;-2.0446;-8.3318;4.5681;0.4330;-0.0476;-0.0727
0000812100;-1.8651;-8.3294;4.6639;0.4453;-0.0665;-0.0721
0000812109;-1.9106;-8.2528;4.7357;0.4406;-0.0514;-0.0526
0000812118;-1.9345;-8.1499;4.7094;0.4349;-0.0481;-0.0352
0000812127;-1.8579;-8.0613;4.7214;0.4318;-0.0425;-0.0156
0000812136;-1.8411;-8.2384;4.6639;0.4255;-0.0437;0.0104
0000812145;-1.9178;-8.2911;4.7453;0.4365;-0.0470;0.0270
0000812154;-2.0183;-8.5066;4.7453;0.4395;-0.0532;0.0492
0000812163;-1.9393;-8.5976;4.9560;0.4588;-0.0689;0.0421
0000812172;-1.8555;-8.5976;4.8315;0.4710;-0.0666;0.0536
0000812181;-1.6616;-8.3701;4.8650;0.4911;-0.0626;0.0397
0000812190;-1.8340;-8.5090;4.8004;0.5032;-0.0508;0.0321
0000812199;-1.6472;-8.1570;4.8195;0.5273;-0.0520;0.0233
0000812208;-1.9680;-8.0948;4.7884;0.5460;-0.0765;0.0220
0000812217;-1.8842;-7.9607;4.8794;0.5573;-0.0947;0.0252
0000812226;-1.9178;-7.9440;4.9057;0.5712;-0.1108;0.0208
0000812235;-1.6472;-7.9966;4.9321;0.5938;-0.1038;0.0037
0000812244;-1.3096;-7.9200;4.8459;0.6082;-0.0810;-0.0025
0000812253;-1.4892;-8.1379;4.7333;0.6434;-0.0585;-0.0032
0000812262;-1.5419;-8.1523;4.7692;0.6714;-0.0289;-0.0029
0000812271;-1.7190;-7.9823;4.6878;0.7101;-0.0135;0.0115
0000812280;-1.9920;-7.9368;4.6543;0.7394;0.0023;0.0304
0000812289;-2.1835;-7.7740;4.6017;0.7659;0.0230;0.0485
0000812298;-2.2745;-7.4843;4.6448;0.7814;0.0278;0.0416
0000812307;-2.3248;-7.2832;4.6017;0.7750;0.0328;0.0384
0000812316;-2.2553;-7.1108;4.7764;0.7777;0.0353;0.0288
0000812325;-2.2098;-7.0294;4.7764;0.7781;0.0446;0.0292
0000812334;-2.1739;-7.0533;4.8267;0.7677;0.0713;0.0378
0000812343;-2.2386;-6.9647;4.7908;0.7633;0.0847;0.0486
0000812352;-2.2697;-6.9671;4.7285;0.7570;0.0821;0.0783
0000812361;-2.1380;-6.9887;4.6543;0.7524;0.0853;0.0927
0000812370;-2.0303;-6.6511;4.9680;0.7382;0.0999;0.0990
0000812379;-2.1931;-6.7469;4.8698;0.7210;0.0918;0.1071
0000812464;-2.1691;-6.3542;5.3127;0.5728;0.0229;0.1779
0000812473;-2.2386;-6.3853;5.2648;0.5396;0.0176;0.1848
0000812482;-2.2673;-6.3015;5.3056;0.5187;0.0016;0.1873
0000812491;-2.1787;-6.2417;5.1978;0.4940;0.0097;0.2005
0000812500;-2.0734;-6.2920;5.2768;0.4774;0.0252;0.1988
0000812509;-2.1189;-6.0813;5.1954;0.4600;0.0425;0.1895
0000812518;-2.0901;-6.1818;5.0949;0.4455;0.0268;0.1709
0000812527;-2.3296;-5.9328;5.1715;0.4048;0.0528;0.1761
0000812536;-2.6432;-6.1052;5.3965;0.3659;0.0365;0.1620
0000812545;-2.7031;-5.9616;5.7724;0.3071;0.0124;0.1460
0000812554;-2.9042;-5.9544;6.0406;0.2293;0.0021;0.1415
0000812563;-2.8826;-5.4253;6.2393;0.1584;-0.0132;0.1211
0000812572;-2.6360;-5.2577;6.1555;0.0847;-0.0260;0.0630
0000812581;-2.5283;-5.2577;6.0549;0.0149;0.0147;0.0184
0000812590;-2.4229;-5.4660;5.7245;-0.0242;0.0321;-0.0225
0000812599;-2.1237;-5.8538;5.3726;-0.0590;0.0408;-0.0769
0000812608;-1.8914;-6.5697;5.1020;-0.0770;0.0412;-0.1152
0000812617;-1.8220;-7.2903;4.9464;-0.0739;0.0698;-0.1288
0000812626;-1.5419;-7.6016;4.7501;-0.0478;0.0926;-0.1252
0000812635;-1.6712;-8.0062;4.5633;0.0032;0.0891;-0.1049
0000812644;-1.8148;-8.1834;4.2952;0.0687;0.0695;-0.0682
0000812653;-1.6616;-7.6016;4.3287;0.1255;0.0537;-0.0226
0000812662;-1.8172;-7.1970;4.4436;0.1691;0.0568;-0.0152
0000812671;-2.1045;-6.7852;4.3886;0.1909;0.0697;-0.0017
0000812680;-2.2625;-6.1579;4.3551;0.2148;0.0738;0.0073
0000812689;-2.4373;-5.7964;4.4221;0.2102;0.0743;0.0179
0000812698;-2.3487;-5.3774;4.4867;0.1919;0.0629;0.0238
0000812707;-2.3942;-5.1667;4.6711;0.1520;0.0649;0.0429
0000812716;-2.4924;-5.1667;4.7238;0.0942;0.0602;0.0596
0000812725;-2.3703;-5.0182;4.7788;0.0332;0.0429;0.0726
0000812734;-2.1189;-4.6902;4.6711;-0.0265;0.0588;0.0999
0000812743;-1.8531;-4.6112;4.7381;-0.0838;0.0757;0.1259
0000812752;-1.8651;-4.6208;4.8171;-0.1387;0.0881;0.1440
0000812761;-1.5874;-4.7597;4.7716;-0.1965;0.1202;0.1420
0000812770;-1.7238;-5.0685;4.8243;-0.2345;0.1418;0.1363
0000812779;-1.9585;-5.4085;4.7285;-0.2607;0.1637;0.1260
0000812788;-1.8890;-5.5952;4.6831;-0.2790;0.1755;0.1104
0000812797;-2.2194;-6.1387;4.5993;-0.2898;0.1887;0.1002
0000812806;-2.0183;-6.1339;4.6208;-0.2951;0.1992;0.0794
0000812815;-1.8579;-6.1100;4.5993;-0.2978;0.2020;0.0562
0000812824;-2.0853;-6.2489;4.5849;-0.2999;0.1901;0.0237
0000812833;-1.9441;-6.0334;4.6064;-0.2906;0.1777;-0.0111
0000812842;-1.8483;-5.9424;4.7477;-0.3070;0.1715;-0.0482
0000812851;-1.9561;-6.0789;4.8387;-0.3162;0.1699;-0.1021
0000812860;-2.0853;-6.0478;4.7405;-0.3336;0.1699;-0.1557
0000812869;-1.8172;-5.9927;4.7333;-0.3396;0.1743;-0.2106
0000812878;-1.9896;-6.1411;4.7333;-0.3489;0.1856;-0.2410
0000812887;-2.2721;-6.1100;4.7429;-0.3421;0.1789;-0.2658
0000812896;-2.1883;-6.0741;4.7669;-0.3439;0.1777;-0.2698
0000812905;-2.4876;-6.2632;4.9512;-0.3359;0.1639;-0.2745
0000812914;-2.6217;-6.2944;4.8698;-0.3288;0.1500;-0.2702
0000812923;-2.6432;-6.3638;4.9009;-0.3100;0.1342;-0.2693
0000812932;-2.6624;-6.5769;4.9608;-0.2852;0.1203;-0.2562
0000812941;-2.2362;-6.2249;4.8770;-0.2591;0.0997;-0.2739
0000812950;-2.2338;-6.5314;4.8195;-0.2423;0.1086;-0.2894
0000812959;-2.0135;-6.4236;4.8794;-0.2370;0.1211;-0.3140
0000812968;-1.7023;-6.1746;4.7046;-0.2178;0.1444;-0.3429
0000812977;-1.5538;-6.1675;4.6950;-0.2082;0.1805;-0.3593
0000812986;-1.3120;-6.0262;4.4796;-0.2001;0.2142;-0.3938
0000812995;-1.7621;-6.1531;4.4245;-0.1949;0.2485;-0.4073
0000813004;-1.7573;-6.0118;4.5179;-0.1981;0.2682;-0.4229
0000813013;-1.9321;-5.9592;4.5538;-0.1887;0.2863;-0.4147
0000813022;-2.1308;-5.7964;4.5681;-0.1947;0.2994;-0.4093
0000813031;-2.6073;-5.8897;4.4293;-0.1984;0.3006;-0.3976
0000813040;-2.8012;-5.9711;4.4891;-0.2001;0.2947;-0.3917
0000813049;-2.8706;-5.8323;4.4676;-0.2032;0.2791;-0.3673
0000813058;-3.1819;-6.0358;4.4532;-0.2065;0.2495;-0.3443
0000813067;-3.3088;-6.0813;4.4508;-0.2228;0.2257;-0.3178
0000813076;-3.4596;-6.1986;4.5538;-0.2225;0.1935;-0.2806
0000813085;-3.2226;-5.9017;4.4508;-0.2321;0.1676;-0.2350
0000813094;-3.3136;-5.9137;4.4532;-0.2202;0.1283;-0.1885
0000813103;-3.1364;-6.1507;4.2880;-0.2053;0.0975;-0.1362
0000813190;-3.1556;-6.4548;4.6136;-0.0270;-0.1311;0.0838
0000813199;-2.7031;-6.4500;4.5346;0.0135;-0.1660;0.0755
0000813208;-1.9944;-6.7660;4.4772;0.0385;-0.1454;0.0685
0000813217;-1.4509;-7.2305;4.3383;0.0937;-0.0913;0.0629
0000813226;-0.9290;-7.4843;4.2473;0.1504;-0.0116;0.0705
0000813235;-0.6297;-7.3023;3.9696;0.1956;0.0737;0.0750
0000813244;-0.8811;-7.0150;3.8164;0.2109;0.1290;0.0524
0000813253;-1.5323;-6.7205;3.7757;0.2218;0.1471;-0.0065
0000813262;-2.1021;-6.3614;3.8451;0.2124;0.1555;-0.0743
0000813271;-2.5283;-6.2584;4.0151;0.2013;0.1476;-0.1495
0000813280;-2.8084;-6.2297;3.9744;0.1880;0.1239;-0.2268
0000813289;-2.9521;-6.4979;3.8020;0.1664;0.1027;-0.2919
0000813298;-3.0909;-6.6272;3.9097;0.1418;0.0811;-0.3316
0000813307;-3.1125;-6.4572;3.8858;0.1418;0.0578;-0.3604
0000813316;-3.0574;-6.3638;3.8690;0.1182;0.0418;-0.3612
0000813325;-3.0550;-6.4428;3.9073;0.1171;0.0084;-0.3464
0000813334;-3.1675;-6.3015;4.0654;0.0979;-0.0337;-0.3154
0000813343;-2.8850;-6.1555;4.1084;0.0847;-0.0895;-0.2887
0000813352;-2.7102;-6.4236;4.2808;0.0521;-0.1235;-0.2603
0000813361;-2.5714;-6.4620;4.3527;0.0177;-0.1496;-0.2332
0000813370;-2.3248;-6.3829;4.2713;-0.0087;-0.1657;-0.2150
0000813379;-2.4445;-6.2776;4.3527;-0.0257;-0.1968;-0.2126
0000813388;-2.6073;-6.2106;4.6543;-0.0476;-0.2164;-0.2325
0000813397;-2.7031;-6.4189;4.8123;-0.0902;-0.2232;-0.2840
0000813406;-2.8180;-6.7660;4.6088;-0.1231;-0.2489;-0.3496
0000813415;-2.7198;-6.9695;4.3718;-0.1334;-0.2527;-0.3746
0000813424;-2.4014;-7.0820;4.3622;-0.1174;-0.2591;-0.3813
0000813433;-2.3846;-7.2784;4.3503;-0.0889;-0.2713;-0.3866
0000813442;-2.0638;-7.5154;4.4029;-0.0638;-0.2597;-0.3563
0000813451;-1.8818;-7.4627;4.3934;-0.0369;-0.2619;-0.3456
0000813460;-2.0303;-7.4268;4.8028;-0.0253;-0.2518;-0.3416
0000813469;-1.8723;-7.2592;4.8818;-0.0085;-0.2419;-0.3372
0000813478;-1.9728;-7.0366;4.8195;-0.0025;-0.2437;-0.3417
0000813487;-1.8914;-7.1180;4.9153;0.0031;-0.2370;-0.3467
0000813496;-1.7214;-7.0892;4.9488;-0.0036;-0.2002;-0.3345
0000813505;-1.5395;-7.0174;4.8602;0.0017;-0.1576;-0.3409
0000813514;-1.4246;-6.9983;4.7190;0.0103;-0.0978;-0.3432
0000813523;-1.7406;-7.3478;4.7405;0.0108;-0.0238;-0.3336
0000813532;-1.6903;-7.3191;4.5681;0.0421;0.0164;-0.3260
0000813541;-2.2625;-7.3957;4.5322;0.0805;0.0530;-0.3088
0000813550;-2.7126;-7.4388;4.5466;0.1244;0.0687;-0.2974
0000813559;-3.2968;-7.3454;4.5035;0.1525;0.0504;-0.3052
0000813568;-3.8164;-7.3191;4.6256;0.1677;-0.0111;-0.3188
0000813577;-4.4388;-7.1467;4.8147;0.1585;-0.0963;-0.3215
0000813586;-4.4053;-6.8809;4.9919;0.1330;-0.1984;-0.3276
0000813595;-4.1563;-6.4859;5.0637;0.0939;-0.2822;-0.3087
0000813604;-3.6536;-5.9065;5.1308;0.0301;-0.3271;-0.2797
0000813613;-3.2441;-5.8586;5.1260;-0.0376;-0.3525;-0.2467
0000813622;-2.6600;-5.8538;4.9584;-0.1050;-0.3360;-0.2081
0000813631;-2.1524;-6.1363;4.5945;-0.1443;-0.2954;-0.1647
0000813640;-1.7813;-6.4476;4.5203;-0.1572;-0.2221;-0.1015
0000813649;-2.0279;-6.9815;4.3790;-0.1529;-0.1773;-0.0570
0000813658;-2.0470;-7.1443;4.3934;-0.1460;-0.1424;-0.0155
0000813667;-2.6097;-7.2951;4.4939;-0.1454;-0.1532;-0.0101
0000813676;-2.8563;-7.1778;4.4077;-0.1462;-0.1793;0.0073
0000813685;-3.0502;-6.9121;4.3718;-0.1599;-0.2269;0.0325
0000813694;-2.6145;-6.4165;4.3670;-0.1755;-0.2637;0.0613
0000813703;-2.2362;-6.1244;4.2689;-0.2242;-0.2601;0.0917
0000813712;-2.1572;-5.8562;4.1300;-0.2713;-0.2634;0.1057
0000813721;-2.1644;-5.8706;4.3838;-0.3119;-0.2934;0.1073
0000813730;-2.2098;-6.0071;4.6639;-0.3440;-0.2902;0.0895
0000813739;-1.9752;-6.5410;4.5442;-0.3492;-0.2545;0.0448
0000813748;-1.8340;-7.4316;4.4173;-0.3393;-0.2014;0.0220
0000813757;-1.6352;-7.9679;4.4053;-0.3018;-0.1773;0.0242
0000813766;-1.6041;-8.3677;4.2401;-0.2427;-0.1781;0.0396
0000813775;-1.3767;-8.2217;4.1156;-0.1853;-0.1779;0.0789
0000813784;-1.4724;-8.3462;3.8618;-0.1240;-0.1769;0.1264
0000813793;-1.5658;-8.1068;3.6966;-0.0620;-0.1923;0.1672
0000813802;-1.7286;-8.0110;3.5889;-0.0048;-0.2213;0.1970
0000813811;-1.7286;-7.6950;3.6272;0.0517;-0.2510;0.2124
0000813903;-0.8356;-7.8985;3.8379;0.4001;-0.4994;-0.2041
0000813912;-0.7566;-7.8506;3.6703;0.4275;-0.4623;-0.2426
0000813921;-0.6752;-8.1762;3.6152;0.4652;-0.4361;-0.2874
0000813930;-0.8428;-8.0254;3.6919;0.5069;-0.4333;-0.3072
0000813939;-1.0271;-7.8673;4.1468;0.5395;-0.4602;-0.3172
0000813948;-0.8595;-7.6830;4.7357;0.5720;-0.5055;-0.3168
0000813957;-0.8882;-7.7692;5.3319;0.6226;-0.5296;-0.2771
0000813966;-0.9457;-7.9057;5.5402;0.6694;-0.5033;-0.2016
0000813975;-0.7039;-7.8195;5.5019;0.6980;-0.4481;-0.1527
0000813984;-0.7374;-7.7500;5.6934;0.6928;-0.3781;-0.1140
0000813993;-0.5435;-6.8378;5.9783;0.6600;-0.3336;-0.0831
0000814002;-0.6057;-5.9975;6.7157;0.6356;-0.3641;-0.0759
0000814011;-1.2905;-5.8730;7.5250;0.6119;-0.4102;-0.0510
0000814020;-1.4006;-6.2537;8.2863;0.5738;-0.4153;-0.0109
0000814029;-1.4629;-7.1180;8.3079;0.5363;-0.3195;0.0137
0000814038;-1.4557;-7.6926;7.7859;0.4838;-0.2064;0.0053
0000814047;-1.6592;-7.9847;7.2688;0.4546;-0.1736;-0.0564
0000814056;-2.2362;-8.3055;6.9504;0.4193;-0.1691;-0.1487
0000814065;-2.7605;-8.0924;6.8402;0.3908;-0.1757;-0.2894
0000814074;-3.5889;-8.4084;7.0868;0.3770;-0.2338;-0.4293
0000814083;-4.1276;-8.9495;7.4508;0.3948;-0.2998;-0.5105
0000814092;-5.2026;-9.8976;7.4603;0.4467;-0.3476;-0.5584
0000814101;-5.7748;-11.1713;7.6686;0.4850;-0.3476;-0.5569
0000814110;-6.0142;-11.9135;7.2951;0.5431;-0.3179;-0.4584
0000814119;-5.3965;-11.5664;6.7564;0.6281;-0.2858;-0.3301
0000814128;-3.9744;-8.6670;5.9065;0.6663;-0.2601;-0.2874
0000814137;-2.5283;-6.3015;6.0190;0.6217;-0.1632;-0.3547
0000814146;-1.3527;-4.4221;5.8275;0.5425;-0.0500;-0.4209
0000814155;-0.8882;-3.3950;5.5067;0.4302;0.0245;-0.4435
0000814164;-0.8859;-3.2848;5.3750;0.2938;0.0417;-0.3940
0000814173;-1.2737;-3.8331;5.3678;0.1543;0.0145;-0.3064
0000814182;-1.7957;-5.0733;5.5043;0.0314;-0.0273;-0.2129
0000814191;-2.1380;-6.4476;5.7341;-0.0364;-0.0554;-0.1319
0000814200;-2.7054;-7.7596;5.9256;-0.0560;-0.0823;-0.0705
0000814209;-3.3758;-9.1722;6.1866;-0.0163;-0.1126;-0.0373
0000814218;-3.6416;-9.7229;6.4069;0.0364;-0.1187;-0.0124
0000814227;-3.7278;-9.9383;6.4620;0.1023;-0.1259;0.0096
0000814236;-3.1364;-8.8609;6.4069;0.1515;-0.1244;0.0027
0000814245;-2.2721;-7.5417;6.4308;0.1490;-0.0679;-0.0282
0000814254;-1.5730;-6.6774;6.3805;0.1275;-0.0372;-0.0484
0000814263;-1.0319;-5.9999;6.3638;0.0867;0.0284;-0.0775
0000814272;-1.0439;-6.2177;6.3063;0.0310;0.0765;-0.1042
0000814281;-0.9481;-6.5841;6.0142;-0.0047;0.0922;-0.1005
0000814290;-0.8619;-7.0366;5.9017;-0.0116;0.0827;-0.0877
0000814299;-0.9625;-7.6974;5.9233;-0.0200;0.0975;-0.0440
0000814308;-0.9194;-7.9487;5.7868;-0.0088;0.1037;-0.0129
0000814317;-1.2043;-8.2025;5.7844;-0.0020;0.1104;0.0200
0000814326;-1.1109;-8.0972;5.7006;0.0155;0.1007;0.0346
0000814335;-1.5538;-8.0254;5.6312;0.0266;0.1013;0.0617
0000814344;-1.5682;-7.7788;5.5402;0.0293;0.1074;0.0926
0000814353;-1.7071;-7.7189;5.4492;0.0484;0.1010;0.1099
0000814362;-1.6903;-7.5465;5.3941;0.0470;0.0983;0.1324
0000814371;-1.9441;-7.5058;5.4492;0.0554;0.0825;0.1430
0000814380;-1.5754;-7.2688;5.4755;0.0625;0.0746;0.1518
0000814389;-1.5251;-7.3215;5.5306;0.0649;0.0670;0.1599
0000814398;-1.4676;-7.4771;5.6838;0.0669;0.0533;0.1773
0000814407;-1.2186;-7.7021;5.5330;0.0781;0.0425;0.1949
0000814416;-1.0367;-7.5920;5.6168;0.0773;0.0292;0.2184
0000814425;-1.2139;-7.7117;5.7126;0.0893;0.0125;0.2422
0000814434;-1.1277;-7.6662;5.8562;0.0807;0.0176;0.2725
0000814443;-1.2019;-7.7045;5.8826;0.0929;0.0140;0.2838
0000814452;-1.3168;-7.5705;5.7868;0.0871;0.0236;0.3044
0000814461;-1.2258;-7.4077;5.7533;0.0834;0.0274;0.3184
0000814470;-1.4581;-7.3430;5.7748;0.0745;0.0242;0.3203
0000814479;-1.3312;-7.2401;5.8442;0.0666;0.0297;0.3277
0000814488;-1.1995;-7.1036;5.7772;0.0677;0.0240;0.3240
0000814497;-1.2905;-7.3095;5.7293;0.0618;0.0215;0.3175
0000814506;-1.2737;-7.3909;5.7030;0.0602;0.0273;0.3140
0000814515;-1.2570;-7.4651;5.7437;0.0637;0.0392;0.3108
0000814524;-1.2665;-7.2640;5.6623;0.0561;0.0556;0.3132
0000814533;-1.3743;-7.0988;5.5857;0.0482;0.0476;0.3042
0000814542;-1.5107;-7.1347;5.6886;0.0380;0.0396;0.3127
0000814630;-2.1284;-7.1012;5.3127;0.0115;0.0578;0.2718
0000814639;-2.0255;-7.1251;5.2577;0.0136;0.0506;0.2594
0000814648;-2.1476;-7.2042;5.2505;0.0261;0.0509;0.2370
0000814657;-2.1261;-7.1395;5.2744;0.0365;0.0613;0.2253
0000814666;-2.0063;-7.1994;5.1595;0.0581;0.0658;0.1984
0000814675;-2.0087;-7.1036;5.2074;0.0835;0.0729;0.1773
0000814684;-1.9441;-7.1850;5.2625;0.1011;0.0849;0.1601
0000814693;-2.1811;-7.1012;5.1427;0.1359;0.0794;0.1347
0000814702;-2.2817;-7.1180;5.2744;0.1519;0.0821;0.1179
0000814711;-2.3056;-6.9504;5.1763;0.1695;0.0782;0.0833
0000814720;-2.1141;-6.7660;5.0709;0.1755;0.0870;0.0606
0000814729;-2.3248;-6.8690;5.1427;0.1904;0.0789;0.0392
0000814738;-2.2577;-6.7780;5.1595;0.1968;0.0741;0.0172
0000814747;-2.2194;-6.8402;5.0206;0.2120;0.0889;0.0144
0000814756;-1.9656;-6.7038;4.8914;0.2217;0.1082;0.0027
0000814765;-1.9345;-6.5960;4.8363;0.2398;0.1236;-0.0085
0000814774;-2.3128;-6.6679;4.8243;0.2553;0.1232;-0.0204
0000814783;-2.6767;-6.7205;4.7764;0.2678;0.1023;-0.0376
0000814792;-2.7749;-6.5218;5.0302;0.2543;0.0642;-0.0377
0000814801;-2.6384;-6.4260;5.1882;0.2276;0.0426;-0.0245
0000814810;-2.3750;-6.3662;5.2241;0.2186;0.0266;-0.0064
0000814819;-1.9968;-6.3614;5.2265;0.2017;0.0175;0.0189
0000814828;-1.7933;-6.3422;5.1116;0.1888;0.0196;0.0554
0000814837;-1.6113;-6.3710;4.9943;0.1921;0.0242;0.0859
0000814846;-1.5993;-6.4620;5.0159;0.2124;0.0272;0.1042
0000814855;-1.6807;-6.5434;4.9416;0.2232;0.0386;0.1242
0000814864;-1.6568;-6.3925;4.9225;0.2394;0.0576;0.1362
0000814873;-1.9201;-6.3063;4.8746;0.2579;0.0612;0.1347
0000814882;-2.4541;-6.2776;5.0996;0.2663;0.0406;0.1323
0000814891;-2.7821;-6.0741;5.1523;0.2451;0.0204;0.1312
0000814900;-2.5115;-5.7150;5.3247;0.2228;-0.0230;0.1214
0000814909;-2.4900;-5.7988;5.4348;0.1909;-0.0381;0.1324
0000814918;-2.4469;-5.7437;5.5857;0.1573;-0.0513;0.1460
0000814927;-2.1165;-5.6910;5.4947;0.1327;-0.0694;0.1523
0000814936;-1.7957;-5.5522;5.4851;0.0989;-0.0594;0.1755
0000814945;-1.6281;-5.6671;5.4516;0.0805;-0.0590;0.1796
0000814954;-1.7262;-5.7820;5.4205;0.0609;-0.0310;0.1927
0000814963;-1.8747;-5.8490;5.3247;0.0492;-0.0222;0.1831
0000814972;-2.1524;-5.8275;5.2840;0.0362;-0.0136;0.1748
0000814981;-2.2122;-5.8634;5.3439;0.0147;-0.0171;0.1733
0000814990;-2.5163;-6.0597;5.5450;-0.0028;-0.0270;0.1645
0000814999;-2.4253;-5.6264;5.9424;-0.0312;-0.0454;0.1400
0000815008;-2.5786;-5.4277;6.2872;-0.0937;-0.0522;0.1203
0000815017;-2.7605;-5.1212;6.5003;-0.1812;-0.0709;0.0825
0000815026;-2.6767;-5.0374;6.6607;-0.2811;-0.0767;0.0390
0000815035;-2.5163;-5.1380;6.4691;-0.3968;-0.0838;-0.0137
0000815044;-2.0614;-5.3798;5.9400;-0.4354;-0.0813;-0.0533
0000815051;-1.7597;-5.7413;5.6431;-0.4406;-0.0697;-0.0598
0000815059;-1.3455;-6.1675;5.2696;-0.4333;-0.0642;-0.0634
0000815067;-1.1684;-6.6463;5.0949;-0.4074;-0.0333;-0.0786
0000815075;-0.9218;-7.1371;4.7692;-0.3576;-0.0060;-0.0883
0000815083;-1.0367;-8.0325;4.5873;-0.2832;0.0208;-0.0834
0000815091;-1.0534;-8.6167;4.3862;-0.1803;0.0350;-0.0741
0000815099;-0.9266;-8.8897;4.2090;-0.0718;0.0448;-0.0554
0000815107;-1.3096;-9.3134;4.1659;0.0448;0.0406;-0.0382
0000815115;-1.6520;-9.0046;4.2162;0.1720;0.0285;-0.0151
0000815123;-2.0830;-8.4467;4.4197;0.2755;0.0345;-0.0245
