time;acc_x;acc_y;acc_z;gyro_x;gyro_y;gyro_z
0001212975;-2.3104;-5.6695;4.1922;0.2959;-0.1488;-0.2020
0001212983;-2.2865;-5.7748;4.3000;0.2864;-0.1508;-0.1969
0001212990;-2.4948;-5.6599;4.6950;0.2695;-0.1547;-0.1775
0001212998;-2.8204;-5.5138;4.9081;0.2513;-0.1749;-0.1524
0001213007;-3.0813;-5.2218;5.3247;0.2037;-0.1981;-0.1479
0001213015;-3.0933;-4.9871;5.5785;0.1382;-0.2092;-0.1576
0001213027;-3.0622;-4.3215;5.8155;0.0141;-0.1857;-0.1865
0001213035;-3.0646;-4.1156;5.5952;-0.0789;-0.1616;-0.2205
0001213043;-2.7485;-4.3718;5.4372;-0.1612;-0.1537;-0.2653
0001213054;-2.2553;-4.9153;5.0661;-0.2459;-0.1378;-0.2926
0001213062;-1.9896;-5.5929;4.8842;-0.2850;-0.1254;-0.2991
0001213074;-1.6712;-6.5817;4.5633;-0.3095;-0.0867;-0.2705
0001213082;-1.5275;-7.2736;4.4269;-0.2959;-0.0610;-0.2447
0001213093;-1.6640;-7.7189;4.2521;-0.2465;-0.0441;-0.1972
0001213101;-1.8651;-8.0421;4.2617;-0.2052;-0.0512;-0.1641
0001213113;-2.0255;-7.9895;4.0630;-0.1256;-0.0821;-0.1118
0001213121;-1.9106;-7.6758;4.1084;-0.0707;-0.1238;-0.0747
0001213189;-2.7150;-5.4564;4.9919;-0.0719;-0.1314;-0.0222
0001213197;-2.7390;-5.4588;5.0230;-0.0951;-0.1243;-0.0442
0001213209;-2.2290;-5.6767;4.9009;-0.1356;-0.0819;-0.0582
0001213217;-2.0518;-5.9328;4.7764;-0.1507;-0.0526;-0.0588
0001213225;-1.9106;-6.1244;4.7166;-0.1514;-0.0297;-0.0520
0001213236;-1.7813;-6.3782;4.5753;-0.1430;-0.0309;-0.0365
0001213244;-1.6903;-6.7493;4.4556;-0.1363;-0.0308;-0.0137
0001213256;-1.5658;-6.6559;4.5250;-0.1179;-0.0200;0.0173
0001213264;-1.6209;-6.7373;4.6017;-0.1074;0.0011;0.0278
0001213275;-2.0638;-6.7708;4.6376;-0.0926;0.0269;0.0250
0001213283;-2.3224;-6.8259;4.6448;-0.0899;0.0183;0.0136
0001213295;-2.7366;-6.8331;4.7932;-0.0873;-0.0013;-0.0093
0001213303;-2.7390;-6.6679;4.9368;-0.0869;-0.0185;-0.0209
0001213314;-2.6552;-6.3303;4.9129;-0.0810;-0.0433;-0.0288
0001213322;-2.3990;-6.2944;4.8746;-0.0922;-0.0502;-0.0324
0001213330;-2.2960;-6.2489;4.9632;-0.1006;-0.0490;-0.0344
0001213342;-2.2793;-6.4165;4.8267;-0.1164;-0.0354;-0.0306
0001213350;-1.8627;-6.2824;4.7190;-0.1286;-0.0377;-0.0340
0001213361;-2.0830;-6.3805;4.7501;-0.1331;-0.0369;-0.0362
0001213369;-1.9561;-6.7181;4.7501;-0.1380;-0.0337;-0.0360
0001213381;-2.0542;-6.6774;4.7836;-0.1223;-0.0273;-0.0434
0001213389;-2.3080;-6.8402;4.8674;-0.1163;-0.0183;-0.0422
0001213457;-2.5115;-6.7660;5.0230;-0.0520;-0.0470;-0.0771
0001213465;-2.3511;-6.7397;5.0015;-0.0448;-0.0473;-0.0655
0001213477;-2.0782;-6.6774;5.0398;-0.0342;-0.0402;-0.0509
0001213485;-2.3559;-6.8307;5.1787;-0.0261;-0.0392;-0.0462
0001213496;-2.2505;-6.6846;5.0374;-0.0203;-0.0337;-0.0378
0001213504;-2.2146;-6.7205;5.0925;-0.0249;-0.0308;-0.0329
0001213512;-2.1189;-6.6128;5.0613;-0.0254;-0.0318;-0.0334
0001213524;-2.1715;-6.6104;5.1643;-0.0238;-0.0377;-0.0408
0001213532;-2.0614;-6.5457;5.0949;-0.0165;-0.0388;-0.0446
0001213543;-1.9776;-6.5003;5.1284;-0.0285;-0.0284;-0.0502
0001213551;-1.8866;-6.4572;5.1116;-0.0272;-0.0212;-0.0597
0001213563;-1.8076;-6.3351;4.9560;-0.0438;-0.0088;-0.0710
0001213571;-1.8555;-6.3303;4.8076;-0.0650;-0.0007;-0.0855
0001213582;-1.8196;-6.2082;4.7812;-0.0771;0.0016;-0.1123
0001213590;-1.6975;-6.0190;4.7238;-0.0937;0.0099;-0.1251
0001213602;-1.7837;-6.2608;4.7070;-0.1276;0.0273;-0.1518
0001213610;-2.0231;-6.2920;4.5993;-0.1447;0.0464;-0.1707
0001213621;-1.9273;-5.9448;4.5873;-0.1728;0.0731;-0.1903
0001213629;-1.9106;-5.7652;4.4077;-0.1941;0.0910;-0.2042
0001213637;-2.2338;-5.9017;4.3646;-0.2138;0.0959;-0.2188
0001213649;-2.5163;-5.9616;4.2832;-0.2413;0.1096;-0.2229
0001213657;-2.5379;-5.9711;4.1683;-0.2483;0.1140;-0.2234
0001213725;-3.4309;-6.1938;4.3527;-0.3067;0.0970;0.0713
0001213733;-3.6224;-6.4045;4.3311;-0.3055;0.0685;0.0995
0001213745;-3.3710;-6.2393;4.3981;-0.2928;0.0441;0.1462
0001213753;-3.1651;-6.3686;4.4652;-0.2879;0.0346;0.1665
0001213764;-3.0933;-6.6176;4.5107;-0.2577;0.0278;0.1982
0001213772;-2.9161;-6.7181;4.5107;-0.2348;0.0261;0.2044
0001213780;-2.7892;-6.9192;4.3958;-0.2100;0.0248;0.2006
0001213792;-2.5091;-6.9145;4.4077;-0.1724;0.0286;0.1897
0001213800;-2.5762;-6.9719;4.2569;-0.1491;0.0342;0.1684
0001213811;-2.5546;-6.7780;4.2545;-0.1319;0.0408;0.1383
0001213819;-2.3535;-6.5170;4.2713;-0.1206;0.0392;0.1144
0001213831;-2.6456;-6.3949;4.2210;-0.1140;0.0332;0.0874
0001213839;-2.6600;-6.1699;4.3646;-0.1127;0.0179;0.0701
0001213850;-2.9281;-6.3063;4.4748;-0.1204;-0.0031;0.0457
0001213858;-3.1077;-6.5027;4.6280;-0.1059;-0.0218;0.0212
0001213866;-3.0622;-6.6248;4.5442;-0.1075;-0.0457;0.0088
0001213878;-2.9808;-6.6511;4.5681;-0.0957;-0.0897;-0.0195
0001213886;-2.7126;-6.5960;4.7070;-0.0849;-0.1090;-0.0306
0001213897;-2.8180;-6.8067;4.9632;-0.0586;-0.1500;-0.0481
0001213905;-2.6217;-6.9671;4.7764;-0.0428;-0.1621;-0.0592
0001213917;-2.3296;-6.7660;4.6639;-0.0497;-0.1711;-0.0702
0001213925;-2.3056;-7.0581;4.8171;-0.0488;-0.1761;-0.0734
0001213993;-2.7102;-6.6702;4.8243;-0.0655;-0.0394;0.0040
0001214001;-2.9305;-6.7708;4.8722;-0.0556;-0.0348;0.0159
0001214013;-3.0718;-6.8690;4.7932;-0.0398;-0.0489;0.0594
0001214021;-3.0191;-6.7205;4.8459;-0.0248;-0.0687;0.0871
0001214032;-2.6432;-6.6631;4.7046;-0.0240;-0.0827;0.1196
0001214040;-2.2410;-6.3997;4.6471;-0.0344;-0.0730;0.1452
0001214048;-1.8411;-6.0789;4.6352;-0.0494;-0.0641;0.1552
0001214060;-1.8435;-5.9041;4.5897;-0.0917;-0.0318;0.1531
0001214068;-1.9225;-5.9640;4.5801;-0.1247;-0.0163;0.1386
0001214079;-2.0351;-5.5330;4.6160;-0.1740;0.0200;0.1475
0001214087;-1.9609;-5.6671;4.6304;-0.1972;0.0329;0.1495
0001214099;-2.5426;-6.2656;4.6064;-0.2409;0.0540;0.1543
0001214107;-2.4325;-6.4141;4.6926;-0.2475;0.0769;0.1631
0001214118;-2.7988;-7.1180;4.6615;-0.2261;0.0622;0.1872
0001214126;-3.2106;-7.6303;4.9488;-0.1795;0.0428;0.2130
0001214134;-3.5769;-7.9942;4.9656;-0.1235;0.0240;0.2487
0001214146;-3.8882;-8.2241;5.0709;-0.0112;-0.0458;0.3064
0001214154;-3.7206;-8.1570;5.0039;0.0770;-0.1134;0.3308
0001214165;-3.0167;-7.5489;4.8818;0.1483;-0.1704;0.3505
0001214173;-2.4134;-7.0629;4.8291;0.1896;-0.1895;0.3415
0001214185;-1.7669;-6.4428;4.8076;0.1868;-0.1687;0.3375
0001214193;-1.2522;-5.9759;4.7309;0.1659;-0.1375;0.3407
0001214261;-2.5642;-6.2465;4.8507;-0.1290;-0.0143;0.6643
0001214269;-2.4684;-6.4715;4.9368;-0.1432;-0.0377;0.6730
0001214277;-2.7725;-6.8498;5.0182;-0.1563;-0.0520;0.6731
0001214289;-2.2984;-6.6152;5.0661;-0.1584;-0.0673;0.6718
0001214297;-2.0231;-6.4811;5.0685;-0.1539;-0.0665;0.6783
0001214308;-1.7454;-6.1818;4.9919;-0.1608;-0.0489;0.6680
0001214316;-1.5658;-6.2010;4.9823;-0.1759;-0.0159;0.6723
0001214328;-1.3455;-5.9687;4.8411;-0.2105;0.0389;0.6724
0001214336;-1.0415;-5.6838;4.7908;-0.2422;0.0681;0.6772
0001214348;-1.3144;-5.7317;4.6831;-0.2966;0.0990;0.6936
0001214356;-1.2617;-5.6383;4.6352;-0.3239;0.1339;0.7314
0001214367;-1.5395;-5.5019;4.3048;-0.3353;0.1640;0.8014
0001214375;-2.0159;-5.7628;4.2018;-0.3317;0.1635;0.8408
0001214383;-2.1189;-5.7509;3.8786;-0.3216;0.1528;0.8791
0001214395;-2.4636;-6.1100;3.7206;-0.3023;0.1254;0.9013
0001214403;-2.6647;-6.1076;3.5889;-0.2868;0.1196;0.8837
0001214414;-2.8802;-5.8395;3.4836;-0.2622;0.1042;0.8146
0001214422;-3.2705;-5.6144;3.6033;-0.2491;0.1139;0.7512
0001214434;-3.8116;-5.4109;3.7661;-0.2434;0.1276;0.6271
0001214442;-3.8882;-5.2720;3.7948;-0.2590;0.1348;0.5558
0001214510;-3.2513;-5.4851;3.9049;-0.3928;0.0962;0.2398
0001214518;-3.2346;-5.7317;4.0366;-0.4089;0.1018;0.2318
0001214526;-3.2298;-5.6072;4.0031;-0.4235;0.1014;0.2348
0001214538;-3.2896;-5.4181;4.1108;-0.4453;0.0823;0.2474
0001214546;-3.3998;-5.3223;4.1827;-0.4647;0.0633;0.2589
0001214557;-2.9568;-5.3079;4.2473;-0.4806;0.0320;0.2615
0001214565;-3.2394;-5.6431;4.1946;-0.5051;0.0228;0.2655
0001214577;-2.8204;-5.4995;4.1372;-0.5149;-0.0004;0.2658
0001214585;-2.7821;-5.7174;4.1132;-0.5232;-0.0056;0.2598
0001214596;-2.6863;-5.6575;4.1899;-0.5288;-0.0136;0.2610
0001214604;-2.7222;-5.8179;4.2162;-0.5203;-0.0208;0.2529
0001214612;-2.5307;-5.8945;4.1683;-0.5179;-0.0209;0.2503
0001214624;-2.5929;-5.8921;4.3000;-0.5036;-0.0328;0.2483
0001214632;-2.5618;-6.0358;4.2737;-0.4908;-0.0298;0.2506
0001214643;-2.4014;-5.9855;4.2545;-0.4683;-0.0401;0.2410
0001214651;-2.4038;-6.0430;4.2138;-0.4535;-0.0324;0.2342
0001214663;-2.4134;-6.0382;4.1539;-0.4251;-0.0191;0.2249
0001214671;-2.2649;-6.1555;4.0390;-0.4004;-0.0072;0.2146
0001214682;-2.2386;-5.9879;4.0725;-0.3710;0.0265;0.2214
0001214690;-2.1572;-6.0023;4.0055;-0.3481;0.0405;0.2196
0001214702;-2.3487;-6.3183;4.0175;-0.3199;0.0644;0.2230
0001214710;-2.2434;-6.0717;4.0534;-0.3032;0.0602;0.2217
0001214718;-2.4493;-6.2608;4.0797;-0.2791;0.0642;0.2190
0001214784;-2.0782;-6.1938;4.2569;-0.1228;0.0837;0.1917
0001214792;-2.2122;-6.1411;4.3072;-0.1049;0.0850;0.1756
0001214804;-2.0446;-6.1244;4.2952;-0.0773;0.0829;0.1216
0001214812;-1.8771;-6.0837;4.2593;-0.0625;0.0878;0.0935
0001214823;-1.9848;-6.1842;4.4197;-0.0381;0.0773;0.0697
0001214831;-2.0351;-6.1483;4.4580;-0.0281;0.0714;0.0666
0001214843;-2.4157;-6.2034;4.5083;-0.0048;0.0424;0.0496
0001214851;-2.4972;-6.0597;4.4341;-0.0031;0.0173;0.0572
0001214859;-2.5809;-5.9400;4.4293;0.0136;-0.0226;0.0518
0001214870;-2.6456;-5.6790;4.4388;0.0117;-0.0644;0.0454
0001214878;-2.6743;-5.6072;4.5107;0.0208;-0.1002;0.0280
0001214890;-2.4205;-5.6719;4.2497;0.0393;-0.1175;-0.0160
0001214898;-2.3822;-5.6886;4.1348;0.0638;-0.1059;-0.0545
0001214909;-2.1141;-5.8945;4.0606;0.1055;-0.0802;-0.0902
0001214917;-2.1141;-6.1962;3.9361;0.1525;-0.0825;-0.1164
0001214929;-1.9848;-6.6176;3.6440;0.2032;-0.0909;-0.1495
0001214937;-1.9632;-6.8354;3.6512;0.2491;-0.0979;-0.1627
0001214945;-1.8651;-6.8761;3.5099;0.2759;-0.0931;-0.1434
0001214956;-1.8603;-6.5529;3.5985;0.3240;-0.0683;-0.0982
0001214964;-2.1117;-6.2153;3.8188;0.3592;-0.0617;-0.0592
0001214976;-2.6240;-5.6814;4.0582;0.3982;-0.0779;-0.0051
0001214984;-2.9137;-5.4133;4.1132;0.3693;-0.1079;0.0021
0001215051;-1.6975;-5.4324;3.9073;0.2907;-0.2120;-0.0025
0001215059;-1.9585;-5.9017;4.0007;0.3028;-0.2226;0.0545
0001215071;-1.9441;-6.0597;4.2689;0.3182;-0.2699;0.1166
0001215079;-1.9297;-6.0286;4.2066;0.3175;-0.2931;0.1342
0001215090;-1.9561;-5.7317;4.3215;0.2895;-0.3336;0.1302
0001215098;-1.8459;-5.4564;4.5011;0.2573;-0.3489;0.1139
0001215106;-1.7502;-5.1643;4.6424;0.2232;-0.3619;0.0941
0001215118;-1.4653;-4.8028;4.6376;0.2156;-0.3882;0.0755
0001215126;-1.4293;-5.0949;4.5729;0.2104;-0.3897;0.0845
0001215137;-0.9026;-5.2361;4.3981;0.2318;-0.3688;0.1288
0001215145;-0.6823;-5.5402;4.4532;0.2498;-0.3347;0.1743
0001215157;-0.4764;-5.7533;4.3191;0.2964;-0.2874;0.2483
0001215165;-0.5219;-6.0813;4.1922;0.3368;-0.2567;0.2984
0001215176;-0.6752;-6.3877;3.9887;0.3958;-0.2278;0.3539
0001215184;-0.8643;-6.6080;4.0031;0.4403;-0.2156;0.3822
0001215192;-0.9768;-6.4404;4.1300;0.4840;-0.2449;0.4020
0001215204;-1.6759;-6.4260;4.2401;0.5395;-0.3000;0.4414
0001215212;-2.0016;-5.8538;4.2329;0.5568;-0.3472;0.4407
0001215223;-1.9609;-5.0422;4.2377;0.5774;-0.3949;0.3966
0001215231;-1.8172;-5.1811;4.3335;0.5975;-0.3870;0.3753
0001215243;-1.3264;-5.1116;4.7046;0.5991;-0.3653;0.3246
0001215251;-1.4126;-4.5969;4.7669;0.5624;-0.3728;0.2450
0001215318;-1.5131;-3.2825;5.6527;0.3204;-0.3172;-0.0827
0001215326;-0.7254;-2.9640;5.5138;0.3172;-0.3046;-0.0529
0001215334;-0.4956;-3.2513;5.4253;0.3122;-0.2414;-0.0402
0001215346;-0.2227;-3.1915;5.3271;0.3087;-0.1547;-0.0392
0001215354;-0.5052;-3.1771;5.3391;0.2955;-0.0883;-0.0673
0001215365;-1.1396;-2.7892;5.6360;0.2722;-0.0584;-0.1439
0001215373;-2.3631;-2.3607;5.9472;0.2525;-0.0529;-0.2144
0001215385;-3.6559;-1.4653;5.9831;0.2113;-0.0562;-0.3600
0001215393;-4.3934;-1.3048;6.0837;0.1713;-0.0621;-0.4630
0001215404;-4.8554;-1.1636;6.3111;0.1131;-0.0396;-0.6022
0001215412;-4.9775;-1.6424;6.1890;0.0909;-0.0392;-0.6783
0001215424;-4.3167;-2.6767;5.7604;0.1001;-0.0382;-0.7258
0001215432;-3.6081;-3.5338;5.4205;0.1339;-0.0422;-0.6992
0001215440;-2.7366;-4.2641;5.1427;0.1635;-0.0237;-0.6475
0001215451;-1.7621;-4.6902;4.7621;0.2193;-0.0228;-0.5933
0001215459;-1.6041;-4.6902;4.6017;0.2344;-0.0246;-0.5457
0001215471;-1.9297;-3.8307;4.6615;0.1988;-0.0767;-0.5228
0001215479;-2.3559;-2.9784;4.8890;0.1514;-0.1029;-0.5289
0001215490;-2.9185;-2.1620;4.9560;0.0771;-0.0998;-0.5469
0001215498;-3.0885;-1.6664;4.7788;0.0234;-0.0885;-0.5708
0001215510;-2.7797;-1.6616;4.5681;-0.1006;-0.0544;-0.5829
0001215518;-2.5929;-2.2434;4.4173;-0.1700;-0.0510;-0.5778
0001215586;-3.8954;-4.5825;4.7333;-0.3465;-0.0300;-0.1118
0001215594;-3.4548;-4.2353;4.6615;-0.3403;-0.0798;-0.0945
0001215602;-2.9640;-4.0031;4.6783;-0.3613;-0.0965;-0.0897
0001215614;-2.2434;-3.8714;4.8530;-0.3853;-0.0861;-0.1286
0001215622;-1.9609;-3.9935;4.8626;-0.3969;-0.0313;-0.1418
0001215633;-1.9201;-4.0462;4.8435;-0.3986;0.0464;-0.1743
0001215641;-2.2960;-4.2042;4.5586;-0.4052;0.0789;-0.1701
0001215653;-2.8994;-4.5753;4.5681;-0.4104;0.0421;-0.1553
0001215661;-2.9975;-4.4891;4.7980;-0.4073;0.0045;-0.1411
0001215672;-3.0358;-4.2713;4.9177;-0.4065;-0.0397;-0.1210
0001215680;-2.8156;-4.2760;4.9991;-0.4121;-0.0461;-0.1018
0001215692;-2.3320;-4.1946;4.9009;-0.4291;-0.0304;-0.0853
0001215700;-1.8603;-4.0270;4.9129;-0.4483;-0.0097;-0.0818
0001215708;-1.9417;-4.3910;4.6615;-0.4808;0.0312;-0.0739
0001215720;-1.8842;-4.4628;4.7166;-0.5368;0.0763;-0.0882
0001215728;-1.9800;-4.4436;4.6687;-0.5738;0.0967;-0.0971
0001215739;-2.2075;-4.6160;4.6567;-0.6170;0.1067;-0.1168
0001215747;-2.1117;-4.8171;4.5538;-0.6297;0.1278;-0.1131
0001215759;-2.1835;-5.1068;4.4436;-0.6122;0.1531;-0.1007
0001215767;-2.2338;-5.5402;4.4436;-0.5949;0.1735;-0.0885
0001215779;-2.2505;-5.7868;4.4029;-0.5770;0.2080;-0.0657
0001215787;-2.3343;-5.7126;4.4077;-0.5654;0.2221;-0.0580
0001215855;-1.9225;-5.7485;4.2976;-0.4763;0.4586;-0.0938
0001215863;-2.1715;-5.9855;4.2210;-0.4732;0.4644;-0.1075
0001215871;-2.4181;-5.9328;4.2449;-0.4627;0.4592;-0.1200
0001215882;-2.8730;-6.1603;4.2976;-0.4518;0.4153;-0.1147
0001215890;-3.0550;-6.1148;4.3311;-0.4463;0.3858;-0.1092
0001215902;-2.9449;-5.9400;4.1851;-0.4201;0.3365;-0.0927
0001215910;-2.9712;-5.9664;4.2593;-0.4082;0.3167;-0.0861
0001215921;-2.7414;-5.8227;4.3838;-0.4061;0.2988;-0.0921
0001215929;-2.8276;-5.7868;4.3311;-0.4098;0.2882;-0.1013
0001215941;-2.6217;-5.7365;4.3311;-0.4073;0.2887;-0.1159
0001215949;-2.4612;-5.7245;4.2521;-0.4109;0.3015;-0.1144
0001215960;-2.6360;-5.7892;4.1875;-0.4084;0.3022;-0.1288
0001215968;-2.8012;-5.8897;4.2904;-0.4121;0.3036;-0.1340
0001215976;-2.6217;-5.8059;4.3072;-0.4126;0.3043;-0.1396
0001215988;-2.7533;-6.1483;4.4412;-0.3974;0.2892;-0.1455
0001215996;-2.6193;-6.0765;4.3311;-0.3868;0.2828;-0.1386
0001216007;-2.5833;-6.1411;4.3311;-0.3645;0.2729;-0.1395
0001216015;-2.6959;-6.2417;4.3239;-0.3527;0.2737;-0.1291
0001216027;-2.7102;-6.2153;4.2808;-0.3299;0.2613;-0.1183
0001216035;-2.6935;-6.2058;4.2665;-0.3230;0.2585;-0.1026
0001216047;-2.8802;-6.2800;4.3407;-0.3052;0.2527;-0.0878
0001216055;-2.8539;-6.1914;4.3622;-0.2971;0.2443;-0.0826
0001216123;-2.9305;-5.4492;4.4963;-0.3920;0.0735;0.0230
0001216131;-2.7940;-5.2529;4.6256;-0.4278;0.0584;0.0329
0001216139;-2.8156;-5.4684;4.5418;-0.4659;0.0461;0.0404
0001216150;-2.7509;-5.5665;4.4796;-0.5073;0.0300;0.0622
0001216158;-2.6121;-5.5282;4.4652;-0.5433;0.0274;0.0879
0001216170;-2.3679;-5.6599;4.3814;-0.5942;0.0425;0.1220
0001216178;-2.4445;-5.7652;4.3215;-0.6229;0.0494;0.1506
0001216190;-2.3439;-5.7533;4.1827;-0.6498;0.0646;0.1825
0001216198;-2.4134;-5.8035;4.1922;-0.6680;0.0705;0.1864
0001216210;-2.2458;-5.6958;4.1420;-0.6960;0.0889;0.1893
0001216218;-2.7629;-6.0071;4.2377;-0.7049;0.0827;0.1871
0001216226;-2.8754;-5.9352;4.1922;-0.7224;0.0791;0.1893
0001216237;-3.1244;-6.0023;4.2162;-0.7362;0.0530;0.1933
0001216245;-3.0885;-6.0214;4.2521;-0.7448;0.0344;0.2005
0001216257;-2.8826;-5.8993;4.1228;-0.7631;0.0161;0.2034
0001216265;-3.1149;-6.1603;4.0797;-0.7677;0.0131;0.2040
0001216276;-2.8180;-6.1459;3.9983;-0.7682;0.0246;0.2042
0001216284;-2.9233;-6.2297;3.9720;-0.7674;0.0324;0.2089
0001216296;-2.9592;-6.3446;4.1013;-0.7654;0.0338;0.1913
0001216304;-3.0358;-6.3327;4.0390;-0.7584;0.0297;0.1875
0001216312;-3.1292;-6.4596;4.0893;-0.7548;0.0208;0.1933
0001216324;-2.9784;-6.4835;4.1156;-0.7352;-0.0057;0.1923
0001216332;-2.9736;-6.6391;4.1180;-0.7256;-0.0203;0.1962
0001216400;-2.8754;-6.1890;3.7613;-0.7433;-0.0318;0.2289
0001216408;-3.0430;-6.3255;3.8906;-0.7512;-0.0308;0.2342
0001216420;-3.3375;-6.3039;3.7781;-0.7651;-0.0417;0.2433
0001216428;-3.0143;-6.1316;3.7852;-0.7813;-0.0554;0.2487
0001216440;-2.9712;-6.0885;3.7206;-0.8076;-0.0726;0.2578
0001216448;-3.0813;-6.1770;3.7709;-0.8296;-0.0737;0.2658
0001216460;-2.9425;-5.9472;3.7254;-0.8719;-0.0733;0.2819
0001216468;-2.9521;-5.8227;3.7062;-0.8970;-0.0750;0.2871
0001216476;-3.1005;-5.9999;3.7062;-0.9276;-0.0714;0.2892
0001216488;-3.3615;-6.1794;3.6775;-0.9619;-0.0742;0.2967
0001216496;-3.4644;-6.3542;3.6823;-0.9670;-0.0857;0.2998
0001216508;-3.5171;-6.6990;3.7230;-0.9522;-0.1174;0.2983
0001216516;-3.4692;-6.8594;3.6559;-0.9371;-0.1219;0.3055
0001216528;-3.2753;-7.0485;3.5362;-0.9092;-0.1719;0.2839
0001216536;-3.0047;-7.1204;3.5147;-0.8899;-0.1680;0.2799
0001216547;-2.8994;-7.0342;3.6057;-0.8593;-0.1651;0.2634
0001216555;-2.7845;-6.9623;3.6272;-0.8392;-0.1577;0.2511
0001216567;-2.9305;-6.9240;3.4788;-0.8051;-0.1653;0.2204
0001216575;-2.9856;-6.7301;3.7565;-0.7782;-0.1496;0.2117
0001216583;-2.8706;-6.5888;3.6392;-0.7622;-0.1716;0.1933
0001216595;-3.1699;-6.9743;3.6703;-0.7308;-0.1888;0.1589
0001216603;-2.9832;-6.9336;3.8020;-0.7149;-0.1837;0.1448
0001216671;-2.6767;-6.7349;3.9648;-0.5055;-0.1724;0.0621
0001216679;-2.5426;-6.7014;3.9480;-0.4868;-0.1664;0.0570
0001216690;-2.6408;-6.6774;3.8858;-0.4674;-0.1402;0.0616
0001216698;-2.6528;-6.4715;3.7373;-0.4579;-0.1504;0.0454
0001216710;-2.6073;-6.5888;3.7278;-0.4497;-0.1395;0.0362
0001216718;-2.4900;-6.6870;3.7086;-0.4351;-0.1268;0.0357
0001216726;-2.4948;-6.8115;3.6990;-0.4350;-0.1164;0.0349
0001216737;-2.5594;-6.9168;3.7589;-0.4237;-0.1055;0.0373
0001216745;-2.6935;-7.0102;3.8762;-0.4231;-0.0915;0.0522
0001216757;-2.9329;-7.2377;3.8618;-0.4125;-0.0877;0.0562
0001216765;-3.0023;-7.1443;3.9241;-0.4097;-0.0818;0.0683
0001216776;-3.1532;-7.1467;3.9433;-0.3934;-0.0890;0.0726
0001216784;-3.1412;-7.1587;4.0438;-0.3880;-0.0822;0.0786
0001216796;-2.9305;-7.0485;4.0582;-0.3685;-0.0817;0.0845
0001216804;-2.8850;-7.2281;4.0199;-0.3453;-0.0782;0.0845
0001216815;-2.8060;-7.1587;3.9863;-0.3219;-0.0659;0.0867
0001216823;-2.6743;-7.1826;3.9672;-0.2872;-0.0722;0.0735
0001216831;-2.7701;-7.2903;3.9768;-0.2563;-0.0739;0.0658
0001216843;-2.9090;-7.4340;3.8738;-0.2118;-0.0763;0.0481
0001216851;-2.8419;-7.4388;3.8858;-0.1689;-0.0911;0.0242
0001216863;-2.8084;-7.4029;3.9720;-0.1138;-0.0990;-0.0222
0001216871;-2.8347;-7.4029;4.0294;-0.0671;-0.0974;-0.0586
0001216939;-2.9257;-7.6040;4.1300;0.2553;-0.1347;-0.3000
0001216947;-2.6959;-7.4986;4.0749;0.2771;-0.1362;-0.3056
0001216959;-2.2697;-6.9384;3.9528;0.2862;-0.1304;-0.3219
0001216967;-2.0782;-6.5912;3.7254;0.2727;-0.1120;-0.3328
0001216979;-2.2601;-6.2680;3.8355;0.1978;-0.0588;-0.3035
0001216987;-2.7557;-6.5027;3.8882;0.1512;-0.0314;-0.2529
0001216995;-3.3088;-6.7684;4.1635;0.1204;-0.0232;-0.1831
0001217007;-3.5003;-7.1323;4.3144;0.0979;-0.0306;-0.0710
0001217015;-3.8164;-7.5298;4.3814;0.1079;-0.0546;-0.0282
0001217027;-3.2370;-7.5992;4.2258;0.1250;-0.0857;-0.0004
0001217035;-2.8491;-7.5633;4.0247;0.1336;-0.0957;-0.0057
0001217047;-2.5594;-7.6064;4.0175;0.1559;-0.1049;-0.0344
0001217055;-2.4157;-7.5322;3.9480;0.1564;-0.0995;-0.0558
0001217067;-2.3176;-7.5154;3.8523;0.1689;-0.0947;-0.1092
0001217075;-2.4014;-7.3382;3.9265;0.1695;-0.0843;-0.1312
0001217087;-2.8419;-7.3789;4.0294;0.1776;-0.0831;-0.1545
0001217095;-2.6552;-7.2401;4.0223;0.1757;-0.0866;-0.1647
0001217103;-2.8347;-7.4029;3.9145;0.1797;-0.0977;-0.1775
0001217115;-2.9784;-7.5585;4.0270;0.1929;-0.1212;-0.2065
0001217123;-2.7964;-7.5465;4.1084;0.2054;-0.1408;-0.2197
0001217135;-2.6959;-7.4053;4.0342;0.2141;-0.1507;-0.2398
0001217143;-2.6504;-7.2951;4.1922;0.2100;-0.1459;-0.2384
0001217211;-2.6719;-7.0270;4.0079;0.1022;-0.1191;-0.1207
0001217219;-2.4876;-7.1108;3.9600;0.1075;-0.1022;-0.1226
0001217231;-2.4565;-7.3670;3.8810;0.1047;-0.0733;-0.1286
0001217239;-2.4900;-7.3406;3.9624;0.1114;-0.0633;-0.1372
0001217251;-2.3679;-7.2880;3.8954;0.1131;-0.0333;-0.1382
0001217259;-2.4852;-7.2712;3.8834;0.1148;-0.0317;-0.1415
0001217267;-2.6863;-7.4460;3.8595;0.1103;-0.0224;-0.1276
0001217279;-2.3655;-7.1180;3.8116;0.1140;-0.0164;-0.1042
0001217287;-2.2913;-7.0653;3.7804;0.1098;-0.0081;-0.0891
0001217299;-2.1979;-6.9480;3.9361;0.1199;-0.0020;-0.0649
0001217307;-2.0470;-6.8905;3.9313;0.1270;0.0097;-0.0632
0001217319;-2.0925;-6.8474;3.9863;0.1399;0.0077;-0.1054
0001217327;-2.2362;-7.1347;3.9887;0.1390;0.0011;-0.1358
0001217339;-2.2434;-7.2449;3.8930;0.1324;-0.0209;-0.1681
0001217347;-2.2889;-7.2856;3.9193;0.1244;-0.0289;-0.1692
0001217355;-2.1644;-7.1778;3.9049;0.1178;-0.0485;-0.1711
0001217367;-1.9441;-7.0868;4.0965;0.0975;-0.0675;-0.1575
0001217375;-1.4772;-6.8833;4.2042;0.0775;-0.0678;-0.1327
0001217387;-1.3647;-6.9504;4.0247;0.0508;-0.0783;-0.0953
0001217395;-1.1612;-6.6559;4.1013;0.0338;-0.0835;-0.0703
0001217407;-0.9625;-6.7804;4.0989;0.0192;-0.1042;-0.0545
0001217415;-0.9697;-6.9480;4.2162;0.0113;-0.1211;-0.0456
0001217483;-1.0104;-8.9256;2.7078;0.2995;0.1688;-0.4207
0001217491;-1.7190;-9.0453;2.8323;0.3415;0.2000;-0.4740
0001217503;-2.2769;-8.7436;2.9090;0.3966;0.1965;-0.5132
0001217511;-2.7102;-8.2935;3.1651;0.4098;0.1741;-0.5227
0001217519;-2.7605;-7.5753;3.3471;0.4153;0.1316;-0.5468
0001217531;-3.3447;-6.9647;3.4979;0.4061;0.0658;-0.5704
0001217539;-3.3543;-6.5481;3.6823;0.3821;0.0207;-0.5848
0001217551;-3.0622;-6.3303;3.9241;0.3444;-0.0690;-0.6182
0001217559;-2.7438;-6.2513;3.9552;0.3071;-0.1120;-0.6282
0001217571;-2.2027;-7.1156;3.7517;0.2626;-0.1711;-0.6098
0001217579;-1.5227;-7.3143;3.6655;0.2601;-0.1895;-0.5530
0001217591;-0.5674;-7.7117;3.3112;0.2839;-0.1312;-0.4562
0001217599;-0.1173;-7.8003;3.1149;0.3300;-0.0600;-0.3890
0001217610;-0.2729;-7.7045;2.9209;0.3976;0.0349;-0.3303
0001217618;-0.6656;-7.7093;2.7940;0.4151;0.0831;-0.3059
0001217626;-1.3647;-7.8650;3.0263;0.4314;0.1077;-0.2990
0001217638;-1.9465;-7.7572;3.5362;0.4863;0.0719;-0.2809
0001217646;-2.0327;-7.6854;3.6631;0.5168;0.0285;-0.2595
0001217658;-2.1428;-7.8697;3.8331;0.5353;-0.0013;-0.2274
0001217666;-1.5467;-7.5872;4.1755;0.5376;0.0250;-0.2166
0001217678;-1.4653;-7.5154;4.7597;0.5534;0.1057;-0.1498
0001217686;-1.8579;-7.6974;4.9536;0.5737;0.1459;-0.0709
0001217754;-2.5402;-8.0972;5.6024;0.9451;0.3628;-0.0831
0001217762;-2.3320;-7.6255;5.4636;0.9338;0.3757;-0.1522
0001217770;-1.9800;-7.2496;5.2792;0.9160;0.3796;-0.2109
0001217782;-2.0997;-7.3430;4.9512;0.8736;0.3888;-0.2434
0001217790;-2.0207;-7.2257;4.8626;0.8783;0.3925;-0.2443
0001217802;-2.5450;-7.4675;4.9201;0.9487;0.3924;-0.2149
0001217810;-3.2920;-7.7213;4.8363;1.0156;0.3802;-0.1888
0001217822;-4.9249;-8.6311;4.9704;1.1694;0.2719;-0.1432
0001217830;-6.3614;-9.6630;5.0949;1.2829;0.1847;-0.0931
0001217842;-7.5130;-10.4746;5.3510;1.4667;0.1174;0.0261
0001217850;-8.1451;-10.5608;5.0661;1.5434;0.1027;0.1090
0001217858;-7.9009;-9.6391;4.6543;1.5898;0.0714;0.1628
0001217870;-6.6248;-6.8953;4.4365;1.5046;-0.0376;0.1484
0001217878;-5.6982;-5.3582;4.8387;1.4043;-0.1168;0.1053
0001217890;-4.5753;-3.5458;5.0853;1.2244;-0.1657;0.0474
0001217898;-4.2234;-3.1843;5.3750;1.0881;-0.1719;0.0234
0001217910;-3.8427;-3.3734;5.4420;0.8962;-0.1897;-0.0218
0001217918;-3.8283;-4.1803;5.5115;0.8120;-0.2034;-0.0469
0001217930;-4.0294;-5.5905;5.4684;0.7260;-0.2173;-0.0594
0001217938;-4.2138;-6.5338;5.2864;0.7293;-0.2465;-0.0566
0001217946;-4.1396;-7.2736;5.1787;0.7454;-0.2625;-0.0502
0001217958;-3.6152;-7.5082;5.0278;0.8167;-0.2952;-0.0446
0001217966;-3.4524;-7.2616;5.0374;0.8573;-0.3030;-0.0344
0001218035;-3.2034;-5.6431;4.7692;0.6265;-0.0671;-0.1255
0001218044;-3.1603;-5.8873;4.8243;0.5830;-0.0452;-0.1511
0001218057;-2.9185;-5.8634;4.6160;0.5328;-0.0269;-0.1799
0001218066;-2.6647;-5.8371;4.5083;0.5136;-0.0193;-0.1937
0001218079;-2.4780;-5.7317;4.4819;0.4779;0.0168;-0.1880
0001218088;-2.6767;-5.7772;4.3718;0.4610;0.0348;-0.1769
0001218101;-2.6791;-5.7126;4.3958;0.4275;0.0661;-0.1443
0001218110;-2.7964;-5.7844;4.2737;0.4049;0.0790;-0.1144
0001218119;-2.8132;-5.8969;4.2401;0.3989;0.0787;-0.0845
0001218132;-2.9209;-6.0980;4.2329;0.3810;0.0596;-0.0473
0001218141;-2.8108;-6.1746;4.1563;0.3684;0.0457;-0.0321
0001218154;-2.7174;-6.1770;4.1851;0.3533;0.0386;-0.0216
0001218163;-2.4205;-5.9783;4.1037;0.3407;0.0195;-0.0340
0001218176;-2.6408;-6.0190;4.2593;0.3215;0.0486;-0.0436
0001218185;-2.6432;-5.9209;4.1037;0.3127;0.0460;-0.0469
0001218198;-2.4062;-5.8634;4.1204;0.2866;0.0269;-0.0747
0001218207;-2.4588;-5.8897;4.0677;0.2775;0.0637;-0.0862
0001218216;-2.6288;-5.9687;3.9744;0.2790;0.0870;-0.0657
0001218229;-2.6743;-6.0980;4.0270;0.2713;0.0690;-0.0698
0001218238;-2.5139;-5.9855;4.0318;0.2807;0.0516;-0.0785
0001218251;-2.3703;-5.9209;3.9528;0.2825;0.0460;-0.0853
0001218260;-2.4469;-5.8347;4.0151;0.2896;0.0901;-0.0580
0001218329;-2.4708;-6.0693;4.0510;0.3888;-0.0140;-0.0614
0001218338;-2.4157;-6.0885;4.1132;0.4108;-0.0428;-0.1009
0001218351;-2.6001;-6.1052;4.2425;0.4485;-0.0027;-0.1010
0001218360;-2.5666;-6.0789;4.2545;0.4672;-0.0081;-0.1164
0001218369;-2.7988;-6.4069;4.0989;0.4870;-0.0541;-0.1402
0001218382;-2.6049;-6.2991;4.2018;0.5325;-0.0773;-0.1635
0001218391;-2.5929;-6.4620;4.2114;0.5617;-0.0959;-0.1799
0001218404;-2.7461;-6.4260;4.4005;0.6025;-0.0967;-0.1956
0001218413;-2.3990;-6.2920;4.3359;0.6326;-0.1230;-0.2218
0001218426;-2.2266;-6.3159;4.1922;0.6576;-0.1535;-0.2372
0001218435;-2.1380;-6.3829;4.1611;0.6628;-0.1343;-0.2518
0001218448;-2.0997;-6.1076;4.1084;0.6889;-0.0682;-0.2222
0001218457;-2.0782;-6.0118;4.0749;0.7052;-0.0721;-0.2132
0001218473;-2.3822;-5.9735;4.2976;0.7328;-0.0669;-0.1988
0001218482;-2.4972;-6.0023;4.2234;0.7424;-0.0570;-0.2045
0001218491;-2.6959;-6.1124;4.1228;0.7537;-0.0585;-0.2105
0001218504;-2.6073;-6.0621;4.1180;0.7673;-0.0436;-0.2212
0001218513;-2.5522;-5.9520;4.0654;0.7639;-0.0282;-0.2233
0001218583;-3.0167;-5.8251;3.8906;0.6924;-0.0393;-0.2188
0001218592;-3.0263;-5.9089;4.0294;0.6871;-0.0301;-0.2056
0001218605;-2.9999;-5.7150;3.7733;0.6531;-0.0659;-0.2009
0001218614;-2.7342;-5.4899;3.7421;0.6316;-0.0823;-0.1901
0001218626;-2.8180;-5.5378;3.8595;0.6117;-0.0878;-0.1597
0001218635;-2.6312;-5.3439;3.7589;0.5949;-0.0981;-0.1645
0001218648;-2.9090;-5.3175;3.7781;0.5688;-0.0659;-0.0977
0001218657;-2.8635;-5.3367;3.7613;0.5509;-0.0842;-0.0769
0001218666;-2.7007;-5.3103;3.7062;0.5235;-0.1051;-0.0634
0001218678;-2.5163;-5.3056;3.6823;0.5181;-0.0945;-0.0470
0001218687;-2.6504;-5.4157;3.6775;0.5208;-0.0987;-0.0546
0001218700;-2.9544;-5.5545;3.7421;0.5141;-0.0946;-0.0582
0001218709;-2.8204;-5.3941;3.7110;0.4983;-0.0883;-0.0521
0001218721;-3.0670;-5.2481;3.6655;0.4846;-0.1002;-0.0652
0001218730;-3.1340;-5.1906;3.5267;0.4732;-0.1030;-0.0797
0001218743;-2.7174;-4.6088;3.6105;0.4449;-0.0753;-0.1049
0001218752;-3.0981;-4.7788;3.5626;0.4218;-0.0835;-0.1335
0001218761;-2.8587;-4.4891;3.7900;0.3990;-0.0843;-0.1434
0001218773;-2.9305;-4.7142;3.6775;0.3581;-0.0898;-0.1474
0001218782;-3.2250;-4.8890;3.7086;0.3312;-0.0941;-0.1332
0001218795;-3.0047;-4.9225;3.6033;0.2964;-0.1204;-0.1320
0001218804;-2.9880;-5.2122;3.7876;0.2785;-0.1275;-0.1244
0001218874;-2.7414;-4.9057;3.6631;0.1719;-0.1675;-0.0334
0001218883;-2.8132;-4.8866;3.7014;0.1459;-0.1641;-0.0159
0001218896;-2.7485;-4.8985;3.8642;0.1107;-0.1446;0.0061
0001218905;-2.5881;-4.7716;3.5698;0.0699;-0.1462;0.0149
0001218917;-2.8611;-4.9632;3.7230;0.0381;-0.1432;0.0409
0001218926;-2.6983;-4.8842;3.7134;0.0084;-0.1283;0.0605
0001218935;-2.5307;-4.9919;3.6464;-0.0104;-0.1031;0.0723
0001218948;-2.2936;-5.0685;3.4093;-0.0438;-0.0254;0.0871
0001218957;-2.0734;-5.2912;3.2394;-0.0438;-0.0472;0.1037
0001218969;-2.4062;-5.3750;3.1244;-0.0425;-0.0157;0.1380
0001218978;-2.7246;-5.2768;3.3447;-0.0484;0.0079;0.1771
0001218991;-2.9951;-5.2337;3.4453;-0.0580;-0.0254;0.1843
0001219000;-2.6815;-5.0781;3.4213;-0.0759;-0.0497;0.1903
0001219012;-2.8228;-5.1020;3.5195;-0.0907;-0.0570;0.2128
0001219021;-2.7054;-5.0206;3.7493;-0.1228;-0.0558;0.2200
0001219034;-3.4548;-4.8195;4.0701;-0.1801;-0.0265;0.2250
0001219043;-3.5865;-4.4676;4.3790;-0.2369;-0.0293;0.1953
0001219052;-3.8044;-4.6376;4.5753;-0.3152;-0.0898;0.1705
0001219064;-3.6536;-4.5849;4.9033;-0.4361;-0.1699;0.1545
0001219073;-3.3064;-4.5753;5.1284;-0.5115;-0.1990;0.1447
0001219086;-2.6743;-4.5011;5.0781;-0.6026;-0.2237;0.1380
0001219095;-2.1261;-4.6663;5.0637;-0.6655;-0.2459;0.1342
0001219165;-2.2649;-7.5322;3.4189;-0.5133;0.1743;0.2623
0001219174;-2.8515;-7.7093;3.4309;-0.4122;0.1827;0.2365
0001219187;-3.4692;-7.2089;3.3806;-0.2663;0.1544;0.1813
0001219196;-3.4333;-6.5625;3.1388;-0.1628;0.1182;0.1374
0001219205;-3.2633;-6.2920;3.0047;-0.0758;0.0867;0.0987
0001219217;-2.8180;-5.9233;2.8347;0.0312;0.0758;0.0449
0001219226;-2.9688;-5.9113;2.8706;0.1035;0.0895;-0.0067
0001219239;-3.1005;-5.7581;2.8922;0.1737;0.1078;-0.0871
0001219248;-3.5027;-5.9041;2.8898;0.2201;0.1059;-0.1547
0001219260;-3.8116;-5.7054;3.1747;0.2462;0.0750;-0.2157
0001219269;-3.8714;-5.5857;3.3279;0.2647;0.0205;-0.2430
0001219282;-3.5267;-5.3846;3.5243;0.2459;-0.0476;-0.2641
0001219291;-2.9137;-5.0973;3.4716;0.2185;-0.0594;-0.2653
0001219300;-2.5187;-5.1523;3.5889;0.1966;-0.0699;-0.2491
0001219312;-2.1620;-5.0566;3.5243;0.1595;-0.0637;-0.1936
0001219321;-1.9896;-5.0566;3.4836;0.1240;-0.0594;-0.1379
0001219334;-1.8507;-4.8483;3.6703;0.0813;-0.0569;-0.0717
0001219343;-1.8268;-4.7716;3.7254;0.0480;-0.0450;-0.0362
0001219355;-1.9345;-4.7381;3.8930;0.0025;-0.0344;-0.0012
0001219364;-2.2075;-4.8004;3.9983;-0.0254;-0.0342;0.0193
0001219377;-2.3990;-4.9129;4.1803;-0.0737;-0.0461;0.0530
0001219386;-2.4110;-4.8794;4.2425;-0.1170;-0.0577;0.0823
0001219454;-2.0303;-5.1404;4.0558;-0.4235;-0.0620;0.1495
0001219463;-2.2505;-5.4085;4.2042;-0.4478;-0.0164;0.1372
0001219472;-2.4660;-5.5402;4.1180;-0.4471;0.0045;0.1443
0001219485;-2.8778;-5.9280;4.2282;-0.4313;-0.0205;0.2002
0001219494;-3.2848;-6.2417;4.4412;-0.4245;-0.0655;0.2547
0001219506;-3.0406;-6.3183;4.5945;-0.4044;-0.1697;0.3102
0001219515;-2.7246;-6.5266;4.2138;-0.4062;-0.2290;0.3303
0001219528;-2.1452;-6.1603;4.0199;-0.3922;-0.2410;0.3335
0001219537;-1.7957;-5.8131;4.1970;-0.3689;-0.2094;0.3359
0001219549;-1.8890;-5.6719;4.2353;-0.3336;-0.1733;0.3272
0001219558;-1.9393;-5.8490;4.1946;-0.3003;-0.1676;0.2988
0001219571;-2.1021;-6.1172;4.3311;-0.2402;-0.1661;0.2329
0001219580;-2.2649;-6.3518;4.4029;-0.2102;-0.1649;0.1833
0001219589;-2.1979;-6.3614;4.2401;-0.1695;-0.1796;0.1315
0001219601;-2.0063;-6.2896;4.2641;-0.1146;-0.1828;0.0949
0001219610;-1.7502;-6.0334;4.2665;-0.0618;-0.2001;0.0759
0001219623;-1.8387;-6.0645;4.1444;-0.0276;-0.2017;0.0441
0001219632;-1.5850;-5.8442;4.1108;-0.0125;-0.1876;0.0326
0001219644;-1.5443;-5.7676;4.2114;0.0173;-0.1748;0.0250
0001219653;-1.6640;-5.9376;4.3167;0.0276;-0.1671;0.0334
0001219666;-1.4964;-5.8658;4.2114;0.0506;-0.1733;0.0436
0001219675;-1.4581;-5.7509;4.2713;0.0464;-0.1835;0.0417
0001219684;-1.3408;-5.7700;4.0438;0.0421;-0.2010;0.0131
0001219754;-0.8188;-6.3255;4.4388;-0.0225;-0.2138;0.0175
0001219763;-1.2282;-5.8490;4.2210;-0.0021;-0.2013;0.0457
0001219776;-1.8890;-5.3486;4.3263;0.0191;-0.2089;0.0540
0001219785;-2.3080;-5.4612;4.4796;0.0290;-0.2036;0.0678
0001219797;-2.3511;-5.2481;4.7669;0.0525;-0.2384;0.0743
0001219806;-2.5163;-4.9871;5.0446;0.0529;-0.2813;0.0678
0001219819;-2.8371;-4.4077;5.3774;0.0207;-0.3698;-0.0272
0001219828;-2.7438;-3.9409;5.4899;-0.0212;-0.4135;-0.1062
0001219840;-2.5163;-3.6224;5.7078;-0.1065;-0.4583;-0.1728
0001219849;-2.3272;-3.4093;5.9089;-0.1743;-0.4994;-0.1923
0001219858;-1.8100;-3.2417;6.0310;-0.2754;-0.4938;-0.1885
0001219871;-1.1947;-3.2657;5.8945;-0.4101;-0.4309;-0.1503
0001219880;-0.7614;-3.1316;5.6790;-0.4847;-0.3424;-0.1096
0001219892;-0.4429;-3.6464;5.3678;-0.5678;-0.1641;-0.0328
0001219901;-0.4741;-4.1468;5.1475;-0.6165;0.0059;0.0368
0001219914;-0.7039;-4.7405;5.0111;-0.6293;0.1921;0.1017
0001219923;-0.8236;-4.9009;5.0901;-0.6306;0.2817;0.1021
0001219934;-1.9201;-5.1930;5.3798;-0.6432;0.3464;0.0678
0001219943;-2.8802;-4.8435;5.7197;-0.6448;0.3664;0.0191
0001219957;-4.4005;-4.4077;6.0525;-0.6716;0.3295;-0.1318
0001219966;-5.3654;-4.0654;6.1962;-0.7096;0.2907;-0.2790
0001219975;-5.9113;-3.8762;5.8466;-0.7464;0.2501;-0.4698
0001220044;-0.8452;-9.5289;4.5466;-0.2021;0.0404;-0.5650
0001220053;-1.1205;-9.0285;4.6831;-0.0850;0.0782;-0.4652
0001220065;-1.7980;-7.2113;5.3247;-0.0525;0.1366;-0.3897
0001220074;-2.6935;-5.9687;5.4995;-0.0814;0.1656;-0.3793
0001220087;-3.8355;-3.8235;5.7868;-0.2045;0.1900;-0.4658
0001220096;-4.4508;-2.9688;5.7581;-0.3052;0.1847;-0.5736
0001220108;-4.1539;-2.7294;5.5593;-0.4421;0.1781;-0.7380
0001220117;-3.8283;-4.1132;5.2457;-0.5344;0.1721;-0.8140
0001220130;-3.0765;-6.1651;4.9321;-0.5738;0.1880;-0.7469
0001220139;-2.7126;-7.4124;4.9129;-0.5261;0.1873;-0.6460
0001220148;-2.1213;-7.8913;4.8961;-0.4506;0.2092;-0.5160
0001220160;-2.0925;-8.0852;5.1068;-0.3621;0.2534;-0.3619
0001220169;-2.1715;-7.4651;5.1858;-0.3160;0.2831;-0.2555
0001220182;-3.0526;-6.3327;5.3965;-0.2835;0.3280;-0.1058
0001220191;-3.6583;-5.4444;5.4277;-0.3265;0.3332;-0.0179
0001220203;-4.2186;-4.5586;5.4348;-0.4008;0.2494;0.0600
0001220212;-4.4532;-4.5035;5.3630;-0.4878;0.1649;0.1067
0001220225;-3.9145;-4.7645;5.2481;-0.6079;0.0230;0.1633
0001220234;-3.2585;-5.2864;5.1332;-0.6562;-0.0369;0.2236
0001220243;-2.6767;-5.7509;5.0925;-0.6829;-0.0409;0.2940
0001220255;-2.2841;-5.9831;5.0877;-0.6953;0.0169;0.3950
0001220264;-2.4756;-6.1651;5.0781;-0.6903;0.0665;0.4607
0001220333;-3.1244;-6.2297;4.4796;-0.7719;0.0027;0.5476
0001220342;-2.8180;-6.4739;4.5753;-0.7759;-0.0013;0.5472
0001220354;-2.7821;-6.6128;4.4604;-0.7782;-0.0085;0.5448
0001220363;-2.8012;-6.6655;4.3838;-0.7871;-0.0009;0.5387
0001220376;-2.9377;-6.3590;4.3981;-0.7953;-0.0039;0.5113
0001220385;-2.9616;-6.3829;4.3383;-0.8039;-0.0242;0.4676
0001220397;-3.0670;-6.4212;4.2162;-0.8116;-0.0538;0.4209
0001220406;-2.9161;-6.3829;4.1324;-0.8119;-0.0787;0.3908
0001220415;-2.7174;-6.7014;4.0677;-0.8084;-0.1043;0.3525
0001220428;-2.5355;-6.8139;4.0175;-0.7883;-0.1061;0.3096
0001220437;-2.3727;-6.8690;3.9145;-0.7662;-0.0845;0.2818
0001220449;-2.3535;-7.0437;3.8906;-0.7452;-0.0649;0.2329
0001220458;-2.5450;-7.2089;3.8259;-0.7253;-0.0650;0.1928
0001220471;-2.5714;-7.1778;3.9025;-0.6928;-0.0711;0.1332
0001220480;-2.6240;-7.1515;3.8379;-0.6784;-0.0718;0.0970
0001220492;-2.3631;-7.1156;3.8403;-0.6542;-0.0754;0.0397
0001220501;-2.4277;-7.2856;3.8618;-0.6343;-0.0883;0.0089
0001220514;-2.4565;-7.8554;3.9073;-0.5907;-0.0998;-0.0242
0001220523;-2.3774;-7.9224;3.9193;-0.5644;-0.0858;-0.0349
0001220532;-2.3607;-7.9966;3.9504;-0.5308;-0.0703;-0.0561
0001220544;-2.3535;-7.7788;3.9504;-0.4911;-0.0594;-0.0701
0001220553;-2.4014;-7.7045;4.0821;-0.4714;-0.0585;-0.0778
0001220622;-2.2769;-7.0725;4.2042;-0.5259;-0.0169;-0.0148
0001220631;-2.3415;-7.0916;4.1707;-0.5444;-0.0064;0.0077
0001220643;-2.5690;-7.2425;4.1851;-0.5700;0.0027;0.0338
0001220652;-2.7533;-7.1730;4.1515;-0.5931;-0.0121;0.0497
0001220665;-2.8084;-7.0988;4.2713;-0.6382;-0.0183;0.0938
0001220674;-2.7605;-6.9647;4.3934;-0.6660;-0.0148;0.1363
0001220686;-2.8635;-7.1084;4.3527;-0.7100;-0.0199;0.1807
0001220695;-2.7557;-6.9791;4.3574;-0.7488;-0.0145;0.2145
0001220704;-2.7126;-6.8761;4.3431;-0.7838;-0.0179;0.2411
0001220717;-2.7892;-6.7349;4.2928;-0.8387;-0.0175;0.2951
0001220726;-2.8563;-6.7373;4.2784;-0.8871;-0.0201;0.3271
0001220738;-2.9449;-6.7612;4.3000;-0.9438;-0.0393;0.3689
0001220747;-2.9329;-6.7947;4.2234;-0.9955;-0.0514;0.4074
0001220760;-2.7294;-6.9767;4.1970;-1.0564;-0.0694;0.4490
0001220769;-2.5474;-6.9240;4.2018;-1.0949;-0.0689;0.4824
0001220781;-2.4373;-7.0366;4.1204;-1.1251;-0.0510;0.5348
0001220790;-2.4756;-7.1323;4.0725;-1.1555;-0.0346;0.5814
0001220803;-2.5402;-6.9192;4.0247;-1.1795;-0.0145;0.6396
0001220812;-2.4684;-6.8139;4.1420;-1.1971;0.0132;0.6811
0001220821;-2.5091;-6.6080;3.9600;-1.2152;0.0297;0.7051
0001220833;-2.5618;-6.5218;3.7852;-1.2357;0.0593;0.7320
0001220842;-2.6456;-6.5505;3.8044;-1.2574;0.0655;0.7422
0001220912;-3.3423;-6.7684;3.6296;-1.3607;-0.0081;0.7310
0001220921;-3.0598;-6.7732;3.6607;-1.3496;-0.0365;0.6944
0001220933;-2.8970;-7.1491;3.6105;-1.3291;-0.0376;0.6607
0001220942;-3.3615;-7.3981;3.6871;-1.2975;-0.0458;0.6217
0001220955;-3.2801;-7.5681;3.5482;-1.2569;-0.0492;0.5770
0001220964;-2.9784;-7.6064;3.5865;-1.2247;-0.0430;0.5558
0001220973;-2.5953;-7.5369;3.4644;-1.1872;-0.0272;0.5269
0001220985;-2.6504;-7.3478;3.5171;-1.1473;0.0148;0.4824
0001220994;-2.7509;-7.3670;3.4189;-1.1199;0.0412;0.4429
0001221007;-3.0622;-7.2401;3.4812;-1.0796;0.0526;0.3898
0001221016;-3.1891;-7.5489;3.5865;-1.0539;0.0462;0.3556
0001221028;-3.3232;-7.8841;3.5362;-0.9966;0.0232;0.3098
0001221037;-3.1532;-8.0709;3.4524;-0.9562;0.0124;0.2900
0001221050;-2.9521;-8.2145;3.4907;-0.8869;0.0129;0.2721
0001221059;-2.8635;-8.3055;3.5291;-0.8375;0.0218;0.2675
0001221068;-2.8276;-8.1259;3.4788;-0.7905;0.0556;0.2666
0001221080;-2.9832;-8.0110;3.5745;-0.7400;0.0787;0.2553
0001221089;-3.3471;-7.8650;3.8403;-0.6953;0.0536;0.2439
0001221102;-3.4189;-7.5130;3.8020;-0.6273;0.0176;0.2246
0001221111;-3.2226;-7.4364;3.6392;-0.5923;-0.0044;0.2065
0001221123;-2.7845;-7.3933;3.5865;-0.5584;-0.0429;0.1595
0001221132;-2.7270;-7.3047;3.6775;-0.5457;-0.0422;0.1319
0001221201;-3.4572;-8.1068;3.5362;-0.3070;-0.0973;-0.0901
0001221210;-3.2920;-8.0469;3.5338;-0.2659;-0.1107;-0.1167
0001221222;-3.1819;-7.9464;3.5745;-0.2101;-0.1142;-0.1495
0001221231;-3.1819;-7.9344;3.4860;-0.1863;-0.1115;-0.1564
0001221240;-3.2872;-8.0206;3.5793;-0.1512;-0.1182;-0.1613
0001221253;-3.2753;-7.8793;3.6033;-0.1119;-0.1382;-0.1691
0001221262;-2.9425;-7.8410;3.5314;-0.0934;-0.1324;-0.1563
0001221274;-2.8683;-7.7931;3.4620;-0.0689;-0.1296;-0.1370
0001221283;-2.8635;-7.7979;3.3543;-0.0493;-0.1167;-0.1395
0001221296;-2.8443;-7.4771;3.4692;-0.0441;-0.0981;-0.1391
0001221305;-2.8204;-7.4148;3.5769;-0.0537;-0.1094;-0.1424
0001221317;-2.8443;-7.5753;3.4213;-0.0500;-0.1210;-0.1511
0001221326;-2.7988;-7.4699;3.3830;-0.0510;-0.1280;-0.1371
0001221339;-2.9784;-7.6758;3.5171;-0.0554;-0.1170;-0.1190
0001221348;-3.0263;-7.5753;3.4716;-0.0485;-0.1170;-0.1090
0001221360;-3.1196;-7.9296;3.4189;-0.0349;-0.1077;-0.0867
0001221369;-3.0095;-7.8458;3.4644;-0.0125;-0.1003;-0.0753
0001221378;-2.8683;-7.7979;3.3662;0.0015;-0.0815;-0.0718
0001221392;-2.8515;-7.8554;3.2370;0.0273;-0.0385;-0.0791
0001221401;-3.0765;-7.6543;3.1963;0.0220;-0.0265;-0.0914
0001221470;-2.5019;-7.9703;3.4716;0.1226;0.0224;-0.1126
0001221479;-2.5115;-7.9799;3.3567;0.1303;0.0536;-0.1115
0001221491;-2.6624;-8.0302;3.2848;0.1436;0.0707;-0.1111
0001221500;-2.7653;-7.9033;3.3806;0.1689;0.0562;-0.1234
0001221513;-2.9640;-7.7405;3.5314;0.1977;0.0203;-0.1375
0001221522;-2.6935;-7.7907;3.4333;0.2226;-0.0261;-0.1455
0001221534;-2.5043;-7.9368;3.5745;0.2384;-0.0665;-0.1679
0001221543;-2.2098;-8.3055;3.6224;0.2705;-0.0669;-0.1700
0001221552;-2.0566;-8.5281;3.6224;0.3131;-0.0592;-0.1708
0001221565;-1.9154;-8.4132;3.5243;0.3789;-0.0288;-0.1652
0001221574;-2.1165;-8.6479;3.5243;0.4226;0.0033;-0.1743
0001221586;-2.3415;-8.5688;3.5698;0.4923;0.0213;-0.2084
0001221595;-2.4349;-8.8035;3.5386;0.5526;0.0183;-0.2340
0001221608;-2.6240;-8.8322;3.5745;0.6237;-0.0100;-0.2899
0001221617;-2.3990;-8.7101;3.5458;0.6667;-0.0312;-0.3309
0001221629;-2.3080;-8.6383;3.4788;0.7061;-0.0504;-0.3533
0001221638;-2.2649;-8.5760;3.5865;0.7149;-0.0500;-0.3305
0001221647;-1.8627;-8.1044;3.4620;0.7382;-0.0518;-0.3027
0001221660;-1.6664;-7.8147;3.3662;0.7501;-0.0358;-0.2234
0001221669;-1.6831;-7.7165;3.3495;0.7508;-0.0270;-0.1685
0001221681;-1.9489;-7.4891;3.3902;0.7711;-0.0264;-0.1697
0001221690;-2.4277;-7.4723;3.3399;0.7727;-0.0184;-0.2120
0001221759;-1.5874;-7.9583;3.7302;0.8328;-0.1503;-0.5025
0001221768;-1.5012;-8.1092;3.6033;0.8491;-0.1136;-0.5147
0001221780;-1.7286;-8.1187;3.5769;0.8777;-0.0726;-0.5329
0001221789;-2.1404;-8.2791;3.6966;0.8895;-0.0544;-0.5584
0001221802;-2.5163;-8.4635;3.5267;0.9061;-0.0389;-0.6086
0001221811;-2.7988;-8.4515;3.6536;0.9173;-0.0357;-0.6351
0001221820;-2.9880;-8.3629;3.6033;0.9422;-0.0520;-0.6539
0001221832;-3.1364;-8.2815;3.7278;0.9542;-0.0833;-0.6780
0001221841;-2.9975;-8.0637;3.7661;0.9603;-0.1168;-0.6880
0001221854;-2.3679;-8.2313;3.7182;0.9891;-0.1296;-0.6896
0001221863;-2.1620;-8.0349;3.7062;1.0277;-0.1010;-0.6873
0001221875;-2.0351;-7.9847;3.7110;1.0367;-0.0504;-0.7141
0001221884;-2.3080;-8.1594;3.7254;1.0357;-0.0156;-0.7264
0001221897;-2.6336;-7.8865;3.8044;1.0524;-0.0147;-0.7418
0001221906;-3.1412;-7.6303;3.7541;1.0448;-0.0159;-0.7529
0001221918;-3.0957;-7.3957;3.8355;1.0231;-0.0386;-0.7707
0001221927;-2.9329;-7.4292;3.8642;1.0055;-0.0609;-0.7778
0001221936;-2.6624;-7.4771;3.8978;0.9761;-0.0653;-0.7545
0001221949;-2.2529;-7.5705;3.8810;0.9445;-0.0658;-0.7309
0001221958;-2.0111;-7.4005;3.8307;0.9238;-0.0489;-0.7322
0001221970;-1.8052;-7.2496;3.8092;0.8913;-0.0211;-0.7172
0001221979;-1.9321;-7.3741;3.8858;0.8616;0.0103;-0.7029
0001222048;-2.1620;-7.7452;4.1396;0.6757;0.0284;-0.5813
0001222057;-2.4397;-7.6543;4.2018;0.6700;0.0212;-0.5570
0001222069;-2.7821;-7.9224;4.2713;0.6704;-0.0234;-0.5317
0001222078;-2.8970;-8.3606;4.2569;0.6773;-0.0977;-0.5379
0001222087;-2.4277;-8.3725;4.1228;0.6768;-0.1522;-0.5384
0001222100;-1.9752;-9.1171;4.4436;0.6836;-0.1704;-0.5525
0001222109;-1.8100;-9.7707;4.8076;0.7181;-0.1897;-0.5232
0001222121;-1.6640;-9.6822;4.5897;0.8196;-0.1777;-0.4567
0001222130;-1.6305;-9.1411;4.6064;0.8561;-0.0793;-0.4214
0001222143;-1.6328;-8.4156;4.4963;0.8605;0.0501;-0.4177
0001222152;-2.0806;-7.8937;4.6711;0.8628;0.1106;-0.3984
0001222164;-2.7366;-7.5106;4.8435;0.8243;0.1687;-0.3170
0001222173;-3.4213;-7.6902;4.9680;0.7967;0.1727;-0.2261
0001222186;-3.8762;-7.6088;5.2337;0.7436;0.1355;-0.0787
0001222195;-3.8331;-7.5393;5.2960;0.7217;0.1366;-0.0185
0001222204;-3.6607;-7.5896;5.1954;0.6997;0.1411;0.0055
0001222216;-2.9473;-8.0110;4.9297;0.6675;0.1507;-0.0067
0001222225;-2.4541;-8.1068;4.8076;0.6572;0.1868;-0.0278
0001222238;-2.3343;-8.2744;4.8435;0.6879;0.2442;-0.0548
0001222247;-2.5402;-8.0158;4.9416;0.7342;0.2510;-0.0518
0001222259;-3.2322;-8.1858;5.1404;0.7723;0.2245;-0.0212
0001222268;-3.3974;-8.2408;5.0566;0.8029;0.1784;0.0147
0001222337;-2.5043;-7.3454;5.2002;0.7922;0.2883;0.1118
0001222346;-2.7414;-7.7931;5.2792;0.7755;0.3020;0.1110
0001222355;-3.4836;-8.0972;5.7988;0.7741;0.3083;0.1311
0001222367;-4.7788;-8.5210;6.5194;0.8298;0.2281;0.1883
0001222376;-5.6312;-8.9830;6.3901;0.8591;0.1835;0.2603
0001222389;-5.9544;-9.8785;5.2768;0.8055;0.1387;0.3761
0001222398;-4.6304;-8.7149;4.8459;0.7694;0.0758;0.4239
0001222410;-2.6887;-6.3398;5.0206;0.6631;0.0510;0.3557
0001222419;-1.5155;-4.9752;5.2194;0.5757;0.1045;0.2870
0001222428;-1.0702;-4.4365;5.1715;0.5096;0.1717;0.2414
0001222441;-1.5395;-4.7788;4.8100;0.4517;0.2004;0.2530
0001222450;-2.2386;-5.5306;4.8004;0.4373;0.1556;0.2912
0001222462;-3.0598;-6.5601;4.8507;0.4599;0.0921;0.3352
0001222471;-3.2920;-7.0318;4.6759;0.4828;0.0811;0.3667
0001222484;-3.6152;-7.4029;4.4700;0.5457;0.0802;0.4072
0001222493;-3.7254;-7.4939;4.3335;0.5943;0.0648;0.4358
0001222505;-3.5099;-6.9240;4.2713;0.6131;0.0338;0.4418
0001222514;-3.2992;-6.1579;4.3215;0.5925;0.0204;0.4355
0001222523;-3.1723;-5.8945;4.4556;0.5580;0.0107;0.4190
0001222536;-2.9113;-5.6120;4.5633;0.4770;0.0292;0.3961
0001222545;-2.8922;-5.7748;4.5226;0.4226;0.0310;0.3712
0001222557;-3.1891;-6.2776;4.4580;0.3710;0.0237;0.3186
0001222566;-3.0311;-6.3351;4.3359;0.3508;0.0148;0.2787
0001222635;-2.2913;-5.6000;4.3072;0.3864;-0.0642;0.1198
0001222644;-2.3798;-5.7724;4.2090;0.3809;-0.0806;0.1300
0001222653;-2.3128;-5.9328;4.1515;0.3695;-0.0818;0.1484
0001222665;-2.4972;-5.9544;4.1084;0.3649;-0.0711;0.1560
0001222674;-2.4565;-5.8395;4.0845;0.3659;-0.0586;0.1491
0001222687;-2.5905;-5.4971;4.1755;0.3289;-0.0460;0.1342
0001222696;-2.5498;-5.2218;4.0845;0.3172;-0.0496;0.1218
0001222708;-2.7222;-5.0853;4.1899;0.2890;-0.0655;0.1069
0001222717;-2.8012;-4.9991;4.1492;0.2693;-0.0795;0.1062
0001222730;-2.7845;-4.8339;4.1731;0.2390;-0.0994;0.1022
0001222739;-2.9975;-5.1356;4.2329;0.2234;-0.1191;0.1031
0001222748;-2.5283;-4.9775;4.2569;0.2045;-0.1303;0.1111
0001222760;-2.4660;-5.2433;4.2401;0.1889;-0.1446;0.1211
0001222769;-2.5163;-5.4923;4.2329;0.1757;-0.1463;0.1284
0001222782;-2.5498;-5.7485;4.2090;0.1679;-0.1368;0.1319
0001222791;-2.3104;-5.5474;4.1492;0.1656;-0.1259;0.1326
0001222803;-2.3727;-5.6767;4.1755;0.1660;-0.1073;0.1184
0001222812;-2.4373;-5.6192;4.1851;0.1545;-0.0882;0.1164
0001222825;-2.4469;-5.3558;4.1061;0.1572;-0.0606;0.1115
0001222834;-2.6432;-5.1882;4.1204;0.1585;-0.0521;0.1062
0001222846;-2.7198;-5.1451;4.1707;0.1398;-0.0654;0.0939
0001222855;-2.9928;-5.2098;4.2210;0.1238;-0.0723;0.0814
0001222864;-2.8515;-5.0685;4.1492;0.1104;-0.0827;0.0689
0001222934;-2.5426;-5.3941;4.4676;0.0906;-0.2002;0.1320
0001222943;-2.6911;-5.4660;4.4891;0.0906;-0.2073;0.1330
0001222956;-2.4110;-5.1356;4.4915;0.0910;-0.2064;0.1368
0001222965;-2.4134;-5.1236;4.5466;0.0734;-0.1893;0.1479
0001222977;-2.0327;-5.0087;4.4843;0.0727;-0.1691;0.1579
0001222986;-2.0949;-5.1044;4.4197;0.0741;-0.1491;0.1528
0001222999;-2.0279;-5.1092;4.3479;0.0717;-0.1139;0.1415
0001223008;-2.1883;-5.3486;4.4029;0.0677;-0.0901;0.1355
0001223017;-2.5139;-5.5019;4.3000;0.0636;-0.0821;0.1283
0001223029;-2.4684;-5.4492;4.1635;0.0630;-0.0827;0.1231
0001223038;-2.4660;-5.5474;4.1587;0.0778;-0.1017;0.1235
0001223051;-2.6193;-5.7389;4.1515;0.0866;-0.1030;0.1399
0001223060;-2.4541;-5.8227;4.2713;0.0959;-0.1116;0.1367
0001223072;-2.7509;-5.7413;4.4580;0.1005;-0.0989;0.1359
0001223081;-2.7725;-5.6240;4.5969;0.1001;-0.1011;0.1254
0001223094;-2.7916;-5.1691;4.6400;0.0802;-0.0963;0.0973
0001223103;-2.7007;-4.7094;4.5394;0.0576;-0.1015;0.0742
0001223112;-2.6911;-4.8435;4.7262;0.0356;-0.1151;0.0578
0001223124;-2.4900;-4.7740;4.6352;-0.0035;-0.1212;0.0434
0001223133;-2.5187;-4.9560;4.8363;-0.0324;-0.1212;0.0374
0001223146;-2.5115;-5.1068;4.6878;-0.0661;-0.0986;0.0236
0001223155;-2.4684;-5.3798;4.7118;-0.0761;-0.0918;0.0213
0001223225;-2.3798;-5.4660;4.8746;-0.0292;-0.1255;0.0061
0001223234;-2.3918;-5.5234;4.9081;-0.0128;-0.1330;-0.0292
0001223247;-2.5929;-5.9735;4.7860;0.0241;-0.1290;-0.0762
0001223256;-2.5905;-6.2752;4.7908;0.0589;-0.1315;-0.1049
0001223265;-2.4732;-6.0861;4.8004;0.0986;-0.1230;-0.1334
0001223277;-2.2625;-5.7365;4.6831;0.1278;-0.0969;-0.1620
0001223286;-2.5355;-5.5115;4.6591;0.1434;-0.0822;-0.1813
0001223299;-2.6001;-5.1451;4.5945;0.1358;-0.0806;-0.1937
0001223308;-2.6839;-5.0494;4.5945;0.1203;-0.1007;-0.1764
0001223320;-2.6839;-5.0853;4.5059;0.0950;-0.1434;-0.1515
0001223329;-2.7294;-5.0302;4.5274;0.0646;-0.1603;-0.1211
0001223342;-2.7102;-5.2792;4.3718;0.0425;-0.1847;-0.1063
0001223351;-2.7246;-5.2146;4.3263;0.0316;-0.2113;-0.1023
0001223363;-2.4517;-5.3582;4.4029;0.0195;-0.2193;-0.0775
0001223372;-2.4541;-5.3917;4.2569;0.0216;-0.2273;-0.0707
0001223381;-2.1141;-5.2864;4.2306;0.0112;-0.2154;-0.0450
0001223394;-2.1213;-5.1308;4.1994;0.0031;-0.1988;-0.0059
0001223403;-2.1452;-5.0661;4.1899;-0.0187;-0.1793;0.0336
0001223415;-2.1715;-5.2984;4.2090;-0.0376;-0.1575;0.0713
0001223424;-1.8124;-5.1212;4.2114;-0.0396;-0.1342;0.0851
0001223437;-1.8483;-5.4612;4.0558;-0.0322;-0.0709;0.1050
0001223446;-1.9393;-5.6000;3.9863;-0.0277;-0.0217;0.0971
0001223516;-2.3056;-4.8363;3.8762;-0.2113;-0.0051;0.3376
0001223525;-2.0973;-4.7980;3.8092;-0.2477;-0.0027;0.3600
0001223538;-2.2146;-5.1380;3.9409;-0.2729;0.0152;0.3834
0001223547;-2.2697;-5.2026;4.1084;-0.2852;0.0188;0.3949
0001223556;-2.3727;-5.4133;4.1348;-0.3022;0.0188;0.4141
0001223568;-2.4852;-5.4612;4.1180;-0.3151;0.0007;0.4326
0001223577;-2.4780;-5.6838;4.0342;-0.3211;-0.0204;0.4307
0001223590;-2.3463;-5.4516;4.3048;-0.3373;-0.0108;0.4191
0001223599;-2.1644;-5.2577;4.4891;-0.3525;-0.0152;0.4174
0001223611;-1.9154;-5.1763;4.5322;-0.3648;-0.0246;0.4133
0001223620;-1.7885;-4.8914;4.3862;-0.3844;-0.0269;0.4133
0001223633;-1.7909;-4.8052;4.5490;-0.4018;-0.0390;0.4182
0001223642;-1.7885;-4.7716;4.5514;-0.4081;-0.0474;0.4295
0001223654;-1.8268;-5.0542;4.4700;-0.4072;-0.0493;0.4310
0001223663;-1.7286;-4.9991;4.5322;-0.4060;-0.0494;0.4259
0001223672;-1.4772;-5.0709;4.2713;-0.3656;-0.0414;0.4150
0001223685;-1.4437;-5.4875;3.8930;-0.3051;-0.0116;0.3888
0001223694;-0.9912;-5.5929;3.6679;-0.2609;0.0143;0.3476
0001223706;-1.0151;-6.0166;3.5745;-0.2066;0.0405;0.2935
0001223715;-0.9936;-6.0501;3.5626;-0.1589;0.0476;0.2807
0001223728;-1.4700;-6.2513;3.4740;-0.0775;0.0468;0.2963
0001223737;-1.6328;-6.1268;3.4836;-0.0196;0.0244;0.3128
0001223807;-2.2458;-4.9584;3.7158;0.1504;-0.1114;0.2951
0001223816;-2.3200;-4.8578;3.8978;0.1635;-0.1773;0.2750
0001223825;-2.2793;-4.8387;4.0917;0.1529;-0.2352;0.2710
0001223838;-1.7909;-4.9656;4.2066;0.1537;-0.3135;0.2811
0001223847;-1.6137;-4.7956;4.2258;0.1506;-0.3416;0.2786
0001223859;-1.1253;-4.7597;4.2138;0.1300;-0.3327;0.2851
0001223868;-1.0080;-4.8195;4.1707;0.1196;-0.3356;0.2886
0001223881;-0.9816;-4.8291;4.2282;0.1163;-0.2682;0.3283
0001223890;-1.0678;-4.8818;4.0055;0.1103;-0.2249;0.3653
0001223902;-0.9577;-4.8052;3.9169;0.1304;-0.1912;0.3809
0001223911;-0.9697;-4.9129;3.9145;0.1363;-0.1403;0.3756
0001223920;-1.0391;-5.1188;3.8618;0.1484;-0.0931;0.3428
0001223933;-1.1061;-5.2816;3.6895;0.1665;-0.0336;0.2691
0001223942;-1.0918;-5.3056;3.5482;0.1887;0.0049;0.2148
0001223954;-0.9529;-5.1068;3.4189;0.2217;0.0183;0.1681
0001223963;-1.3982;-5.2648;3.7206;0.2395;0.0125;0.1500
0001223976;-1.8004;-4.4508;4.0079;0.2194;-0.0073;0.1168
0001223985;-2.3822;-3.7900;4.2569;0.1733;-0.0420;0.0630
0001223997;-3.0718;-3.0143;5.0709;0.1063;-0.1202;-0.0345
0001224006;-3.3232;-2.5762;5.8658;0.0000;-0.1699;-0.1210
0001224015;-3.6296;-2.0255;6.4356;-0.1367;-0.2373;-0.2517
0001224028;-3.7565;-1.2115;6.7971;-0.3541;-0.3176;-0.4409
0001224037;-3.5219;-1.0127;7.0725;-0.4647;-0.3435;-0.5107
0001224107;-1.5371;-4.6902;6.4548;-0.1398;-0.1422;0.0111
0001224116;-1.7645;-3.2633;6.3422;-0.1884;-0.1339;-0.1019
0001224129;-1.9010;-1.7933;6.0454;-0.3207;-0.0785;-0.2614
0001224138;-1.8866;-1.4653;5.8873;-0.4466;-0.0380;-0.3441
0001224150;-2.0111;-1.3288;5.8203;-0.6356;0.0580;-0.4457
0001224159;-2.0159;-1.3408;5.7604;-0.7643;0.1451;-0.5287
0001224172;-2.0973;-1.6688;5.7940;-0.9321;0.2585;-0.6724
0001224181;-2.4349;-2.2098;5.7988;-1.0347;0.3384;-0.7890
0001224190;-2.4756;-2.8515;5.6599;-1.0813;0.4201;-0.8980
0001224202;-2.3439;-4.2329;5.0949;-1.0573;0.5470;-0.9567
0001224211;-2.3774;-5.4684;4.9560;-0.9685;0.6158;-0.9443
0001224224;-2.8611;-6.4979;5.1547;-0.7745;0.6237;-0.9076
0001224233;-3.4069;-7.0773;5.3223;-0.6407;0.5852;-0.8703
0001224245;-4.2521;-7.3861;5.3439;-0.4489;0.4698;-0.8027
0001224254;-4.0845;-6.9049;5.4253;-0.3223;0.3323;-0.7606
0001224267;-3.4477;-5.9783;5.3846;-0.2065;0.1482;-0.7362
0001224276;-2.9257;-5.3774;5.5354;-0.1695;0.0791;-0.7293
0001224288;-1.9489;-4.6783;5.4875;-0.1460;0.0742;-0.7178
0001224297;-1.5395;-4.6567;5.4037;-0.1371;0.1006;-0.7149
0001224306;-1.5610;-4.7908;5.2816;-0.1643;0.1605;-0.7040
0001224320;-1.2929;-4.6759;5.0925;-0.2185;0.2609;-0.6928
0001224329;-1.5538;-4.6974;5.1020;-0.2511;0.3111;-0.7080
0001224397;-2.8419;-5.8131;4.7453;-0.2726;0.3844;-0.4421
0001224406;-3.3208;-5.7389;4.8004;-0.2747;0.3693;-0.3717
0001224418;-3.2944;-5.7628;4.6687;-0.2856;0.3198;-0.2938
0001224427;-3.3734;-5.8682;4.7046;-0.2984;0.2866;-0.2305
0001224440;-3.3279;-6.1220;4.7285;-0.3238;0.2514;-0.1432
0001224449;-3.2944;-6.1411;4.6807;-0.3331;0.2261;-0.0941
0001224461;-3.3351;-6.1268;4.7309;-0.3379;0.1844;-0.0470
0001224470;-3.4333;-6.1723;4.7429;-0.3399;0.1484;-0.0201
0001224479;-3.3399;-6.1172;4.7405;-0.3304;0.0967;-0.0041
0001224492;-3.2322;-6.1746;4.6040;-0.3357;0.0542;0.0264
0001224501;-3.0670;-6.0501;4.5442;-0.3499;0.0273;0.0418
0001224513;-2.8443;-5.9233;4.5610;-0.3702;-0.0019;0.0518
0001224522;-2.9832;-5.8945;4.5753;-0.4013;-0.0104;0.0737
0001224535;-2.7916;-5.5378;4.3886;-0.4383;-0.0385;0.1011
0001224544;-2.5690;-5.5330;4.3934;-0.4695;-0.0544;0.0987
0001224556;-2.6456;-5.5665;4.2808;-0.5053;-0.0586;0.0899
0001224565;-2.8204;-6.0262;4.2593;-0.5263;-0.0661;0.0593
0001224578;-2.9497;-6.3566;4.4149;-0.5300;-0.0861;0.0191
0001224587;-2.9209;-6.7876;4.2306;-0.5059;-0.0942;0.0052
0001224596;-2.7054;-6.9121;4.3287;-0.4986;-0.0947;0.0076
0001224608;-2.3990;-6.8833;4.3910;-0.4662;-0.0979;-0.0172
0001224617;-2.4038;-7.1060;4.3527;-0.4478;-0.0819;-0.0304
0001224686;-2.8467;-6.9264;4.5801;-0.2028;-0.0498;-0.2076
0001224695;-2.7007;-6.8498;4.6376;-0.2037;-0.0533;-0.1993
0001224707;-2.5163;-6.5769;4.6400;-0.1990;-0.0350;-0.1716
0001224716;-2.3894;-6.5457;4.6136;-0.1998;-0.0264;-0.1531
0001224729;-2.3727;-6.7876;4.3981;-0.2028;-0.0112;-0.1308
0001224738;-2.5235;-6.8570;4.5107;-0.2022;0.0056;-0.1027
0001224750;-2.5091;-6.8163;4.4772;-0.1978;0.0119;-0.0845
0001224759;-2.6959;-6.9360;4.4173;-0.1932;0.0000;-0.0738
0001224768;-2.9425;-6.9336;4.4819;-0.1982;0.0079;-0.0538
0001224781;-3.0406;-6.8019;4.4412;-0.2048;-0.0245;-0.0408
0001224790;-3.1987;-6.9192;4.4053;-0.2086;-0.0428;-0.0260
0001224802;-3.0526;-7.0390;4.3598;-0.2061;-0.0626;0.0020
0001224811;-3.0215;-7.1012;4.4365;-0.2024;-0.0839;0.0119
0001224824;-2.8802;-7.1347;4.5322;-0.1868;-0.1010;0.0314
0001224833;-2.6049;-7.0342;4.3742;-0.1720;-0.0981;0.0573
0001224845;-2.6600;-7.1730;4.4388;-0.1531;-0.1087;0.0553
0001224854;-2.7078;-7.3215;4.4197;-0.1452;-0.1115;0.0532
0001224867;-2.7342;-7.3598;4.5442;-0.1147;-0.1226;0.0464
0001224876;-2.4900;-7.3071;4.4341;-0.0835;-0.1322;0.0296
0001224885;-2.5379;-7.3167;4.3263;-0.0663;-0.1206;0.0268
0001224897;-2.8084;-7.4771;4.4460;-0.0510;-0.1423;0.0012
0001224906;-2.6264;-7.3023;4.4748;-0.0362;-0.1536;-0.0116
0001224975;-2.4948;-7.3622;4.3000;0.0658;-0.1302;-0.1166
0001224984;-2.4062;-7.5633;4.5131;0.0938;-0.1394;-0.1255
0001224996;-2.6073;-7.7381;4.5777;0.1376;-0.1335;-0.1454
0001225005;-2.5666;-7.7931;4.5610;0.1684;-0.1312;-0.1621
0001225018;-2.4732;-7.6423;4.4269;0.2177;-0.1335;-0.2138
0001225027;-2.2051;-7.5058;4.3718;0.2478;-0.1192;-0.2301
0001225039;-2.1835;-7.3550;4.1851;0.2705;-0.1010;-0.2429
0001225048;-2.2194;-7.3215;4.2737;0.2880;-0.0899;-0.2603
0001225057;-2.2960;-7.3047;4.2353;0.3020;-0.0690;-0.2818
0001225070;-2.4421;-7.3646;4.3096;0.3167;-0.0518;-0.3180
0001225079;-2.3367;-7.4220;4.2234;0.3312;-0.0488;-0.3485
0001225091;-2.4110;-7.3694;4.2689;0.3459;-0.0501;-0.3790
0001225100;-2.4181;-7.3981;4.3359;0.3512;-0.0518;-0.4002
0001225113;-2.7078;-7.3478;4.2976;0.3432;-0.0580;-0.4227
0001225122;-2.7485;-7.2736;4.3958;0.3232;-0.0710;-0.4286
0001225134;-2.7892;-7.2137;4.3455;0.2926;-0.0703;-0.4151
0001225143;-2.5091;-6.9623;4.3838;0.2654;-0.0710;-0.3870
0001225156;-2.5211;-7.0102;4.3000;0.2138;-0.0409;-0.3329
0001225165;-2.4205;-6.8905;4.1683;0.1725;-0.0145;-0.2946
0001225174;-2.6001;-6.7588;4.1563;0.1231;0.0071;-0.2510
0001225186;-3.0047;-7.0030;4.1827;0.0690;0.0152;-0.2034
0001225195;-2.9664;-6.9216;4.0175;0.0254;0.0277;-0.1488
0001225264;-2.6887;-7.1730;3.9289;-0.0352;-0.0077;-0.0633
0001225273;-2.5905;-7.1802;3.8954;-0.0368;-0.0072;-0.0624
0001225285;-2.3966;-7.0940;3.8666;-0.0609;0.0215;-0.0398
0001225294;-2.5307;-7.1108;3.8259;-0.0726;0.0505;-0.0181
0001225307;-2.6983;-6.9911;3.9289;-0.0923;0.0782;-0.0052
0001225316;-2.7174;-7.0102;3.9911;-0.0953;0.0735;-0.0292
0001225325;-2.7533;-7.2496;3.9840;-0.0894;0.0671;-0.0469
0001225337;-2.7102;-7.3334;3.9433;-0.0947;0.0492;-0.0633
0001225346;-2.6504;-7.4723;4.0151;-0.0919;0.0328;-0.0673
0001225359;-2.3679;-7.5609;4.1755;-0.0761;0.0237;-0.0765
0001225368;-2.3822;-7.7596;3.9193;-0.0593;0.0322;-0.0866
0001225380;-1.9992;-7.8314;3.8882;-0.0317;0.0803;-0.0983
0001225389;-2.0566;-7.8338;3.8523;0.0015;0.1230;-0.0954
0001225402;-2.3798;-7.9607;3.9504;0.0425;0.1607;-0.0777
0001225411;-2.7246;-8.0972;4.1204;0.0694;0.1668;-0.0707
0001225423;-2.8228;-8.4587;4.2928;0.1323;0.1370;-0.0882
0001225432;-2.4876;-8.4539;4.3622;0.1832;0.1314;-0.0953
0001225441;-2.5881;-8.6670;4.1922;0.2372;0.1271;-0.1030
0001225454;-2.4852;-8.3725;4.0821;0.3078;0.1247;-0.1138
0001225463;-2.6264;-8.1187;4.1659;0.3547;0.1238;-0.1251
0001225475;-2.6576;-7.8721;4.0677;0.3881;0.1100;-0.1363
0001225484;-2.4804;-7.7213;3.9696;0.4121;0.0955;-0.1543
0001225553;-2.2458;-7.2927;3.8259;0.3119;-0.0337;-0.2241
0001225562;-1.9297;-7.2880;3.7302;0.3158;-0.0278;-0.2244
0001225574;-1.6472;-7.2880;3.7062;0.3254;0.0045;-0.2101
0001225583;-1.8938;-7.3981;3.6009;0.3162;0.0365;-0.2213
0001225592;-2.0806;-7.4651;3.7206;0.2988;0.0737;-0.2617
0001225605;-2.7366;-7.7883;3.6895;0.2852;0.0814;-0.3090
0001225614;-3.1029;-7.6399;3.9241;0.2910;0.0593;-0.3695
0001225628;-3.2801;-7.8075;3.8786;0.2964;0.0103;-0.4912
0001225637;-3.0382;-8.1523;3.8235;0.3178;-0.0366;-0.5728
0001225650;-2.6935;-8.6694;3.6847;0.3652;-0.0781;-0.6390
0001225659;-2.7078;-9.0429;3.7661;0.4000;-0.0798;-0.6614
0001225671;-2.8515;-9.1794;4.0677;0.4446;-0.0922;-0.6696
0001225680;-2.6408;-9.0190;4.1420;0.4748;-0.1180;-0.6696
0001225693;-2.3415;-8.3151;4.0294;0.5059;-0.1520;-0.6356
0001225702;-2.0494;-8.1283;4.0701;0.5217;-0.1589;-0.6109
0001225711;-1.5395;-7.6734;4.0366;0.5195;-0.1490;-0.5850
0001225723;-1.3982;-7.5178;3.9648;0.5164;-0.1314;-0.5476
0001225732;-1.1636;-7.1730;3.8235;0.5088;-0.0962;-0.5303
0001225801;-2.7773;-7.4412;4.1228;0.3981;-0.1391;-0.5990
0001225810;-2.4828;-7.7189;4.1444;0.3885;-0.1632;-0.6017
0001225822;-2.0351;-7.9248;4.0558;0.3956;-0.2238;-0.5949
0001225831;-1.8124;-8.1977;4.0558;0.3978;-0.2178;-0.5713
0001225845;-1.3695;-8.2097;4.1061;0.4098;-0.1843;-0.5223
0001225854;-1.2378;-8.0685;3.9097;0.4045;-0.1384;-0.5101
0001225863;-1.3934;-8.0445;3.7182;0.3937;-0.0874;-0.4992
0001225876;-1.8507;-7.6806;3.9073;0.3701;-0.0377;-0.4928
0001225885;-2.2362;-7.5896;3.8810;0.3496;-0.0282;-0.5075
0001225897;-2.6193;-7.6710;3.9241;0.3240;-0.0352;-0.5301
0001225906;-2.7031;-7.7381;4.1922;0.3114;-0.0521;-0.5317
0001225919;-2.8491;-8.0565;4.0103;0.2767;-0.0473;-0.5039
0001225928;-2.9975;-8.1714;4.0199;0.2617;-0.0605;-0.4631
0001225940;-2.8611;-8.2528;3.9169;0.2625;-0.0995;-0.4066
0001225949;-2.5738;-8.2313;3.9528;0.2605;-0.1098;-0.3684
0001225962;-2.0159;-8.1044;3.8930;0.2864;-0.1180;-0.3293
0001225971;-1.7693;-8.0732;3.8283;0.2934;-0.0945;-0.2978
0001225980;-1.9321;-8.1618;3.8834;0.2775;-0.0449;-0.2715
0001225992;-2.1787;-7.9296;3.7445;0.2677;-0.0149;-0.2493
0001226001;-2.4876;-7.8003;3.7757;0.2438;0.0007;-0.2177
0001226014;-2.4517;-7.3789;3.9456;0.1951;0.0033;-0.1867
0001226023;-2.2434;-7.4484;3.8810;0.1749;-0.0183;-0.1488
0001226093;-3.0598;-8.3917;5.1188;0.4519;-0.0585;0.1612
0001226102;-3.1843;-8.0014;5.3391;0.4343;-0.0344;0.1573
0001226115;-3.5314;-7.8673;5.6934;0.3820;-0.0302;0.1645
0001226124;-3.4381;-8.2456;5.8442;0.3400;-0.0413;0.1893
0001226136;-3.3878;-8.5545;6.1411;0.3427;-0.0392;0.2304
0001226145;-3.5243;-8.7364;6.1914;0.3994;-0.0246;0.2169
0001226154;-3.7948;-9.3470;6.1387;0.4816;-0.0224;0.1800
0001226167;-3.6536;-10.2879;5.6455;0.6161;-0.0147;0.0917
0001226176;-2.6959;-10.1251;5.0996;0.7023;0.0264;0.0356
0001226188;-1.3527;-9.1387;4.7597;0.8565;0.1415;0.0081
0001226197;-0.9098;-8.3342;4.7597;0.9758;0.2300;0.0087
0001226210;-1.6616;-7.7165;5.7341;1.2205;0.2646;0.0679
0001226219;-3.1196;-8.4827;6.0813;1.4233;0.2305;0.1751
0001226228;-4.2353;-9.4044;5.4827;1.5721;0.2144;0.3192
0001226240;-4.1348;-10.3046;4.8507;1.6751;0.3289;0.5020
0001226249;-3.2585;-9.9862;4.6998;1.6839;0.4623;0.5840
0001226262;-1.2210;-6.5888;4.7357;1.6272;0.6979;0.5008
0001226271;-1.0415;-5.1787;4.8028;1.5276;0.8319;0.4105
0001226283;-2.0183;-3.9456;4.9416;1.3079;0.9357;0.3677
0001226292;-3.0095;-3.5243;5.2218;1.1029;0.9128;0.3758
0001226305;-4.0582;-3.2010;5.4372;0.7413;0.7486;0.3945
0001226314;-4.3814;-3.5889;5.5952;0.4680;0.6320;0.4134
0001226323;-4.5418;-4.5155;5.5426;0.2445;0.5344;0.4275
0001226393;-1.8076;-9.1626;3.8044;0.3549;0.2646;0.4703
0001226402;-2.0399;-9.0190;3.8307;0.4816;0.2722;0.4351
0001226415;-2.8395;-8.6622;3.5961;0.6532;0.2388;0.3569
0001226424;-3.4477;-8.1666;3.6464;0.7365;0.2048;0.3180
0001226436;-4.1611;-7.5465;3.8116;0.8306;0.1368;0.2674
0001226445;-4.4843;-6.8833;3.9097;0.8704;0.0632;0.2322
0001226458;-4.2425;-6.0813;3.9385;0.8861;-0.0382;0.1753
0001226467;-3.7972;-5.6407;4.0725;0.8619;-0.0741;0.1307
0001226476;-3.4046;-5.2601;4.1228;0.8378;-0.0891;0.0779
0001226488;-3.0885;-5.3702;4.1348;0.7935;-0.0870;0.0087
0001226497;-2.8970;-5.3343;4.1324;0.7428;-0.0576;-0.0229
0001226510;-2.8347;-5.2816;4.1396;0.6800;-0.0238;-0.0665
0001226519;-2.9640;-5.2984;4.2306;0.6470;-0.0063;-0.0857
0001226531;-3.2992;-5.1691;4.0797;0.6087;-0.0060;-0.1081
0001226540;-3.7373;-5.1044;3.8762;0.5597;-0.0252;-0.1160
0001226553;-3.9385;-4.9081;3.8834;0.4872;-0.0857;-0.1418
0001226562;-3.9983;-4.8387;3.6943;0.4439;-0.1354;-0.1731
0001226571;-3.7972;-4.9560;3.7062;0.3981;-0.1724;-0.1835
0001226583;-3.4572;-5.0159;3.5291;0.3655;-0.2164;-0.2046
0001226592;-3.1795;-5.3008;3.4740;0.3467;-0.2292;-0.2044
0001226605;-2.9856;-5.5474;3.4596;0.3455;-0.2296;-0.1989
0001226614;-2.9353;-5.5330;3.5482;0.3435;-0.2257;-0.1925
0001226684;-2.7270;-5.2744;3.8978;0.2685;-0.3383;-0.0372
0001226693;-2.5522;-5.2864;3.9863;0.2385;-0.3591;-0.0317
0001226706;-2.8012;-5.3510;4.1970;0.1976;-0.3782;-0.0189
0001226715;-2.6073;-5.0829;4.2329;0.1640;-0.3874;-0.0103
0001226727;-2.3391;-5.0374;4.4053;0.1235;-0.3856;0.0027
0001226736;-2.0542;-4.9321;4.3910;0.0975;-0.3733;0.0040
0001226745;-1.8100;-5.0087;4.4317;0.0564;-0.3281;0.0266
0001226758;-1.6065;-5.0494;4.4101;0.0330;-0.2677;0.0441
0001226767;-1.3360;-5.1978;4.4628;0.0205;-0.2320;0.0602
0001226779;-1.6328;-5.6431;4.3048;0.0083;-0.1709;0.0850
0001226788;-1.5921;-5.8155;4.3167;0.0047;-0.1334;0.1196
0001226801;-1.9968;-6.0118;4.1803;0.0264;-0.1075;0.1616
0001226810;-2.0806;-6.0190;4.0869;0.0476;-0.0905;0.1783
0001226822;-2.3128;-5.8035;4.0247;0.0762;-0.0560;0.1712
0001226831;-2.5594;-5.8347;4.0151;0.0971;-0.0281;0.1605
0001226840;-2.8515;-5.8251;3.9121;0.1082;-0.0057;0.1486
0001226853;-3.2441;-5.7437;3.9409;0.1254;-0.0063;0.1100
0001226862;-3.3878;-5.6862;3.9600;0.1332;-0.0304;0.0761
0001226874;-3.4955;-5.6312;4.0965;0.1255;-0.0585;0.0454
0001226883;-3.6679;-5.6575;4.1731;0.1067;-0.0862;0.0172
0001226896;-3.8618;-5.4372;4.4173;0.0769;-0.1354;-0.0111
0001226905;-3.4884;-5.1332;4.4317;0.0504;-0.1669;-0.0289
0001226975;-2.2769;-6.1770;4.3598;0.0990;-0.1486;-0.1119
0001226984;-2.4229;-6.1435;4.4556;0.1190;-0.1419;-0.1057
0001226993;-2.4445;-5.8514;4.4580;0.1306;-0.1440;-0.1037
0001227006;-2.4253;-5.7102;4.4652;0.1379;-0.1403;-0.1102
0001227015;-2.2553;-5.5857;4.5442;0.1347;-0.1424;-0.1118
0001227027;-2.3008;-5.6623;4.4532;0.1386;-0.1278;-0.1231
0001227036;-2.2889;-5.5809;4.3287;0.1319;-0.1100;-0.1318
0001227049;-2.3679;-5.6503;4.2737;0.1408;-0.0798;-0.1400
0001227058;-2.4038;-5.5737;4.2808;0.1532;-0.0614;-0.1435
0001227070;-2.5259;-5.8107;4.3359;0.1535;-0.0522;-0.1443
0001227079;-2.6193;-5.7581;4.3263;0.1484;-0.0482;-0.1355
0001227092;-2.7940;-5.8371;4.2162;0.1459;-0.0590;-0.1231
0001227101;-2.7246;-5.7652;4.1970;0.1396;-0.0453;-0.1176
0001227110;-2.3320;-5.7700;4.1444;0.1442;-0.0374;-0.1222
0001227122;-2.1979;-5.5665;4.1492;0.1403;0.0021;-0.1274
0001227131;-2.4253;-5.6048;4.1348;0.1496;0.0221;-0.1351
0001227144;-2.5163;-5.5019;4.2497;0.1428;0.0382;-0.1320
0001227153;-2.7988;-5.3702;4.2808;0.1367;0.0245;-0.1360
0001227165;-2.8730;-5.5354;3.9696;0.1190;-0.0019;-0.1312
0001227174;-2.9808;-5.7126;4.0199;0.1050;-0.0199;-0.1151
0001227187;-2.5594;-5.6551;3.8666;0.1148;-0.0529;-0.0954
0001227196;-2.5546;-5.7293;3.9217;0.1102;-0.0596;-0.0761
0001227266;-2.6791;-5.5019;4.5155;0.0806;-0.3841;0.0412
0001227275;-2.1524;-5.6743;4.3766;0.0850;-0.3865;0.0200
0001227284;-1.6927;-5.6503;4.4365;0.0917;-0.3444;0.0181
0001227297;-1.6305;-5.7964;4.5250;0.1274;-0.2597;0.0035
0001227306;-1.8483;-5.9975;4.5226;0.1616;-0.2233;-0.0024
0001227317;-2.0853;-5.8203;4.5514;0.2086;-0.1928;0.0027
0001227326;-2.4134;-5.7557;4.6160;0.2414;-0.1904;0.0091
0001227340;-2.9305;-5.7197;4.6017;0.2589;-0.2345;-0.0081
0001227349;-3.0789;-5.7269;4.5729;0.2625;-0.2658;-0.0230
0001227362;-2.6145;-5.6527;4.5897;0.2782;-0.2920;-0.0489
0001227371;-2.4684;-5.5785;4.4963;0.3010;-0.2840;-0.0702
0001227380;-2.1189;-5.5905;4.5418;0.3203;-0.2358;-0.0967
0001227392;-2.1428;-5.6479;4.5346;0.3508;-0.1697;-0.1355
0001227401;-2.0662;-5.4971;4.4796;0.3705;-0.1247;-0.1567
0001227414;-2.2122;-5.3798;4.4388;0.3790;-0.0823;-0.1765
0001227423;-2.7054;-5.0566;4.4221;0.3778;-0.0839;-0.1809
0001227435;-2.7342;-4.4149;4.4245;0.3596;-0.1288;-0.1779
0001227444;-2.8132;-4.2306;4.4772;0.3372;-0.1701;-0.1764
0001227457;-2.8252;-4.4125;4.3670;0.2766;-0.2206;-0.1843
0001227466;-2.6073;-4.5681;4.2928;0.2493;-0.2344;-0.1949
0001227478;-2.4349;-5.0470;4.2258;0.2194;-0.2282;-0.1739
0001227487;-2.2745;-5.4827;4.1899;0.2186;-0.2130;-0.1516
0001227496;-2.1691;-5.6695;4.0941;0.2232;-0.1980;-0.1242
0001227565;-2.2601;-5.5019;4.0414;0.3214;-0.2288;-0.0869
0001227574;-2.0446;-5.3654;4.0486;0.3409;-0.2269;-0.0978
0001227586;-1.9321;-5.6455;3.9552;0.3547;-0.2156;-0.1070
0001227595;-1.6783;-5.8826;3.8810;0.3669;-0.1907;-0.1003
0001227608;-1.7765;-6.0765;4.0318;0.3929;-0.1721;-0.0889
0001227617;-1.6879;-6.3015;4.0031;0.4100;-0.1640;-0.0761
0001227629;-1.6783;-6.3159;4.0294;0.4329;-0.1607;-0.0690
0001227638;-1.4533;-6.2297;3.9911;0.4389;-0.1514;-0.0750
0001227651;-1.2330;-6.0956;3.9552;0.4521;-0.1375;-0.0893
0001227660;-1.1061;-5.8658;4.0151;0.4656;-0.1220;-0.0938
0001227669;-1.0487;-5.6288;4.0390;0.4695;-0.0977;-0.1046
0001227681;-1.0223;-5.5737;3.9385;0.4430;-0.0609;-0.1088
0001227690;-0.9864;-5.3702;4.0606;0.4173;-0.0337;-0.0967
0001227703;-1.3791;-5.3223;4.0749;0.3848;0.0164;-0.0662
0001227712;-1.3623;-5.2529;4.0247;0.3628;0.0326;-0.0490
0001227724;-1.7549;-5.3151;3.8954;0.3122;0.0565;-0.0211
0001227733;-1.7621;-5.3008;3.9480;0.2727;0.0606;-0.0001
0001227746;-2.1476;-5.3319;3.9552;0.2190;0.0470;0.0281
0001227755;-2.0423;-5.1906;3.9768;0.1731;0.0140;0.0557
0001227764;-2.5259;-5.0901;4.0654;0.1459;-0.0256;0.0901
0001227776;-2.7557;-4.8147;4.1084;0.0789;-0.0674;0.1616
0001227785;-2.6432;-4.6783;4.1084;0.0381;-0.1162;0.2120
0001227854;-1.5419;-4.6639;4.0510;-0.2621;-0.0869;0.2943
0001227863;-1.9632;-4.5250;4.0677;-0.2701;-0.0741;0.3376
0001227875;-2.6791;-4.4053;4.2329;-0.2787;-0.0843;0.4237
0001227884;-2.9856;-4.3239;4.2186;-0.2718;-0.1227;0.4651
0001227897;-2.9832;-4.4628;4.3215;-0.2782;-0.1891;0.4687
0001227906;-2.8347;-4.8435;4.4508;-0.2778;-0.2337;0.4391
0001227915;-2.1572;-4.8554;4.4748;-0.2671;-0.2630;0.3880
0001227927;-1.4748;-5.1763;4.3048;-0.2534;-0.2344;0.3287
0001227936;-1.1277;-5.6360;4.2904;-0.2292;-0.1973;0.2809
0001227949;-1.0702;-5.7245;4.1563;-0.1748;-0.1286;0.2414
0001227958;-1.4461;-5.8299;4.3000;-0.1271;-0.0945;0.2233
0001227970;-1.7885;-5.6455;4.5466;-0.0742;-0.0895;0.1968
0001227979;-1.9872;-5.7724;4.8674;-0.0550;-0.1088;0.1760
0001227992;-2.3463;-5.7054;5.1643;-0.0408;-0.1383;0.1375
0001228001;-2.3248;-5.5186;5.2912;-0.0424;-0.1524;0.1139
0001228013;-2.2194;-5.3822;5.6024;-0.0404;-0.1699;0.0918
0001228022;-2.0782;-5.1404;6.0478;-0.0381;-0.2001;0.0702
0001228031;-2.4612;-4.9584;6.5242;-0.0586;-0.2114;0.0394
0001228044;-2.5043;-4.5250;7.1108;-0.1356;-0.2362;-0.0665
0001228053;-2.5738;-4.1563;7.2065;-0.2212;-0.2631;-0.1504
0001228065;-2.1189;-3.7373;6.4620;-0.2641;-0.2823;-0.2148
0001228074;-1.1612;-4.0175;6.1651;-0.2399;-0.2350;-0.1943
0001228143;-2.4157;-5.2002;5.0829;-0.0855;0.4089;-0.0843
0001228152;-3.0981;-4.6543;5.3750;-0.1066;0.3857;-0.1055
0001228164;-3.9744;-4.3000;5.4492;-0.1807;0.2890;-0.1584
0001228173;-4.1228;-4.0223;5.7269;-0.2718;0.2106;-0.2104
0001228186;-4.6902;-3.8068;5.8658;-0.4187;0.1082;-0.3118
0001228195;-4.8291;-3.7230;5.9041;-0.5163;0.0400;-0.3798
0001228204;-4.9392;-3.9887;5.9951;-0.5963;-0.0230;-0.4161
0001228216;-4.0294;-4.5586;5.6623;-0.6427;-0.0842;-0.4561
0001228225;-3.2441;-5.4420;5.3582;-0.6014;-0.0793;-0.4594
0001228238;-1.8196;-6.3901;5.0494;-0.4425;-0.0281;-0.4549
0001228247;-0.8787;-6.5577;5.1332;-0.3262;-0.0063;-0.4678
0001228259;-1.1636;-6.7109;6.2153;-0.2643;-0.0188;-0.5161
0001228268;-2.5307;-5.7700;6.9576;-0.3391;-0.0560;-0.5738
0001228281;-4.0151;-3.5889;7.0916;-0.4558;-0.0584;-0.6595
0001228290;-4.6783;-1.8100;6.8690;-0.4867;-0.0092;-0.7334
0001228302;-3.6176;-1.9896;5.6096;-0.4678;-0.0037;-0.7305
0001228311;-2.5881;-4.2593;5.3127;-0.4547;0.0242;-0.6556
0001228324;-1.8028;-6.6391;5.5138;-0.3901;0.1243;-0.5566
0001228333;-1.7885;-7.4627;5.2050;-0.3175;0.1756;-0.5061
0001228342;-2.4301;-7.9823;4.9991;-0.2494;0.1891;-0.4864
0001228354;-3.0358;-7.5705;5.3558;-0.1859;0.1773;-0.4918
0001228363;-3.3351;-6.8929;5.5019;-0.1647;0.1716;-0.5009
0001228432;-1.9728;-5.7317;4.9201;-0.2613;0.2266;-0.1699
0001228441;-2.3727;-5.8682;4.9584;-0.2274;0.2499;-0.1419
0001228453;-2.5857;-5.6240;4.9105;-0.2120;0.2650;-0.0931
0001228462;-2.7174;-5.3319;4.9225;-0.2094;0.2490;-0.0666
0001228475;-3.0454;-5.1571;4.9895;-0.2397;0.2081;-0.0414
0001228484;-2.9521;-4.9009;4.8842;-0.2834;0.1661;-0.0362
0001228496;-2.6839;-5.0111;4.9368;-0.3567;0.1163;-0.0438
0001228505;-2.6552;-5.3822;4.7645;-0.3941;0.0730;-0.0394
0001228514;-2.5714;-5.6958;4.7860;-0.4267;0.0336;-0.0313
0001228527;-2.3607;-6.1699;4.7980;-0.4398;-0.0099;0.0001
0001228536;-2.3032;-6.1076;4.8650;-0.4345;-0.0306;0.0117
0001228548;-2.0806;-5.9256;4.9273;-0.4393;-0.0364;0.0286
0001228557;-2.2098;-6.1124;4.9680;-0.4390;-0.0422;0.0256
0001228570;-2.2122;-5.9927;4.9991;-0.4423;-0.0504;0.0185
0001228579;-2.3966;-6.1579;4.8100;-0.4537;-0.0485;0.0265
0001228591;-2.2505;-6.4141;4.8076;-0.4662;-0.0360;0.0585
0001228600;-2.2434;-6.4787;4.7956;-0.4727;-0.0218;0.0926
0001228613;-2.2075;-6.5817;4.8195;-0.4714;0.0109;0.1384
0001228622;-2.0423;-6.6152;4.8171;-0.4731;0.0256;0.1671
0001228631;-1.8435;-6.5841;4.6902;-0.4836;0.0409;0.1892
0001228643;-1.9465;-6.6990;4.6735;-0.4999;0.0525;0.1929
0001228652;-1.8076;-6.6535;4.6759;-0.5085;0.0612;0.1913
0001228721;-2.3918;-6.8714;4.5442;-0.5521;0.0942;0.1789
0001228730;-2.5642;-6.8091;4.5969;-0.5585;0.1037;0.1825
0001228742;-2.5929;-6.6798;4.5466;-0.5605;0.1065;0.1843
0001228751;-2.6719;-6.7828;4.4796;-0.5624;0.1006;0.1781
0001228765;-2.7414;-6.7325;4.4724;-0.5722;0.1029;0.1857
0001228774;-2.5498;-6.6679;4.3814;-0.5868;0.1074;0.1880
0001228783;-2.6336;-6.7373;4.2976;-0.5958;0.0886;0.1896
0001228796;-2.8323;-6.6631;4.3790;-0.6201;0.0739;0.1923
0001228805;-2.7677;-6.7133;4.3766;-0.6251;0.0622;0.1956
0001228817;-2.7725;-6.6559;4.3910;-0.6422;0.0550;0.2028
0001228826;-2.5666;-6.5146;4.4245;-0.6576;0.0633;0.2117
0001228839;-2.4876;-6.6559;4.4317;-0.6703;0.0621;0.2306
0001228848;-2.4565;-6.7325;4.3862;-0.6821;0.0537;0.2300
0001228860;-2.9401;-6.9360;4.3144;-0.6981;0.0494;0.2505
0001228869;-3.1220;-7.0749;4.2377;-0.7032;0.0320;0.2594
0001228878;-2.9616;-6.8474;4.1563;-0.7079;0.0152;0.2659
0001228891;-3.2058;-7.0006;4.3574;-0.7124;-0.0008;0.2759
0001228900;-3.1268;-6.9815;4.3455;-0.7112;-0.0119;0.2879
0001228912;-3.2825;-7.1180;4.3024;-0.7084;-0.0184;0.3022
0001228921;-2.9042;-7.0485;4.2832;-0.7039;-0.0226;0.3078
0001228990;-2.9856;-6.4069;4.1827;-0.8644;0.0132;0.3497
0001228999;-2.8659;-6.4883;4.3024;-0.8751;0.0157;0.3481
0001229011;-2.7485;-6.6750;4.2138;-0.8924;-0.0005;0.3479
0001229020;-2.7438;-6.5817;4.2760;-0.9048;-0.0095;0.3349
0001229029;-2.6624;-6.7229;4.3455;-0.9200;-0.0107;0.3305
0001229042;-2.7007;-6.5338;4.1300;-0.9449;-0.0217;0.3192
0001229051;-2.6624;-6.3614;4.1037;-0.9667;-0.0420;0.3206
0001229063;-2.8156;-6.2776;4.0270;-0.9998;-0.0470;0.3234
0001229072;-2.8060;-6.3351;4.0821;-1.0194;-0.0465;0.3431
0001229085;-2.8323;-6.5338;4.1324;-1.0389;-0.0518;0.3533
0001229094;-2.8347;-6.6990;4.1132;-1.0407;-0.0482;0.3628
0001229106;-2.7294;-6.7349;4.1037;-1.0388;-0.0449;0.3615
0001229115;-2.6432;-6.7181;4.0893;-1.0425;-0.0545;0.3517
0001229128;-2.6671;-6.8833;4.1683;-1.0460;-0.0737;0.3311
0001229137;-2.6791;-6.9312;4.1468;-1.0353;-0.0833;0.3170
0001229146;-2.6552;-6.9959;4.1611;-1.0241;-0.0811;0.3156
0001229158;-2.5857;-7.0844;4.1084;-0.9912;-0.0841;0.2996
0001229167;-2.6647;-7.2903;4.1731;-0.9687;-0.0837;0.2906
0001229180;-2.8587;-7.5753;4.1180;-0.9057;-0.0937;0.2619
0001229189;-2.9856;-7.7452;4.2665;-0.8524;-0.1077;0.2397
0001229201;-2.7198;-7.9823;4.1348;-0.7703;-0.1013;0.2153
0001229210;-2.5067;-7.9655;4.2138;-0.7048;-0.0955;0.1889
0001229278;-2.9137;-7.8961;4.4652;-0.4262;-0.0886;0.0505
0001229287;-2.6408;-7.9416;4.3910;-0.3984;-0.0990;0.0448
0001229299;-2.5331;-7.9344;4.3359;-0.3691;-0.1051;0.0422
0001229308;-2.5115;-7.7764;4.3718;-0.3597;-0.0970;0.0558
0001229317;-2.4900;-7.4388;4.3239;-0.3531;-0.0965;0.0653
0001229330;-2.6671;-7.2425;4.2880;-0.3608;-0.0775;0.0973
0001229339;-2.8347;-7.1563;4.2234;-0.3758;-0.0730;0.1260
0001229351;-3.0143;-7.0533;4.3862;-0.3981;-0.0910;0.1581
0001229360;-2.9904;-7.0725;4.3503;-0.3969;-0.1053;0.1779
0001229373;-2.9066;-7.2664;4.3048;-0.3984;-0.1224;0.2017
0001229382;-2.7318;-7.1850;4.3215;-0.4025;-0.1207;0.2224
0001229394;-2.5235;-7.2592;4.2665;-0.4002;-0.1268;0.2345
0001229403;-2.5426;-7.2305;4.3144;-0.4010;-0.1296;0.2274
0001229416;-2.4612;-7.0892;4.3072;-0.3858;-0.1282;0.2153
0001229425;-2.5043;-7.4292;4.1563;-0.3770;-0.1290;0.2108
0001229434;-2.6815;-7.6686;4.0893;-0.3543;-0.1475;0.1832
0001229446;-2.6456;-7.7261;4.2018;-0.3238;-0.1673;0.1452
0001229455;-2.5905;-7.8290;4.0989;-0.2907;-0.1685;0.1163
0001229468;-2.4277;-7.6638;4.2497;-0.2392;-0.1475;0.0714
0001229477;-2.1715;-7.5824;4.0127;-0.2020;-0.1328;0.0337
0001229489;-2.2649;-7.4603;3.8379;-0.1553;-0.0963;-0.0109
0001229498;-2.2362;-7.4915;3.8427;-0.1167;-0.0746;-0.0392
0001229567;-2.5426;-7.0916;3.9648;0.0777;-0.0277;-0.2177
0001229576;-2.4325;-7.1467;3.9480;0.0809;-0.0336;-0.2302
0001229588;-2.5091;-7.1371;3.9672;0.1074;-0.0432;-0.2169
0001229597;-2.2434;-7.1730;3.9433;0.1366;-0.0560;-0.1935
0001229606;-1.9537;-7.0509;4.0366;0.1648;-0.0464;-0.1384
0001229619;-1.7454;-7.0102;4.0270;0.2129;-0.0337;-0.0541
0001229628;-1.6281;-7.1228;3.9049;0.2593;-0.0401;-0.0069
0001229640;-1.4485;-7.2209;4.1851;0.3119;-0.0753;0.0342
0001229649;-1.2498;-7.4316;4.3431;0.3455;-0.1025;0.0333
0001229662;-0.9313;-7.6854;4.0342;0.3960;-0.1092;0.0028
0001229671;-0.9098;-7.8841;3.9002;0.4421;-0.0790;-0.0353
0001229683;-0.5411;-7.6974;3.7014;0.5064;-0.0236;-0.0951
0001229692;-0.7733;-7.5824;3.4812;0.5745;0.0105;-0.1805
0001229701;-1.2258;-7.5872;3.3591;0.6059;0.0458;-0.2825
0001229714;-1.8723;-7.6974;3.2848;0.6331;0.0646;-0.4702
0001229723;-2.3008;-7.4244;3.4931;0.6229;0.0586;-0.5826
0001229735;-3.0167;-6.9983;3.6966;0.5824;0.0160;-0.7021
0001229744;-3.3208;-6.6822;3.8283;0.5297;-0.0310;-0.7541
0001229757;-2.9999;-6.2944;3.9097;0.4343;-0.1318;-0.7953
0001229766;-2.5929;-6.5242;3.7948;0.3777;-0.2017;-0.7949
0001229778;-2.0758;-7.1922;3.7182;0.3244;-0.2538;-0.7280
0001229787;-1.8507;-7.7381;3.7421;0.3110;-0.2429;-0.6827
0001229856;-2.4708;-7.2808;4.2784;0.3732;-0.2876;-0.6316
0001229865;-2.0566;-7.3263;4.3622;0.3664;-0.2966;-0.6455
0001229874;-1.6041;-7.2880;4.3359;0.3609;-0.2942;-0.6904
0001229886;-1.4892;-7.4508;4.3311;0.3468;-0.2726;-0.7353
0001229895;-1.2043;-7.2065;4.2665;0.3404;-0.2236;-0.7615
0001229908;-1.5969;-7.2975;4.5107;0.3240;-0.1621;-0.7885
0001229917;-1.8220;-7.2089;4.6184;0.3087;-0.1158;-0.7923
0001229929;-2.2362;-7.4891;4.6017;0.2907;-0.0689;-0.7783
0001229938;-2.4181;-7.6567;4.4676;0.2976;-0.0593;-0.7445
0001229951;-2.5163;-7.8123;4.5155;0.3034;-0.0485;-0.6423
0001229960;-2.1691;-7.6734;4.4005;0.3167;-0.0553;-0.5622
0001229972;-1.5682;-7.4292;4.3048;0.3279;-0.0370;-0.4253
0001229981;-1.2641;-6.5170;4.1922;0.3437;-0.0069;-0.3567
0001229990;-0.9912;-5.7700;4.3000;0.3557;0.0209;-0.3417
0001230003;-0.5866;-5.9161;4.2401;0.2653;0.0931;-0.3427
0001230012;-0.9146;-6.8953;4.0606;0.1705;0.1603;-0.3280
0001230024;-0.9529;-7.2137;3.9289;0.1299;0.2264;-0.2374
0001230033;-0.3543;-7.3741;4.3239;0.1593;0.1981;-0.0031
0001230046;-1.0846;-7.2592;4.7525;0.2337;0.2140;0.2441
0001230055;-1.5299;-7.6231;4.8818;0.2678;0.1709;0.3039
0001230067;-2.1093;-8.5114;5.3678;0.3186;0.0153;0.3785
0001230076;-2.4253;-9.2823;6.0430;0.3980;-0.1069;0.4194
0001230085;-2.4229;-9.7683;6.5290;0.4840;-0.1893;0.4538
0001230154;-4.2066;-11.7268;6.0334;1.4959;0.4159;0.7626
0001230163;-3.3950;-12.1913;4.8937;1.5435;0.6386;0.9156
0001230175;-1.0702;-11.5688;4.4700;1.7004;0.9454;1.2165
0001230184;0.8667;-8.4060;3.7469;1.7624;1.1635;1.2910
0001230197;1.4916;-4.1994;3.3662;1.7359;1.5593;1.2756
0001230206;0.5555;-2.9018;3.0909;1.6759;1.6658;1.2328
0001230215;-0.8906;-2.2553;2.8659;1.5900;1.6510;1.2180
0001230227;-3.6081;-1.7526;2.6576;1.4396;1.5051;1.1948
0001230236;-5.6551;-1.0942;2.9808;1.2806;1.3458;1.1222
0001230250;-8.7628;-1.2546;4.4388;0.9559;1.1740;0.9258
0001230259;-9.9695;-1.6759;4.7716;0.7262;1.0639;0.7811
0001230272;-10.4507;-2.9640;4.0797;0.4509;0.7703;0.5672
0001230281;-10.0485;-3.9887;3.5099;0.3179;0.4434;0.4323
0001230293;-9.2344;-5.4205;3.4788;0.1903;-0.0260;0.2233
0001230302;-7.9176;-6.4907;3.7565;0.1625;-0.3381;0.0410
0001230311;-6.3662;-7.3287;3.9935;0.1916;-0.5323;-0.1343
0001230324;-4.2904;-8.5018;4.1899;0.3090;-0.5750;-0.3728
0001230333;-2.8443;-8.8298;4.0606;0.4606;-0.4872;-0.5145
0001230345;-1.8004;-8.4994;3.5602;0.6564;-0.3216;-0.6494
0001230354;-1.2785;-7.8745;3.1723;0.8066;-0.2232;-0.7032
0001230367;-1.6376;-7.1802;3.3088;1.0144;-0.1512;-0.7394
0001230376;-2.2721;-6.9288;3.4237;1.1185;-0.1263;-0.7265
0001230446;-2.4876;-5.6216;3.8930;1.3454;-0.6354;-0.6479
0001230455;-1.7430;-5.0613;3.7948;1.3117;-0.5852;-0.6540
0001230468;-1.5419;-4.7453;3.7709;1.2613;-0.5021;-0.6370
0001230477;-1.6257;-4.5418;3.8858;1.2297;-0.4686;-0.6097
0001230486;-1.7142;-4.5921;3.8834;1.1828;-0.4357;-0.5593
0001230498;-2.0734;-4.5418;3.8475;1.1369;-0.4094;-0.4955
0001230507;-2.1739;-4.4963;3.9576;1.0812;-0.3889;-0.4445
0001230520;-2.6767;-4.6112;3.8834;1.0107;-0.3904;-0.4033
0001230529;-2.5977;-4.4963;3.9002;0.9533;-0.4022;-0.3869
0001230541;-2.6935;-4.5346;3.9409;0.8772;-0.4028;-0.3607
0001230550;-2.6432;-4.3694;4.0582;0.8160;-0.3974;-0.3560
0001230563;-2.6360;-4.5753;4.1228;0.7296;-0.3620;-0.3495
0001230572;-2.4684;-4.6735;4.0869;0.6763;-0.3300;-0.3400
0001230581;-2.3104;-4.7621;3.9241;0.6291;-0.3166;-0.3521
0001230593;-2.3535;-4.9704;3.9648;0.5801;-0.3054;-0.3405
0001230602;-2.1931;-4.9153;4.0558;0.5548;-0.2710;-0.3335
0001230615;-2.3559;-5.0781;4.1635;0.5212;-0.2491;-0.3432
0001230624;-2.1715;-5.1236;4.1061;0.5059;-0.2389;-0.3433
0001230636;-2.0710;-5.1787;4.1922;0.4843;-0.2086;-0.3120
0001230645;-1.8603;-5.1380;4.2832;0.4784;-0.1905;-0.2923
0001230658;-2.0734;-5.3774;4.3191;0.4627;-0.1482;-0.2526
0001230667;-1.9441;-5.5641;4.3598;0.4542;-0.1479;-0.2490
0001230736;-2.6121;-6.6319;4.1803;0.4991;-0.1282;-0.0657
0001230745;-2.7270;-6.7373;4.2234;0.5236;-0.1431;-0.0505
0001230754;-2.8228;-6.3686;4.3311;0.5203;-0.1539;-0.0477
0001230767;-2.9880;-6.2393;4.6328;0.5144;-0.1579;-0.0586
0001230776;-2.8994;-5.8849;4.5226;0.4982;-0.1496;-0.0733
0001230788;-3.0933;-5.7126;4.6831;0.4676;-0.1514;-0.0969
0001230797;-2.8611;-5.7078;4.8267;0.4493;-0.1700;-0.1159
0001230810;-3.2010;-5.7581;4.8267;0.4167;-0.1763;-0.1467
0001230819;-3.4141;-5.8706;4.8698;0.3937;-0.1748;-0.1691
0001230831;-3.1388;-5.8395;4.9847;0.3640;-0.2049;-0.2176
0001230840;-2.9928;-5.8610;4.9081;0.3397;-0.2306;-0.2300
0001230853;-3.0047;-5.9304;4.8507;0.3176;-0.2637;-0.2559
0001230862;-2.8180;-5.8131;4.8866;0.2899;-0.2649;-0.2634
0001230871;-2.9090;-5.7964;4.8914;0.2669;-0.2771;-0.2737
0001230883;-2.9042;-5.6599;4.8890;0.2332;-0.2935;-0.2675
0001230892;-2.6288;-5.4372;4.8937;0.2025;-0.2960;-0.2485
0001230905;-2.6743;-5.6024;4.8794;0.1631;-0.2950;-0.2354
0001230914;-2.5091;-5.6192;4.7525;0.1471;-0.2895;-0.2218
0001230926;-2.3774;-5.7676;4.7788;0.1307;-0.2880;-0.2120
0001230935;-2.4181;-5.9616;4.6040;0.1298;-0.2850;-0.2077
0001230948;-2.2553;-5.9017;4.5945;0.1383;-0.2745;-0.2081
0001230957;-2.3535;-6.0238;4.6112;0.1447;-0.2742;-0.2142
0001231027;-2.0686;-5.7102;4.4939;0.1611;-0.1701;-0.1696
0001231036;-2.0494;-5.6910;4.3886;0.1616;-0.1575;-0.1611
0001231045;-2.1883;-5.6886;4.4221;0.1699;-0.1482;-0.1529
0001231058;-2.1141;-5.6886;4.3790;0.1676;-0.1206;-0.1426
0001231067;-2.0686;-5.7389;4.1563;0.1589;-0.1009;-0.1192
0001231079;-1.9800;-5.7317;4.2234;0.1525;-0.0735;-0.0979
0001231088;-2.1931;-5.7437;4.2018;0.1544;-0.0638;-0.0822
0001231101;-2.2913;-5.4205;4.1420;0.1243;-0.0518;-0.0481
0001231110;-2.3535;-5.3295;4.1803;0.1061;-0.0524;-0.0278
0001231122;-2.1955;-5.1404;4.1587;0.0763;-0.0516;-0.0163
0001231131;-2.4062;-5.2122;4.1300;0.0385;-0.0269;-0.0068
0001231144;-2.4110;-5.4085;4.0318;0.0128;-0.0080;0.0071
0001231153;-2.3990;-5.5186;3.9480;0.0007;0.0061;0.0160
0001231162;-2.2098;-5.4660;3.8427;-0.0083;0.0296;0.0246
0001231174;-2.3415;-5.4947;3.8523;-0.0192;0.0574;0.0414
0001231183;-2.3846;-5.3798;3.7948;-0.0294;0.0691;0.0568
0001231196;-2.6911;-5.4540;3.7086;-0.0448;0.0618;0.0802
0001231205;-2.7557;-5.5354;3.7014;-0.0561;0.0414;0.0935
0001231217;-2.5953;-5.6144;3.5961;-0.0751;0.0212;0.1051
0001231226;-2.4612;-5.4971;3.6296;-0.0829;0.0285;0.1212
0001231239;-2.0877;-5.4468;3.6990;-0.1047;0.0762;0.1327
0001231248;-2.2505;-5.5019;3.6895;-0.1066;0.1164;0.1392
0001231257;-2.0662;-5.4588;3.6344;-0.1015;0.1545;0.1348
0001231327;-2.5091;-4.1922;5.1092;-0.6350;0.0879;0.1725
0001231336;-2.3343;-4.4317;5.1715;-0.7358;0.0949;0.1899
0001231349;-1.7645;-4.6160;4.9967;-0.8436;0.1403;0.2233
0001231358;-1.5490;-4.9512;4.8195;-0.8805;0.1623;0.2317
0001231370;-1.6305;-5.4564;4.3790;-0.8736;0.2344;0.2491
0001231379;-1.8866;-5.9735;3.8930;-0.8112;0.2852;0.2406
0001231392;-2.4876;-6.7828;3.5769;-0.7053;0.3433;0.2052
0001231401;-2.7246;-7.2760;3.2298;-0.6007;0.3419;0.1696
0001231410;-3.1268;-7.8721;3.0813;-0.5005;0.3572;0.1572
0001231422;-3.6200;-7.7500;3.1412;-0.3527;0.3647;0.1324
0001231431;-3.9648;-7.4771;3.0143;-0.2630;0.3540;0.1086
0001231444;-4.5059;-6.7469;3.1915;-0.1597;0.2859;0.0464
0001231453;-4.7118;-6.2082;3.3327;-0.1279;0.2232;-0.0045
0001231465;-4.6017;-5.4923;3.6320;-0.1144;0.1230;-0.0738
0001231474;-4.7262;-5.3630;3.6583;-0.1340;0.0632;-0.1098
0001231487;-4.1851;-5.0973;3.7661;-0.1791;-0.0329;-0.1420
0001231496;-3.7637;-5.0111;3.7350;-0.2157;-0.1067;-0.1359
0001231505;-3.3974;-4.8100;3.8140;-0.2755;-0.1783;-0.0943
0001231517;-2.9880;-4.7166;4.1300;-0.3585;-0.2761;-0.0192
0001231526;-2.3798;-4.4891;4.3144;-0.4145;-0.3407;0.0418
0001231539;-1.9872;-4.7142;4.3838;-0.5145;-0.3876;0.1182
0001231548;-1.6185;-4.8411;4.4077;-0.5638;-0.3972;0.1709
0001231618;-2.7605;-5.7365;4.2689;-0.5432;-0.1885;0.4594
0001231627;-2.9521;-5.8275;4.2880;-0.5268;-0.1865;0.4559
0001231640;-2.6647;-5.8299;4.2617;-0.5207;-0.2210;0.4369
0001231649;-2.8922;-5.9520;4.1659;-0.4992;-0.1904;0.4209
0001231661;-2.6600;-6.1100;4.2401;-0.4922;-0.1645;0.3849
0001231670;-2.6695;-6.0190;4.2497;-0.4776;-0.1696;0.3619
0001231679;-2.6097;-6.0885;4.2689;-0.4622;-0.1763;0.3547
0001231693;-2.5019;-5.9927;4.2425;-0.4458;-0.1470;0.3144
0001231702;-2.4804;-5.9496;4.4101;-0.4469;-0.1372;0.2926
0001231715;-2.5690;-5.7892;4.4149;-0.4401;-0.1310;0.2451
0001231724;-2.6600;-5.8634;4.5226;-0.4343;-0.1231;0.2166
0001231736;-2.3320;-5.7772;4.6639;-0.4335;-0.1043;0.1852
0001231745;-2.4732;-5.9616;4.6256;-0.4163;-0.1054;0.1536
0001231758;-2.1739;-6.0501;4.6639;-0.3932;-0.0950;0.1402
0001231767;-2.0710;-5.9400;4.5969;-0.3737;-0.0831;0.1340
0001231779;-2.3679;-6.2752;4.5610;-0.3407;-0.0757;0.1306
0001231788;-2.3703;-6.3710;4.7022;-0.3132;-0.0899;0.1307
0001231797;-2.4253;-6.5242;4.5490;-0.2878;-0.1018;0.1408
0001231810;-2.3415;-6.5984;4.5203;-0.2411;-0.1091;0.1252
0001231819;-2.2170;-6.7157;4.5514;-0.1953;-0.0999;0.1047
0001231831;-2.2817;-6.7014;4.4508;-0.1503;-0.1006;0.0609
0001231840;-2.2170;-6.7636;4.4173;-0.1122;-0.0987;0.0442
0001231909;-1.5299;-6.4835;4.3287;0.0497;-0.2695;-0.0516
0001231918;-1.3216;-6.3949;4.2713;0.0477;-0.2212;-0.0965
0001231930;-0.9218;-6.4667;4.0845;0.0462;-0.1832;-0.1374
0001231939;-0.8859;-6.5122;3.9648;0.0498;-0.1745;-0.1483
0001231952;-0.7135;-6.5386;3.6966;0.0402;-0.1512;-0.1464
0001231961;-0.9457;-6.7253;3.6464;0.0341;-0.1402;-0.1242
0001231970;-0.7757;-6.5721;3.4788;0.0308;-0.1312;-0.1022
0001231982;-0.5100;-6.2153;3.4333;0.0172;-0.1350;-0.0613
0001231991;-0.3519;-6.1770;3.3782;0.0059;-0.1442;-0.0302
0001232004;0.2658;-5.8107;3.0574;-0.0224;-0.1451;0.0413
0001232013;0.7159;-5.8419;2.9473;-0.0629;-0.1551;0.0991
0001232025;0.9457;-5.7581;2.5905;-0.1017;-0.1090;0.1651
0001232034;1.3144;-5.5402;2.4181;-0.1510;-0.0610;0.2192
0001232047;1.0678;-5.2672;2.1356;-0.2010;-0.0161;0.3068
0001232056;0.7661;-5.2912;2.1715;-0.2270;0.0175;0.4006
0001232065;0.3448;-5.1116;2.3008;-0.2758;0.0177;0.4763
0001232077;-0.3903;-4.9967;2.2841;-0.3348;-0.0340;0.5532
0001232086;-0.5866;-4.6424;2.4828;-0.3517;-0.0787;0.6146
0001232099;-1.0463;-4.3383;3.5578;-0.3892;-0.1961;0.6507
0001232108;-1.4293;-4.2234;4.1827;-0.4437;-0.2602;0.6343
0001232120;-2.1237;-4.0749;5.8610;-0.5241;-0.3168;0.5665
0001232129;-2.8826;-4.0318;7.4316;-0.6447;-0.3368;0.4955
0001232198;0.4956;-4.9177;4.7094;-1.5360;0.6527;0.4695
0001232207;-0.2753;-6.2872;4.6208;-1.5363;0.8179;0.5225
0001232219;-2.2673;-6.5745;4.8507;-1.5314;0.9058;0.5489
0001232228;-4.1803;-6.1411;5.3079;-1.5384;0.8511;0.5367
0001232237;-6.0693;-5.6168;5.9592;-1.5736;0.7526;0.5129
0001232250;-8.5018;-4.8961;6.9408;-1.6394;0.5469;0.4553
0001232259;-9.9264;-4.6160;7.4867;-1.7116;0.3499;0.3633
0001232271;-9.6031;-3.9887;7.1898;-1.8257;0.0377;0.1948
0001232280;-8.2768;-4.4628;6.4356;-1.8804;-0.2080;0.0874
0001232293;-5.6743;-6.0166;5.6743;-1.8624;-0.4237;0.0369
0001232302;-4.1492;-7.5776;5.1619;-1.7284;-0.4170;0.0632
0001232314;-2.4181;-9.2895;4.6256;-1.3867;-0.2931;0.1172
0001232323;-1.0918;-10.2568;4.1731;-1.0721;-0.1779;0.1597
0001232332;-0.2634;-10.9176;3.9313;-0.7910;-0.0966;0.1905
0001232345;0.1915;-11.2719;4.6495;-0.5173;-0.0830;0.1911
0001232354;0.0790;-9.5193;5.9592;-0.4358;-0.0947;0.1759
0001232366;-1.2019;-7.2353;8.0996;-0.5594;-0.1270;0.1789
0001232375;-2.5283;-4.8746;8.8969;-0.7448;-0.1183;0.1283
0001232388;-4.8243;-0.9577;8.3055;-0.9698;0.1496;-0.0121
0001232397;-5.4372;-0.1437;6.8690;-1.0203;0.3096;-0.0885
0001232409;-4.8890;-4.4173;4.6280;-1.0333;0.1633;-0.2032
0001232418;-4.2306;-7.7500;4.3670;-0.9769;-0.0193;-0.2490
0001232487;-4.2713;-6.2896;5.8610;-0.0869;0.3268;0.0121
0001232496;-4.8626;-5.5976;5.8754;-0.1551;0.2602;-0.0187
0001232505;-4.7645;-5.3510;5.4205;-0.2313;0.1640;-0.0730
0001232517;-3.9265;-6.1794;4.8818;-0.2874;-0.0450;-0.1284
0001232526;-3.1891;-7.2353;4.7453;-0.2991;-0.1888;-0.1280
0001232539;-1.9513;-8.3055;5.0996;-0.2461;-0.2185;-0.0954
0001232548;-1.6233;-8.5425;5.3486;-0.1716;-0.1358;-0.0542
0001232560;-1.9944;-7.9679;5.5115;-0.0665;0.0316;0.0049
0001232569;-2.5115;-7.2568;5.4396;-0.0437;0.0835;0.0253
0001232582;-3.5674;-6.7852;5.1667;-0.0628;-0.0028;0.0345
0001232591;-3.4524;-6.5170;5.0757;-0.0946;-0.1296;0.0282
0001232603;-2.6887;-6.6631;4.9680;-0.1427;-0.2751;0.0390
0001232612;-2.2745;-7.0270;4.9536;-0.1599;-0.3134;0.0597
0001232621;-1.6400;-7.1682;4.9488;-0.1675;-0.2874;0.0999
0001232634;-1.3264;-7.4915;4.9488;-0.1643;-0.2066;0.1462
0001232643;-1.3168;-7.4101;4.8243;-0.1605;-0.1675;0.1631
0001232655;-1.7095;-7.5896;4.7716;-0.1704;-0.1438;0.1699
0001232664;-2.0853;-7.4292;4.7621;-0.1767;-0.1408;0.1577
0001232677;-2.3200;-7.4603;4.8554;-0.1768;-0.1691;0.1179
0001232686;-2.5426;-7.5681;4.8339;-0.1803;-0.1915;0.0885
0001232700;-2.3296;-7.5226;4.8578;-0.1525;-0.2358;0.0506
0001232709;-2.1668;-7.5441;4.8626;-0.1395;-0.2411;0.0362
0001232778;-1.5802;-7.5202;4.6448;-0.0059;-0.1324;-0.0737
0001232787;-1.5203;-7.3478;4.7860;0.0039;-0.1030;-0.0671
0001232796;-1.7430;-7.3119;4.8961;0.0189;-0.0949;-0.0679
0001232808;-1.7717;-7.2808;4.8842;0.0300;-0.0870;-0.0689
0001232817;-2.0542;-7.3310;4.8004;0.0466;-0.0890;-0.0793
0001232830;-1.8531;-7.2185;4.8698;0.0638;-0.0918;-0.0857
0001232839;-2.1093;-7.3909;4.9201;0.0811;-0.0969;-0.1061
0001232851;-2.0638;-7.5585;4.9392;0.0962;-0.1023;-0.1403
0001232860;-2.0159;-7.4436;4.9656;0.1081;-0.0963;-0.1664
0001232873;-1.8292;-7.2089;4.9201;0.1235;-0.0861;-0.1873
0001232882;-1.9920;-7.3550;4.9344;0.1251;-0.0655;-0.1992
0001232894;-1.8555;-7.0198;5.0805;0.1324;-0.0526;-0.2178
0001232903;-2.1452;-7.0413;5.0661;0.1326;-0.0444;-0.2289
0001232912;-2.1811;-7.0749;5.0015;0.1406;-0.0456;-0.2545
0001232925;-2.2889;-6.9743;4.9775;0.1511;-0.0553;-0.2923
0001232934;-2.4780;-7.2856;5.0422;0.1723;-0.0733;-0.3275
0001232946;-2.3056;-7.4316;4.9608;0.2029;-0.0943;-0.3697
0001232955;-2.3966;-7.7524;4.9129;0.2381;-0.1138;-0.3984
0001233024;-1.7837;-7.4867;4.8818;0.4603;-0.1547;-0.5590
0001233033;-1.8914;-7.5489;4.9464;0.4652;-0.1519;-0.5781
0001233045;-1.7454;-7.2640;4.8794;0.4599;-0.1500;-0.6035
0001233054;-1.6951;-7.2616;4.9177;0.4391;-0.1448;-0.6077
0001233065;-1.6065;-6.9528;5.0925;0.3954;-0.1359;-0.5995
0001233073;-1.7023;-6.8450;5.2433;0.3528;-0.1240;-0.5915
0001233081;-1.7526;-6.7708;5.3079;0.3207;-0.1242;-0.5793
0001233092;-1.9345;-6.7828;5.4109;0.2499;-0.1059;-0.5309
0001233100;-1.9848;-6.9240;5.2864;0.2041;-0.0994;-0.4986
