time;acc_x;acc_y;acc_z;gyro_x;gyro_y;gyro_z
0001357691;-1.9321;-7.2305;5.0973;0.2304;-0.2641;-0.1956
0001357699;-1.6544;-7.1228;5.0781;0.2146;-0.2372;-0.1961
0001357706;-1.8268;-7.2832;5.0685;0.1974;-0.2096;-0.1962
0001357714;-1.5562;-7.1850;4.9871;0.1859;-0.1768;-0.1905
0001357722;-1.8292;-7.3981;5.0015;0.1736;-0.1386;-0.1801
0001357730;-1.4557;-7.0988;4.8626;0.1511;-0.0879;-0.1684
0001357738;-1.5730;-7.0629;4.7956;0.1400;-0.0490;-0.1656
0001357746;-1.6376;-6.9791;4.7166;0.1363;-0.0181;-0.1637
0001357754;-1.7933;-7.0102;4.7142;0.1191;0.0203;-0.1470
0001357762;-1.8100;-7.0437;4.8076;0.1090;0.0605;-0.1318
0001357770;-2.0997;-6.9576;4.8171;0.1126;0.0906;-0.1061
0001357778;-2.1596;-6.9599;4.6519;0.1224;0.1176;-0.0763
0001357786;-2.4876;-6.9073;4.5897;0.1208;0.1451;-0.0362
0001357794;-2.6240;-6.9168;4.5633;0.1203;0.1625;-0.0053
0001357802;-2.7485;-6.8833;4.6017;0.1258;0.1729;0.0120
0001357810;-2.6647;-6.7588;4.4963;0.1242;0.1753;0.0268
0001357818;-2.7390;-6.7900;4.5825;0.1091;0.1813;0.0408
0001357826;-2.6743;-6.6942;4.4939;0.0809;0.1937;0.0544
0001357834;-2.5163;-6.7756;4.3814;0.0654;0.1974;0.0570
0001357842;-2.4373;-6.6176;4.3527;0.0348;0.2048;0.0669
0001357850;-2.2984;-6.5410;4.5083;0.0218;0.1869;0.0814
0001357858;-2.7677;-6.8331;4.8243;0.0107;0.1732;0.1005
0001357866;-2.7940;-6.8091;5.1739;0.0156;0.1512;0.1379
0001357874;-3.3519;-7.1132;5.3870;0.0436;0.1244;0.1911
0001357882;-3.7158;-7.5896;5.3582;0.0823;0.1019;0.2681
0001357890;-4.0630;-8.0852;5.0996;0.1364;0.0771;0.3515
0001357898;-3.7852;-8.3222;4.9799;0.1797;0.0480;0.4223
0001357906;-3.4716;-8.3103;4.5969;0.2174;0.0318;0.4607
0001357914;-2.9568;-7.7620;4.4077;0.2422;0.0217;0.4393
0001357922;-2.1739;-7.1228;4.3718;0.2497;0.0577;0.3964
0001357930;-1.9082;-6.7612;4.6448;0.2634;0.1174;0.3572
0001357938;-1.5730;-6.2752;4.6040;0.2811;0.1827;0.3199
0001357946;-1.7454;-5.9640;4.5179;0.2815;0.2392;0.2920
0001357954;-2.1308;-5.8395;4.4556;0.2825;0.2517;0.2558
0001357962;-2.6719;-5.8203;4.4819;0.2746;0.2514;0.2386
0001357970;-2.8635;-5.7988;4.5418;0.2622;0.2286;0.2233
0001357978;-3.2082;-6.1411;4.5586;0.2623;0.1872;0.2108
0001357986;-3.2370;-6.1603;4.5873;0.2635;0.1431;0.1976
0001357994;-3.2441;-6.4955;4.4652;0.2714;0.0990;0.1841
0001358002;-3.1532;-6.5410;4.5179;0.2999;0.0434;0.1751
0001358010;-3.0454;-6.9480;4.4532;0.3212;0.0017;0.1811
0001358018;-3.0119;-7.1299;4.3694;0.3581;-0.0484;0.1777
0001358026;-2.8228;-7.2568;4.2569;0.3834;-0.0885;0.1763
0001358034;-2.8922;-7.3741;4.3287;0.4109;-0.1210;0.1627
0001358042;-2.8515;-7.4292;4.3407;0.4525;-0.1458;0.1454
0001358050;-2.7390;-7.4364;4.4628;0.4876;-0.1532;0.1338
0001358058;-2.6288;-7.4220;4.4939;0.5297;-0.1564;0.1172
0001358066;-2.3750;-7.0940;4.4915;0.5720;-0.1498;0.0909
0001358074;-2.4397;-6.7708;4.5466;0.6163;-0.1549;0.0670
0001358082;-2.3463;-6.5745;4.5179;0.6588;-0.1711;0.0408
0001358090;-2.3703;-6.4260;4.4772;0.6776;-0.1769;0.0187
0001358098;-2.3056;-6.2369;4.5538;0.6967;-0.1793;0.0013
0001358106;-2.0375;-6.0932;4.5945;0.6985;-0.1676;-0.0123
0001358114;-1.8651;-5.9759;4.7166;0.7027;-0.1452;-0.0252
0001358122;-1.8387;-6.0190;4.6974;0.7039;-0.1172;-0.0328
0001358130;-2.0375;-6.2944;4.7549;0.7160;-0.0866;-0.0434
0001358138;-2.1308;-6.4524;4.8698;0.7217;-0.0628;-0.0345
0001358146;-2.0590;-6.3662;4.7956;0.7272;-0.0373;-0.0424
0001358154;-2.2865;-6.5098;4.6831;0.7406;-0.0189;-0.0433
0001358162;-2.1596;-6.1818;4.6735;0.7437;0.0041;-0.0454
0001358170;-2.4253;-6.4117;4.7285;0.7373;0.0226;-0.0652
0001358178;-2.3846;-6.2752;4.5945;0.7378;0.0409;-0.0805
0001358186;-2.4828;-6.1770;4.6519;0.7392;0.0489;-0.1051
0001358194;-2.4397;-6.1268;4.5538;0.7325;0.0630;-0.1188
0001358202;-2.6671;-6.1627;4.6160;0.7278;0.0782;-0.1448
0001358210;-2.6983;-6.1483;4.4915;0.7364;0.0858;-0.1640
0001358218;-2.5618;-5.9328;4.5346;0.7281;0.0978;-0.1704
0001358226;-2.7677;-5.8969;4.4676;0.7264;0.1063;-0.1699
0001358234;-2.6600;-5.8251;4.4245;0.7302;0.1042;-0.1812
0001358242;-2.6743;-5.7437;4.5226;0.7340;0.1022;-0.1795
0001358250;-2.8228;-5.8945;4.4125;0.7276;0.1051;-0.1821
0001358258;-2.7797;-5.8538;4.4125;0.7352;0.1039;-0.1840
0001358285;-2.8802;-6.0190;4.3311;0.7779;0.0683;-0.2193
0001358293;-2.9832;-6.0142;4.3551;0.7882;0.0613;-0.2346
0001358301;-2.6935;-5.7868;4.4101;0.8046;0.0529;-0.2483
0001358309;-2.9066;-5.8012;4.3742;0.8263;0.0390;-0.2663
0001358317;-2.7294;-5.6862;4.3718;0.8350;0.0258;-0.2818
0001358325;-2.8994;-5.6671;4.3790;0.8476;0.0084;-0.3062
0001358333;-2.6791;-5.4731;4.3120;0.8563;-0.0052;-0.3287
0001358341;-2.7509;-5.4684;4.3479;0.8556;-0.0091;-0.3491
0001358349;-2.6600;-5.3726;4.4365;0.8589;-0.0248;-0.3738
0001358357;-2.7773;-5.3750;4.4029;0.8535;-0.0301;-0.3800
0001358365;-2.8323;-5.2816;4.3862;0.8448;-0.0406;-0.3876
0001358373;-3.0215;-5.5258;4.3479;0.8458;-0.0605;-0.4020
0001358381;-2.9521;-5.3439;4.2952;0.8328;-0.0802;-0.3908
0001358389;-3.0167;-5.4875;4.2473;0.8267;-0.1051;-0.3881
0001358397;-2.9784;-5.4684;4.3455;0.8095;-0.1376;-0.3691
0001358405;-2.8874;-5.3056;4.3670;0.7933;-0.1655;-0.3557
0001358413;-2.7629;-5.1571;4.4556;0.7560;-0.1687;-0.3340
0001358421;-2.6193;-4.9704;4.4341;0.7245;-0.1616;-0.3130
0001358429;-2.3176;-4.8650;4.4867;0.6919;-0.1589;-0.2964
0001358437;-2.3415;-4.7908;4.4436;0.6486;-0.1470;-0.2754
0001358445;-2.3559;-4.7357;4.5226;0.6062;-0.1318;-0.2477
0001358453;-2.3104;-4.6591;4.5322;0.5672;-0.1136;-0.2208
0001358461;-2.0399;-4.5226;4.4987;0.5269;-0.1123;-0.1863
0001358469;-2.0973;-4.6352;4.3574;0.4864;-0.1038;-0.1516
0001358477;-2.2003;-4.6471;4.3838;0.4483;-0.0813;-0.1227
0001358485;-2.3846;-4.8770;4.2904;0.4008;-0.0733;-0.0810
0001358493;-2.2721;-4.7501;4.2952;0.3585;-0.0694;-0.0588
0001358501;-2.3655;-4.9201;4.2689;0.3210;-0.0645;-0.0390
0001358509;-2.3296;-4.9440;4.3311;0.2762;-0.0464;-0.0089
0001358517;-2.4325;-4.9632;4.3239;0.2393;-0.0385;0.0196
0001358525;-2.6839;-5.0805;4.2329;0.1976;-0.0337;0.0418
0001358533;-2.6504;-5.1308;4.2042;0.1732;-0.0474;0.0625
0001358541;-2.5426;-5.1954;4.1851;0.1431;-0.0474;0.0866
0001358549;-2.4421;-5.2816;4.3072;0.1283;-0.0393;0.1057
0001358557;-2.3008;-5.3678;4.1994;0.1216;-0.0274;0.1112
0001358565;-2.1548;-5.3343;4.1731;0.1238;-0.0109;0.1136
0001358573;-2.2146;-5.6575;4.1587;0.1226;0.0145;0.1240
0001358581;-2.1452;-5.7509;4.1468;0.1364;0.0361;0.1210
0001358589;-2.1141;-5.5569;4.0869;0.1583;0.0485;0.1247
0001358597;-2.5355;-5.5641;4.0941;0.1703;0.0553;0.1150
0001358605;-2.7869;-5.5402;4.1851;0.1768;0.0593;0.1098
0001358613;-2.8515;-5.4109;4.1348;0.1867;0.0510;0.0895
0001358621;-2.8276;-5.2098;4.3287;0.1920;0.0341;0.0637
0001358629;-2.8323;-5.1188;4.4365;0.1859;0.0445;0.0444
0001358637;-2.9113;-4.8985;4.3359;0.1836;0.0326;0.0184
0001358645;-2.7342;-4.7692;4.3048;0.1699;0.0368;0.0008
0001358653;-2.6504;-4.5466;4.2952;0.1605;0.0280;-0.0262
0001358661;-3.0095;-4.8052;4.2976;0.1478;0.0217;-0.0542
0001358669;-2.8419;-4.7740;4.1468;0.1416;0.0144;-0.0909
0001358677;-2.8180;-5.1044;4.1683;0.1320;0.0157;-0.1240
0001358685;-2.7461;-5.0709;4.1587;0.1230;0.0316;-0.1533
0001358693;-3.0023;-5.5330;4.1372;0.1286;0.0336;-0.1728
0001358701;-2.8204;-5.5689;4.1180;0.1286;0.0382;-0.1833
0001358709;-3.0215;-5.6790;4.0869;0.1286;0.0269;-0.1785
0001358717;-2.9832;-5.6862;4.0318;0.1288;-0.0020;-0.1712
0001358725;-2.8228;-5.4157;4.0677;0.1207;-0.0181;-0.1495
0001358733;-2.8347;-5.3008;4.0773;0.1050;-0.0314;-0.1190
0001358741;-2.7964;-4.9392;4.1803;0.0829;-0.0442;-0.0973
0001358749;-2.7677;-4.7166;4.2066;0.0617;-0.0400;-0.0749
0001358757;-2.7054;-4.6017;4.1683;0.0370;-0.0370;-0.0674
0001358765;-2.6097;-4.7381;4.1731;0.0017;-0.0242;-0.0522
0001358773;-2.6624;-4.8554;4.1204;-0.0187;-0.0304;-0.0466
0001358781;-2.4708;-5.1188;4.0606;-0.0362;-0.0337;-0.0346
0001358789;-2.3846;-5.2241;4.0223;-0.0669;-0.0322;-0.0143
0001358797;-2.4229;-5.4013;3.9265;-0.0893;-0.0290;0.0077
0001358805;-2.4325;-5.3582;3.8547;-0.1102;-0.0197;0.0408
0001358813;-2.1165;-5.1523;3.8858;-0.1263;-0.0161;0.0652
0001358821;-2.1045;-4.9129;3.9600;-0.1478;0.0073;0.0919
0001358829;-2.2984;-4.8123;3.8930;-0.1683;0.0316;0.1066
0001358837;-2.2625;-4.8267;3.9097;-0.1924;0.0505;0.1262
0001358845;-2.1835;-4.8171;3.8690;-0.2194;0.0753;0.1447
0001358931;-3.0502;-4.2641;4.4197;-0.8031;-0.1230;0.4879
0001358939;-2.9497;-3.9983;4.4963;-0.8915;-0.1271;0.5025
0001358947;-2.9832;-4.1013;4.5322;-0.9895;-0.1244;0.5299
0001358955;-3.1005;-4.3527;4.6208;-1.0853;-0.1450;0.5584
0001358963;-2.8395;-4.3407;4.6591;-1.1572;-0.1591;0.5865
0001358971;-2.6552;-4.5657;4.6495;-1.2116;-0.1761;0.6069
0001358979;-2.5426;-4.7740;4.8004;-1.2761;-0.1663;0.6231
0001358987;-2.2913;-4.9225;5.0015;-1.3245;-0.1583;0.6289
0001358995;-1.9776;-5.0446;5.0996;-1.3667;-0.1411;0.6474
0001359003;-2.1979;-5.4899;5.1906;-1.3988;-0.1164;0.6596
0001359011;-1.9010;-5.4995;5.0949;-1.4057;-0.0874;0.6678
0001359019;-1.4509;-5.5641;4.9704;-1.4101;-0.0413;0.6841
0001359027;-1.5419;-5.9472;4.6376;-1.3959;0.0064;0.7047
0001359035;-1.4150;-6.1770;4.3958;-1.3518;0.0645;0.7101
0001359043;-1.5371;-6.6487;4.0749;-1.2820;0.1300;0.7068
0001359051;-1.4653;-6.8929;3.8259;-1.1977;0.2097;0.6967
0001359059;-1.7621;-7.3813;3.6727;-1.1005;0.2872;0.6816
0001359067;-2.0925;-7.6471;3.6009;-0.9995;0.3399;0.6502
0001359075;-2.5738;-7.6160;3.6200;-0.8821;0.3898;0.6123
0001359083;-3.1603;-7.4939;3.7038;-0.7854;0.4118;0.5504
0001359091;-3.5219;-7.1084;3.7326;-0.6915;0.3962;0.4755
0001359099;-3.9504;-6.7373;3.4812;-0.6071;0.3685;0.4068
0001359107;-4.1444;-6.6415;3.3136;-0.5249;0.3206;0.3389
0001359115;-4.0677;-6.4787;3.4405;-0.4517;0.2801;0.2723
0001359123;-3.9911;-6.2249;3.4764;-0.4006;0.2392;0.2085
0001359131;-4.0486;-6.3327;3.3854;-0.3471;0.2173;0.1368
0001359139;-3.8475;-6.2680;3.4357;-0.3044;0.2088;0.0685
0001359147;-3.6919;-6.1292;3.4405;-0.2594;0.2026;0.0008
0001359155;-4.0390;-6.3638;3.5578;-0.2362;0.1732;-0.0557
0001359163;-4.0103;-6.3614;3.6320;-0.2193;0.1460;-0.0883
0001359171;-3.9049;-6.2082;3.6751;-0.2169;0.0997;-0.1046
0001359179;-3.7709;-6.0023;3.7685;-0.2217;0.0601;-0.0987
0001359187;-3.3878;-5.6862;3.8930;-0.2316;0.0159;-0.0843
0001359195;-3.0430;-5.4660;3.9624;-0.2453;-0.0312;-0.0642
0001359203;-2.5953;-5.1787;4.0510;-0.2681;-0.0597;-0.0298
0001359211;-2.5953;-5.1715;4.1563;-0.2976;-0.0833;0.0234
0001359219;-2.0375;-4.8602;4.0749;-0.3355;-0.1066;0.0757
0001359227;-1.9441;-4.9392;4.1013;-0.3730;-0.1272;0.1338
0001359235;-1.8531;-4.7956;4.1061;-0.4086;-0.1316;0.1982
0001359243;-1.6879;-4.5705;4.1946;-0.4479;-0.1412;0.2527
0001359251;-1.6831;-4.6136;4.3144;-0.4822;-0.1475;0.2986
0001359259;-1.8340;-4.5610;4.4221;-0.5260;-0.1416;0.3412
0001359267;-1.9058;-4.5250;4.4149;-0.5728;-0.1286;0.3790
0001359275;-2.0566;-4.5897;4.3215;-0.6149;-0.1310;0.4044
0001359283;-1.9249;-4.5418;4.3335;-0.6564;-0.1216;0.4241
0001359291;-2.1332;-4.7812;4.3862;-0.6909;-0.1172;0.4382
0001359299;-2.0758;-4.9608;4.2856;-0.7281;-0.1055;0.4537
0001359307;-1.8507;-5.0159;4.2808;-0.7592;-0.0885;0.4592
0001359315;-1.7957;-5.1882;4.2282;-0.7809;-0.0722;0.4660
0001359323;-1.6951;-5.2529;4.1348;-0.7934;-0.0445;0.4747
0001359331;-1.9944;-5.4516;4.1635;-0.7979;-0.0184;0.4839
0001359339;-1.8316;-5.5330;4.0175;-0.8014;0.0156;0.4904
0001359347;-1.9561;-5.6407;4.0151;-0.8058;0.0482;0.4968
0001359355;-2.0423;-5.6982;4.0869;-0.8014;0.0745;0.4914
0001359363;-2.2553;-5.9592;3.9073;-0.7935;0.0811;0.4822
0001359371;-2.3750;-6.0310;3.9433;-0.7758;0.0914;0.4763
0001359379;-2.4852;-5.7724;3.8762;-0.7658;0.0961;0.4696
0001359387;-2.4924;-5.8012;3.9983;-0.7425;0.0899;0.4643
0001359395;-2.6408;-5.8610;3.9792;-0.7298;0.0839;0.4518
0001359403;-2.7701;-6.1794;3.9241;-0.7093;0.0746;0.4418
0001359411;-2.8204;-6.1890;4.0390;-0.6932;0.0709;0.4337
0001359419;-2.4229;-6.0717;3.9600;-0.6692;0.0510;0.4165
0001359427;-2.4325;-6.2297;3.9696;-0.6516;0.0346;0.3933
0001359435;-2.4277;-6.1435;3.8307;-0.6376;0.0325;0.3718
0001359443;-2.5043;-6.2465;3.9696;-0.6163;0.0220;0.3544
0001359451;-2.3918;-6.3063;3.8259;-0.5817;0.0073;0.3428
0001359459;-2.2505;-6.1746;3.9983;-0.5501;-0.0095;0.3265
0001359467;-2.3439;-6.3853;4.0007;-0.5308;-0.0105;0.3115
0001359475;-2.3176;-6.3686;4.0917;-0.4971;-0.0155;0.3026
0001359483;-2.2458;-6.4883;4.0031;-0.4739;-0.0264;0.3000
0001359491;-2.4948;-6.5242;3.9385;-0.4461;-0.0400;0.2946
0001359577;-1.8459;-6.2201;3.6392;-0.3559;-0.1246;0.3337
0001359585;-1.8914;-6.1723;3.6990;-0.3393;-0.1100;0.3840
0001359593;-2.1141;-6.0908;3.6727;-0.3076;-0.0890;0.4502
0001359601;-2.3200;-5.9137;3.6129;-0.2805;-0.0686;0.5096
0001359609;-2.5857;-5.9664;3.6129;-0.2563;-0.0653;0.5514
0001359617;-2.4756;-5.9472;3.6248;-0.2585;-0.0598;0.5573
0001359625;-2.4995;-5.8873;3.6368;-0.2727;-0.0659;0.5304
0001359633;-2.2051;-5.8969;3.7038;-0.2894;-0.0682;0.4778
0001359641;-1.6592;-5.6168;3.6368;-0.3031;-0.0644;0.4243
0001359649;-1.6999;-5.6862;3.6224;-0.3080;-0.0581;0.3729
0001359657;-1.6496;-5.7844;3.7445;-0.3167;-0.0429;0.3449
0001359665;-2.0710;-5.9568;3.6847;-0.2932;-0.0614;0.3339
0001359673;-2.2601;-6.1627;3.7709;-0.2605;-0.0925;0.3324
0001359681;-2.0997;-6.3255;3.7541;-0.2097;-0.1332;0.3264
0001359689;-2.2434;-6.5194;3.7852;-0.1498;-0.1744;0.3123
0001359697;-2.0351;-6.7756;3.5985;-0.0933;-0.1993;0.2947
0001359705;-1.4533;-6.7493;3.5219;-0.0466;-0.2221;0.2423
0001359713;-1.1612;-7.0940;3.6607;-0.0019;-0.2407;0.1849
0001359721;-1.0870;-6.9432;3.7613;0.0226;-0.2414;0.1271
0001359729;-1.2977;-6.3782;3.7900;0.0436;-0.2475;0.0454
0001359737;-1.8579;-5.7772;3.8571;0.0750;-0.2718;-0.0364
0001359745;-2.4972;-5.4564;4.3934;0.1017;-0.3008;-0.1006
0001359753;-2.9999;-5.1858;5.0326;0.1053;-0.3432;-0.1680
0001359761;-3.5674;-4.7884;5.3558;0.0910;-0.4090;-0.2654
0001359769;-4.1348;-4.1659;6.0190;0.0356;-0.4888;-0.3812
0001359777;-4.5945;-3.4309;6.6056;-0.0480;-0.5774;-0.5008
0001359785;-5.3486;-2.5881;7.1036;-0.1522;-0.6801;-0.6233
0001359793;-5.2744;-1.5323;7.5968;-0.2669;-0.7683;-0.7321
0001359801;-4.6088;-1.1827;7.7572;-0.3467;-0.8280;-0.8282
0001359809;-3.2920;-1.9776;7.6734;-0.3864;-0.8330;-0.8715
0001359817;-1.2761;-3.4165;7.2233;-0.3846;-0.7517;-0.8520
0001359825;-0.0503;-5.3391;6.9576;-0.3325;-0.6094;-0.7851
0001359833;0.9816;-6.6200;6.8761;-0.2252;-0.4263;-0.6899
0001359841;1.2450;-7.5848;6.6559;-0.1111;-0.2470;-0.5740
0001359849;0.8643;-8.1044;6.4452;0.0023;-0.1434;-0.5003
0001359857;0.3926;-7.5944;6.3662;0.0893;-0.1122;-0.4842
0001359865;-0.8308;-7.0701;6.5098;0.1347;-0.1096;-0.5104
0001359873;-1.5251;-6.1603;6.4524;0.1563;-0.0997;-0.5784
0001359881;-1.9178;-5.0015;6.3375;0.1587;-0.0807;-0.6516
0001359889;-2.1811;-4.2665;6.3183;0.1315;-0.0397;-0.7240
0001359897;-2.5546;-3.9480;6.1220;0.0765;0.0203;-0.7818
0001359905;-2.6552;-3.5841;5.8179;0.0232;0.0794;-0.8271
0001359913;-2.6600;-3.9361;5.6407;-0.0249;0.1400;-0.8363
0001359921;-2.7773;-4.2689;5.5402;-0.0746;0.1962;-0.8202
0001359929;-2.9688;-4.8698;5.3343;-0.1057;0.2569;-0.8071
0001359937;-2.9832;-4.9967;5.0781;-0.1244;0.2827;-0.8256
0001359945;-3.4213;-5.3415;4.9440;-0.1399;0.3014;-0.8525
0001359953;-3.7733;-5.6527;4.9009;-0.1335;0.2944;-0.9025
0001359961;-3.9840;-5.9711;4.9895;-0.1094;0.2730;-0.9100
0001359969;-3.8786;-5.9448;4.7453;-0.0621;0.2329;-0.8859
0001359977;-4.0151;-6.2345;4.9871;0.0039;0.1832;-0.8386
0001359985;-3.9576;-6.5122;4.9009;0.0582;0.1175;-0.7773
0001359993;-3.6440;-6.4739;4.9775;0.1252;0.0509;-0.7085
0001360001;-3.3854;-6.5003;4.9680;0.1732;-0.0064;-0.6202
0001360009;-2.9544;-6.4021;5.0925;0.2162;-0.0654;-0.5268
0001360017;-2.5881;-6.2776;5.1140;0.2575;-0.1203;-0.4542
0001360025;-2.5187;-6.1555;5.3103;0.2687;-0.1681;-0.3912
0001360033;-2.3080;-5.6192;5.6120;0.2614;-0.2240;-0.3609
0001360041;-2.5426;-5.1356;5.7916;0.2466;-0.2513;-0.3552
0001360049;-2.5331;-4.6663;5.8442;0.2238;-0.2382;-0.3477
0001360057;-2.5570;-4.3144;6.0286;0.1949;-0.2092;-0.3607
0001360065;-2.4828;-4.0342;5.8921;0.1669;-0.1827;-0.3982
0001360073;-2.2242;-4.0438;5.7940;0.1236;-0.1274;-0.4357
0001360081;-2.1931;-4.4748;5.7676;0.0735;-0.0731;-0.4612
0001360089;-2.1213;-4.8842;5.6838;0.0273;-0.0203;-0.4539
0001360097;-2.2242;-5.3558;5.5641;-0.0023;0.0087;-0.4470
0001360105;-2.1069;-5.8347;5.4396;-0.0185;0.0266;-0.4141
0001360113;-1.9537;-6.1411;5.4157;-0.0321;0.0285;-0.3753
0001360121;-2.1524;-6.2944;5.5115;-0.0404;0.0019;-0.3435
0001360129;-2.3511;-6.2393;5.3726;-0.0520;-0.0400;-0.3070
0001360137;-2.4325;-6.0478;5.2960;-0.0625;-0.0809;-0.2687
0001360224;-2.5283;-6.4428;5.4277;-0.3022;-0.0468;-0.0843
0001360232;-2.3918;-6.2920;5.2888;-0.3160;-0.0525;-0.0714
0001360240;-2.4181;-6.2848;5.3870;-0.3220;-0.0501;-0.0465
0001360248;-2.4038;-6.3039;5.2816;-0.3320;-0.0416;-0.0292
0001360256;-2.2362;-6.1363;5.3750;-0.3435;-0.0322;-0.0185
0001360264;-2.3990;-6.3686;5.2146;-0.3553;-0.0101;-0.0057
0001360272;-2.4421;-6.4308;5.1739;-0.3573;0.0124;-0.0011
0001360280;-2.2841;-6.2465;5.2385;-0.3537;0.0298;-0.0064
0001360288;-2.3918;-6.3470;5.3558;-0.3544;0.0401;-0.0229
0001360296;-2.4995;-6.5769;5.1834;-0.3499;0.0432;-0.0297
0001360304;-2.6719;-6.7133;5.1811;-0.3401;0.0338;-0.0397
0001360312;-2.6791;-6.8666;5.3223;-0.3373;0.0308;-0.0328
0001360320;-2.4469;-6.8139;5.2337;-0.3295;0.0193;-0.0293
0001360328;-2.4349;-6.8618;5.2337;-0.3200;0.0056;-0.0156
0001360336;-2.5019;-7.0294;5.2146;-0.3124;-0.0141;-0.0043
0001360344;-2.5091;-7.1515;5.1882;-0.3146;-0.0175;0.0221
0001360352;-2.2649;-6.7469;5.1499;-0.3170;-0.0185;0.0432
0001360360;-2.0925;-6.7349;5.1571;-0.3091;-0.0234;0.0561
0001360368;-2.1189;-6.6990;5.0470;-0.3112;-0.0200;0.0723
0001360376;-2.0470;-6.7325;4.9823;-0.3082;-0.0067;0.0785
0001360384;-2.2721;-6.8905;4.9344;-0.3187;-0.0061;0.0821
0001360392;-2.1691;-6.7325;4.8578;-0.3264;-0.0053;0.0914
0001360400;-2.2146;-6.8929;4.9943;-0.3289;-0.0127;0.1025
0001360408;-2.1644;-6.6798;4.9799;-0.3321;-0.0264;0.1122
0001360416;-2.3152;-6.7253;4.9991;-0.3393;-0.0421;0.1131
0001360424;-2.3152;-6.7445;4.8650;-0.3443;-0.0566;0.1164
0001360432;-2.2218;-6.6080;4.9033;-0.3717;-0.0561;0.1232
0001360440;-2.0279;-6.5146;4.9728;-0.3977;-0.0521;0.1296
0001360448;-1.9824;-6.3662;4.8578;-0.4210;-0.0633;0.1370
0001360456;-1.9249;-6.4596;4.9871;-0.4458;-0.0666;0.1443
0001360464;-1.7669;-6.3734;5.0446;-0.4803;-0.0594;0.1516
0001360472;-1.8292;-6.3087;5.0278;-0.5139;-0.0533;0.1623
0001360480;-1.7478;-6.3494;5.0637;-0.5486;-0.0481;0.1683
0001360488;-1.6472;-6.3255;4.9919;-0.5808;-0.0272;0.1808
0001360496;-1.5993;-6.5769;5.0374;-0.5959;-0.0124;0.1884
0001360504;-1.6807;-6.7014;4.9344;-0.6009;0.0113;0.1944
0001360512;-1.6400;-6.9911;4.9129;-0.6054;0.0476;0.2053
0001360520;-1.7765;-7.0126;4.9153;-0.6109;0.0871;0.2114
0001360528;-1.9321;-7.0892;4.8387;-0.6102;0.1147;0.2153
0001360536;-2.1237;-7.1970;4.8100;-0.6015;0.1230;0.2172
0001360544;-2.3415;-7.2042;4.8315;-0.5906;0.1264;0.2173
0001360552;-2.3727;-7.1467;4.9225;-0.5822;0.1335;0.2333
0001360560;-2.5762;-7.1491;4.7549;-0.5754;0.1394;0.2462
0001360568;-2.5187;-7.2185;4.7501;-0.5650;0.1503;0.2493
0001360576;-2.6264;-7.1658;4.7214;-0.5526;0.1657;0.2589
0001360584;-2.4325;-7.0437;4.6831;-0.5429;0.1729;0.2647
0001360592;-2.3894;-7.1012;4.5873;-0.5276;0.1843;0.2773
0001360600;-2.4181;-7.2975;4.6471;-0.5060;0.1884;0.2821
0001360608;-2.5474;-7.3717;4.5274;-0.4903;0.2037;0.2825
0001360616;-2.5929;-7.2999;4.6591;-0.4807;0.2073;0.2814
0001360624;-2.7869;-7.2664;4.5777;-0.4614;0.2034;0.2671
0001360632;-2.6671;-7.2185;4.5226;-0.4291;0.1911;0.2627
0001360640;-2.5786;-7.2808;4.5107;-0.4161;0.1860;0.2585
0001360648;-2.6624;-7.3813;4.3742;-0.3981;0.1841;0.2558
0001360656;-2.6384;-7.3765;4.3598;-0.3833;0.1797;0.2499
0001360664;-2.4421;-7.1850;4.3934;-0.3672;0.1703;0.2439
0001360672;-2.7150;-7.1515;4.3120;-0.3536;0.1624;0.2284
0001360680;-2.9185;-7.1275;4.2162;-0.3392;0.1460;0.2104
0001360688;-3.2585;-7.1730;4.2377;-0.3423;0.1244;0.1887
0001360696;-3.3615;-6.9192;4.3096;-0.3337;0.0775;0.1556
0001360704;-3.6129;-7.0557;4.4245;-0.3332;0.0212;0.1267
0001360712;-3.4477;-7.1682;4.4987;-0.3324;-0.0420;0.1021
0001360720;-3.3447;-7.3765;4.4724;-0.3243;-0.0905;0.0850
0001360728;-2.9736;-7.5274;4.3455;-0.3012;-0.1256;0.0825
0001360736;-2.4708;-7.5058;4.3814;-0.2867;-0.1254;0.0931
0001360744;-2.0877;-7.6854;4.2737;-0.2758;-0.1015;0.0973
0001360752;-1.9225;-7.5896;4.3287;-0.2591;-0.0667;0.1015
0001360760;-1.7238;-7.5513;4.2737;-0.2497;-0.0148;0.1039
0001360768;-1.8196;-7.4651;4.3335;-0.2370;0.0270;0.0982
0001360776;-2.0782;-7.4124;4.1875;-0.2417;0.0652;0.0973
0001360784;-2.4517;-7.3478;4.3646;-0.2450;0.0823;0.0842
0001360870;-2.4421;-7.4292;4.5801;-0.1364;0.1045;0.0830
0001360878;-2.5594;-7.5058;4.6040;-0.1310;0.1058;0.0813
0001360886;-2.7342;-7.5250;4.5442;-0.1134;0.1013;0.0762
0001360894;-2.6169;-7.4053;4.6304;-0.1013;0.0867;0.0650
0001360902;-2.5690;-7.3622;4.5586;-0.0803;0.0694;0.0562
0001360910;-2.6073;-7.4029;4.4843;-0.0683;0.0650;0.0521
0001360918;-2.5522;-7.3837;4.4676;-0.0604;0.0578;0.0510
0001360926;-2.4804;-7.2042;4.5777;-0.0556;0.0496;0.0529
0001360934;-2.5139;-7.3382;4.5035;-0.0408;0.0441;0.0464
0001360942;-2.4995;-7.2592;4.5370;-0.0270;0.0514;0.0434
0001360950;-2.6097;-7.3861;4.3670;-0.0252;0.0573;0.0498
0001360958;-2.5522;-7.3310;4.4053;-0.0244;0.0616;0.0452
0001360966;-2.6480;-7.3215;4.2784;-0.0258;0.0541;0.0377
0001360974;-2.8276;-7.3741;4.3838;-0.0192;0.0293;0.0220
0001360982;-3.0933;-7.3143;4.3886;-0.0261;0.0009;0.0132
0001360990;-3.3615;-7.3358;4.5298;-0.0340;-0.0429;-0.0024
0001360998;-3.4644;-7.4029;4.5011;-0.0308;-0.0886;-0.0133
0001361006;-3.0047;-7.2449;4.4197;-0.0195;-0.1255;-0.0157
0001361014;-2.7509;-7.3957;4.3551;-0.0085;-0.1320;-0.0088
0001361022;-2.5570;-7.4699;4.1899;0.0023;-0.1180;-0.0011
0001361030;-2.3703;-7.5657;4.0869;0.0200;-0.0814;0.0056
0001361038;-2.3152;-7.7237;4.0031;0.0205;-0.0388;0.0176
0001361046;-2.2889;-7.7333;4.0199;0.0412;-0.0081;0.0119
0001361054;-2.3703;-7.5298;4.0031;0.0636;0.0209;0.0128
0001361062;-2.6169;-7.7285;4.1994;0.0949;0.0466;0.0133
0001361070;-2.8419;-7.5561;4.2377;0.1358;0.0605;0.0035
0001361078;-2.8659;-7.7692;4.1970;0.1799;0.0530;0.0000
0001361086;-2.9329;-7.7309;4.0366;0.2126;0.0490;0.0043
0001361094;-3.1292;-7.8195;4.1803;0.2498;0.0457;0.0020
0001361102;-2.9257;-7.5298;4.1803;0.2834;0.0325;-0.0049
0001361110;-2.7342;-7.3119;4.2066;0.3051;0.0304;-0.0105
0001361118;-2.8611;-7.3646;4.1875;0.3179;0.0189;-0.0179
0001361126;-2.7821;-7.0964;4.0390;0.3265;0.0172;-0.0197
0001361134;-2.6240;-6.9695;4.0677;0.3256;0.0196;-0.0195
0001361142;-2.3990;-6.7540;4.1204;0.3170;0.0249;-0.0175
0001361150;-2.4636;-6.7301;4.1444;0.3071;0.0320;-0.0215
0001361158;-2.4636;-6.7038;4.0654;0.3006;0.0373;-0.0286
0001361166;-2.3750;-6.5505;4.0103;0.2948;0.0340;-0.0441
0001361174;-2.5019;-6.7349;3.9792;0.2759;0.0218;-0.0678
0001361182;-2.6336;-6.8498;3.9025;0.2729;0.0105;-0.1030
0001361190;-2.7198;-7.0198;4.0247;0.2896;-0.0083;-0.1366
0001361198;-2.9688;-7.3622;4.0558;0.3124;-0.0328;-0.1744
0001361206;-3.0023;-7.7428;3.9935;0.3469;-0.0649;-0.2128
0001361214;-2.8204;-7.9104;3.9337;0.3890;-0.0961;-0.2467
0001361222;-2.7270;-8.1211;3.9025;0.4313;-0.1077;-0.2783
0001361230;-2.7557;-8.0709;3.8403;0.4624;-0.1103;-0.2980
0001361238;-2.3870;-7.7692;3.7445;0.4918;-0.0889;-0.2910
0001361246;-2.3990;-7.5058;3.7589;0.5043;-0.0646;-0.2855
0001361254;-2.3990;-7.0342;3.7613;0.5065;-0.0382;-0.2758
0001361262;-2.2458;-6.7756;3.7182;0.4956;-0.0141;-0.2759
0001361270;-2.2817;-6.3901;3.6775;0.4782;0.0049;-0.2734
0001361278;-2.2769;-6.2824;3.7302;0.4522;0.0215;-0.2832
0001361286;-2.0973;-6.1076;3.8116;0.4294;0.0357;-0.3006
0001361294;-2.3463;-6.4380;3.8044;0.3957;0.0493;-0.3187
0001361302;-2.2458;-6.5505;3.7302;0.3655;0.0569;-0.3381
0001361310;-2.2362;-6.5481;3.6057;0.3223;0.0854;-0.3368
0001361318;-2.4014;-6.5841;3.6727;0.2859;0.1085;-0.3289
0001361326;-2.3343;-6.4907;3.5123;0.2534;0.1356;-0.2948
0001361334;-2.4948;-6.4021;3.5650;0.2057;0.1729;-0.2397
0001361342;-2.5809;-6.3375;3.3710;0.1593;0.2010;-0.1869
0001361350;-2.6408;-6.2297;3.2561;0.1171;0.2261;-0.1371
0001361358;-2.8276;-6.2082;3.3950;0.0659;0.2523;-0.0861
0001361366;-3.0742;-6.1339;3.4237;0.0302;0.2397;-0.0622
0001361374;-3.1244;-6.1148;3.6344;0.0108;0.2246;-0.0452
0001361382;-3.2202;-6.2632;3.6009;-0.0021;0.2177;-0.0380
0001361390;-3.2130;-6.5984;3.5769;-0.0107;0.1982;-0.0405
0001361398;-3.2657;-6.6248;3.6200;-0.0121;0.1499;-0.0576
0001361406;-3.6272;-7.1204;3.6248;-0.0073;0.0841;-0.0819
0001361414;-3.3423;-6.9743;3.6655;0.0063;0.0321;-0.0814
0001361422;-3.4333;-7.3191;3.7804;0.0199;-0.0131;-0.0905
0001361430;-3.2130;-7.2233;3.8810;0.0205;-0.0600;-0.0945
0001361516;-1.9632;-7.2018;4.2545;0.2386;-0.1013;-0.1977
0001361524;-1.9106;-7.1467;4.3503;0.2410;-0.1102;-0.2257
0001361532;-1.6592;-7.1706;4.1420;0.2702;-0.1259;-0.2626
0001361540;-1.5203;-7.3598;3.9480;0.3044;-0.0891;-0.2673
0001361548;-1.1947;-7.3622;3.8738;0.3368;-0.0606;-0.2770
0001361556;-1.0415;-7.3909;3.8906;0.3572;-0.0364;-0.2911
0001361564;-1.3862;-7.5346;3.6966;0.3796;0.0096;-0.3086
0001361572;-1.4102;-7.5346;3.6248;0.3893;0.0552;-0.3198
0001361580;-1.8244;-7.3741;3.6440;0.3776;0.0799;-0.3269
0001361588;-2.2075;-7.1754;3.8714;0.3592;0.0911;-0.3328
0001361596;-2.9473;-7.0773;3.9289;0.3263;0.0859;-0.3375
0001361604;-3.3471;-6.6391;4.0438;0.2896;0.0580;-0.3421
0001361612;-3.3615;-6.1363;4.1707;0.2501;0.0027;-0.3508
0001361620;-3.7134;-6.1268;4.4676;0.2117;-0.0592;-0.3564
0001361628;-3.6248;-6.0430;4.4436;0.1801;-0.1228;-0.3717
0001361636;-3.4500;-6.5218;4.3407;0.1348;-0.1839;-0.3820
0001361644;-3.1220;-7.1395;4.1899;0.0971;-0.2313;-0.3913
0001361652;-2.7318;-7.7333;4.0989;0.0743;-0.2515;-0.3889
0001361660;-1.9130;-7.9511;3.8283;0.1120;-0.2603;-0.3898
0001361668;-1.9537;-8.1714;3.5793;0.1751;-0.2241;-0.3639
0001361676;-1.6520;-8.0445;3.6320;0.2322;-0.1668;-0.3269
0001361684;-1.7238;-7.6591;3.7182;0.2626;-0.1224;-0.2990
0001361692;-2.0830;-7.3694;3.9911;0.2717;-0.0827;-0.2851
0001361700;-2.2027;-7.0964;3.9720;0.2598;-0.0730;-0.2663
0001361708;-2.4325;-6.5601;4.0869;0.2318;-0.0636;-0.2474
0001361716;-2.8659;-6.2680;4.2976;0.1893;-0.0644;-0.2419
0001361724;-2.9880;-5.9400;4.3814;0.1524;-0.0853;-0.2581
0001361732;-3.1005;-5.7150;4.2186;0.1003;-0.1001;-0.2854
0001361740;-3.1651;-5.8802;4.2832;0.0486;-0.1360;-0.3156
0001361748;-2.8491;-6.5098;4.2329;0.0112;-0.1868;-0.3421
0001361756;-2.1811;-7.0797;3.9816;0.0007;-0.2134;-0.3515
0001361764;-1.7095;-7.6758;3.8834;0.0204;-0.1884;-0.3555
0001361772;-1.4700;-8.0397;3.6847;0.0558;-0.1366;-0.3605
0001361780;-1.1660;-8.2600;3.5267;0.1132;-0.0842;-0.3796
0001361788;-1.4461;-8.5784;3.3567;0.1792;-0.0265;-0.4048
0001361796;-1.8364;-8.6670;3.2417;0.2485;-0.0007;-0.4273
0001361804;-2.0686;-8.3294;3.2513;0.3051;0.0189;-0.4214
0001361812;-2.3990;-8.1834;3.4309;0.3627;0.0153;-0.4143
0001361820;-2.3080;-7.8530;3.2250;0.4000;-0.0032;-0.3954
0001361828;-2.3487;-7.4962;3.3303;0.4154;-0.0229;-0.3539
0001361836;-2.0327;-7.0749;3.4524;0.4105;-0.0345;-0.3263
0001361844;-1.7262;-6.5745;3.5314;0.3874;-0.0370;-0.2890
0001361852;-1.5251;-6.0837;3.6703;0.3441;-0.0257;-0.2553
0001361860;-1.4988;-5.7844;3.7685;0.2950;-0.0052;-0.2160
0001361868;-1.5131;-5.3415;3.8690;0.2709;0.0129;-0.1888
0001361876;-1.4629;-5.4588;3.7230;0.2302;0.0313;-0.1744
0001361884;-1.2594;-5.6216;3.6990;0.1684;0.0484;-0.1759
0001361892;-1.5467;-6.4404;4.1755;0.1462;0.0490;-0.1452
0001361900;-1.9513;-7.2664;4.4748;0.1807;0.0361;-0.0945
0001361908;-2.6863;-8.0038;4.5945;0.2513;0.0308;-0.0208
0001361916;-2.9928;-8.4300;4.4819;0.3204;0.0365;0.0445
0001361924;-3.4572;-8.8921;4.5322;0.3663;0.0478;0.0806
0001361932;-3.4884;-8.6742;4.6256;0.3896;0.0763;0.0893
0001361940;-3.3519;-8.4683;5.0302;0.4036;0.1331;0.1059
0001361948;-3.5626;-8.5210;5.1906;0.4245;0.1857;0.1435
0001361956;-3.3686;-8.4970;5.5761;0.4668;0.1913;0.2205
0001361964;-3.3471;-8.4396;5.5737;0.5241;0.1885;0.3156
0001361972;-2.7605;-8.0517;5.3199;0.5612;0.2202;0.3978
0001361980;-2.0901;-7.4795;5.0996;0.5756;0.2890;0.4126
0001361988;-1.5730;-7.0150;4.9584;0.5626;0.3836;0.3643
0001361996;-1.1588;-6.5984;4.7884;0.5375;0.4775;0.2919
0001362004;-1.2426;-6.3973;4.4867;0.4975;0.5473;0.2109
0001362012;-1.8100;-6.4500;4.5370;0.4675;0.5500;0.1676
0001362020;-2.5450;-6.6846;4.4724;0.4489;0.4998;0.1512
0001362028;-3.1675;-6.7971;4.5083;0.4142;0.4286;0.1545
0001362036;-3.4189;-6.6439;4.7262;0.3926;0.3503;0.1605
0001362044;-4.0294;-6.8522;4.8507;0.3722;0.2706;0.1823
0001362052;-4.3718;-6.9815;5.1212;0.3644;0.2122;0.2332
0001362060;-4.8626;-7.3670;5.0637;0.3853;0.1376;0.3000
0001362068;-5.4564;-7.6950;5.4157;0.4315;0.0789;0.4054
0001362076;-5.9424;-8.0541;5.5713;0.5016;0.0316;0.5205
0001362084;-6.3255;-8.3606;5.8251;0.5801;0.0228;0.6543
0001362175;-3.1532;-5.3056;5.1356;0.1073;0.0877;0.2689
0001362183;-3.1723;-6.3087;4.9081;0.1037;0.0422;0.1909
0001362191;-3.1699;-6.8594;4.8602;0.1190;0.0169;0.1276
0001362199;-3.4237;-7.4843;4.6256;0.1568;-0.0253;0.0605
0001362207;-3.5434;-7.8889;4.5442;0.1982;-0.0424;0.0068
0001362215;-3.4979;-7.8745;4.3287;0.2514;-0.0564;-0.0245
0001362223;-3.5626;-7.5729;4.3718;0.2916;-0.0544;-0.0329
0001362231;-3.3662;-7.1204;4.2377;0.3195;-0.0777;-0.0398
0001362239;-3.4069;-6.7301;4.2784;0.3419;-0.1124;-0.0516
0001362247;-3.5075;-6.8331;4.2306;0.3579;-0.1592;-0.0670
0001362255;-3.2801;-6.7205;4.1276;0.3623;-0.1973;-0.0718
0001362263;-3.1939;-6.8378;4.1396;0.3753;-0.2202;-0.0846
0001362271;-3.0023;-6.9049;4.0845;0.3861;-0.2226;-0.0903
0001362279;-3.0406;-7.0246;4.0606;0.4005;-0.2200;-0.1010
0001362287;-3.0622;-7.0270;4.0654;0.4207;-0.2112;-0.1142
0001362295;-3.1580;-7.0390;4.0725;0.4465;-0.2144;-0.1308
0001362303;-2.9066;-6.5003;4.0893;0.4590;-0.2125;-0.1398
0001362311;-2.5833;-6.1292;4.1492;0.4558;-0.2090;-0.1500
0001362319;-2.5714;-5.8538;4.0773;0.4422;-0.2044;-0.1516
0001362327;-2.4780;-5.4612;4.0893;0.4198;-0.2034;-0.1575
0001362335;-2.3272;-5.2457;4.1252;0.3913;-0.2061;-0.1523
0001362343;-2.3846;-5.0661;4.2018;0.3503;-0.2030;-0.1394
0001362351;-2.3032;-5.0039;4.2018;0.3128;-0.2002;-0.1203
0001362359;-2.2122;-4.9177;4.3239;0.2701;-0.1880;-0.0974
0001362367;-2.2721;-4.9273;4.3000;0.2354;-0.1876;-0.0753
0001362375;-2.5546;-5.3463;4.3239;0.1992;-0.1885;-0.0438
0001362383;-2.7461;-5.6312;4.2880;0.1791;-0.1964;-0.0249
0001362391;-2.7725;-5.9975;4.3120;0.1632;-0.2028;-0.0112
0001362399;-2.7150;-6.1052;4.2329;0.1476;-0.1928;0.0068
0001362407;-2.6432;-6.1962;4.1755;0.1303;-0.1735;0.0140
0001362415;-2.4995;-6.0047;4.1444;0.1211;-0.1616;0.0085
0001362423;-2.3774;-5.6671;4.0917;0.1170;-0.1516;0.0064
0001362431;-2.4229;-5.7652;4.0749;0.1018;-0.1391;-0.0019
0001362439;-2.5259;-5.6527;4.1539;0.0897;-0.1390;-0.0100
0001362447;-2.5211;-5.5833;4.0438;0.0837;-0.1260;-0.0148
0001362455;-2.6863;-5.6024;4.0630;0.0701;-0.1171;-0.0087
0001362463;-2.7773;-5.5378;4.1875;0.0556;-0.1100;0.0029
0001362471;-2.8156;-5.5354;4.1707;0.0465;-0.1108;0.0129
0001362479;-2.8826;-5.6407;4.0725;0.0417;-0.1243;0.0237
0001362487;-2.8850;-5.6886;4.1420;0.0289;-0.1339;0.0341
0001362495;-2.7270;-5.5258;4.0677;0.0144;-0.1412;0.0425
0001362503;-2.6863;-5.6048;4.0534;0.0031;-0.1450;0.0517
0001362511;-2.6336;-5.6383;4.0797;-0.0063;-0.1545;0.0526
0001362519;-2.6456;-5.6288;4.0654;-0.0036;-0.1643;0.0538
0001362527;-2.5187;-5.8299;4.0677;-0.0109;-0.1613;0.0604
0001362535;-2.6073;-5.9256;4.1755;-0.0052;-0.1623;0.0582
0001362543;-2.7461;-6.0645;4.2401;0.0031;-0.1573;0.0545
0001362551;-2.7294;-6.0118;4.1348;0.0061;-0.1412;0.0625
0001362559;-2.5474;-6.0334;4.1156;0.0117;-0.1370;0.0636
0001362567;-2.7150;-5.9448;4.1444;0.0290;-0.1407;0.0557
0001362575;-2.8252;-6.1124;4.2808;0.0308;-0.1304;0.0518
0001362583;-2.7485;-5.9352;4.2665;0.0318;-0.1243;0.0414
0001362591;-2.6193;-6.0047;4.1803;0.0425;-0.1254;0.0280
0001362599;-2.8323;-6.0885;4.2186;0.0596;-0.1350;0.0143
0001362607;-2.7701;-6.0621;4.1156;0.0697;-0.1327;0.0071
0001362615;-2.5355;-6.0621;4.1899;0.0761;-0.1370;-0.0041
0001362623;-2.5091;-6.1483;4.2545;0.0891;-0.1248;-0.0140
0001362631;-2.6001;-6.2249;4.2042;0.1043;-0.1216;-0.0233
0001362639;-2.6193;-6.1818;4.2162;0.1187;-0.1085;-0.0221
0001362647;-2.5714;-6.2680;4.1803;0.1286;-0.1077;-0.0302
0001362655;-2.6384;-6.2680;4.1851;0.1422;-0.1082;-0.0329
0001362663;-2.6456;-6.1292;4.1875;0.1524;-0.1061;-0.0392
0001362671;-2.5642;-6.1387;4.2737;0.1510;-0.1007;-0.0366
0001362679;-2.6264;-5.9735;4.2952;0.1516;-0.1019;-0.0430
0001362687;-2.7461;-5.9568;4.3263;0.1597;-0.0971;-0.0497
0001362695;-2.6791;-5.7269;4.3311;0.1561;-0.0871;-0.0482
0001362704;-2.5738;-5.7102;4.3000;0.1407;-0.0791;-0.0538
0001362713;-2.6025;-5.6479;4.3096;0.1347;-0.0835;-0.0558
0001362722;-2.8084;-5.6719;4.5179;0.1428;-0.0843;-0.0562
0001362731;-2.8730;-5.8395;4.3766;0.1222;-0.0862;-0.0521
0001362740;-2.8228;-5.8634;4.2497;0.1194;-0.1035;-0.0534
0001362828;-2.4804;-6.2321;4.4245;0.0685;-0.1136;-0.1110
0001362837;-2.3200;-6.2417;4.4891;0.0634;-0.1158;-0.1057
0001362846;-2.4445;-5.9879;4.5083;0.0624;-0.1259;-0.0905
0001362855;-2.5929;-6.0214;4.6424;0.0609;-0.1356;-0.0803
0001362864;-2.4325;-5.8993;4.7190;0.0449;-0.1222;-0.0592
0001362873;-2.4205;-5.8873;4.6783;0.0342;-0.1174;-0.0529
0001362882;-2.1955;-5.7604;4.5705;0.0245;-0.1259;-0.0466
0001362891;-1.8986;-5.7820;4.5897;0.0193;-0.1130;-0.0257
0001362900;-2.0039;-5.9472;4.4365;0.0197;-0.1100;-0.0180
0001362909;-2.0063;-6.0094;4.4700;0.0269;-0.0890;0.0001
0001362918;-2.1404;-6.2441;4.5586;0.0329;-0.0697;0.0111
0001362927;-2.3176;-6.0262;4.4580;0.0364;-0.0577;0.0151
0001362936;-2.2673;-5.9568;4.5035;0.0376;-0.0446;0.0296
0001362945;-2.5163;-5.9161;4.4580;0.0396;-0.0408;0.0314
0001362954;-2.8156;-5.8227;4.6256;0.0389;-0.0528;0.0300
0001362963;-2.7964;-5.8514;4.5777;0.0296;-0.0605;0.0328
0001362972;-2.8659;-5.8083;4.7621;0.0221;-0.0769;0.0266
0001362981;-2.6815;-5.3989;4.6495;0.0013;-0.0899;0.0140
0001362990;-2.6959;-5.5091;4.6471;-0.0256;-0.0909;0.0016
0001362999;-2.3272;-5.2792;4.6591;-0.0376;-0.0921;-0.0169
0001363008;-2.4014;-5.5617;4.5897;-0.0537;-0.0789;-0.0075
0001363017;-2.1213;-5.7604;4.6256;-0.0594;-0.0628;-0.0124
0001363026;-2.2290;-5.9975;4.5442;-0.0492;-0.0424;-0.0093
0001363035;-2.0016;-6.0382;4.4963;-0.0401;-0.0244;-0.0009
0001363044;-2.1021;-6.0885;4.4532;-0.0216;-0.0169;-0.0033
0001363053;-2.3846;-6.2824;4.4963;-0.0091;-0.0009;0.0027
0001363062;-2.3870;-5.9903;4.5681;0.0048;0.0073;-0.0024
0001363071;-2.5091;-6.0286;4.6328;0.0076;0.0248;0.0040
0001363080;-2.4277;-5.8826;4.6352;0.0116;0.0313;-0.0015
0001363089;-2.5809;-5.7988;4.5394;0.0121;0.0405;-0.0039
0001363098;-2.6097;-5.7126;4.5346;0.0104;0.0330;-0.0180
0001363107;-2.4373;-5.6503;4.4700;0.0039;0.0518;-0.0280
0001363116;-2.2553;-5.7724;4.4149;0.0125;0.0723;-0.0490
0001363125;-2.4445;-5.9472;4.3144;0.0234;0.1128;-0.0596
0001363134;-2.3655;-6.1148;4.2689;0.0444;0.1299;-0.0735
0001363143;-2.4110;-6.0717;4.2138;0.0602;0.1476;-0.0805
0001363152;-2.5426;-6.2345;4.1899;0.0897;0.1440;-0.0921
0001363161;-2.7509;-6.2369;4.2138;0.1174;0.1274;-0.1026
0001363170;-2.9425;-5.9903;4.3359;0.1199;0.1104;-0.1110
0001363179;-2.9449;-5.9472;4.2401;0.1272;0.0834;-0.1216
0001363188;-3.0454;-5.7365;4.2737;0.1274;0.0614;-0.1274
0001363197;-3.0287;-5.6671;4.2760;0.1224;0.0400;-0.1188
0001363206;-3.4022;-5.8562;4.2473;0.1222;0.0079;-0.1228
0001363215;-3.3040;-5.9400;4.1037;0.1246;-0.0217;-0.1296
0001363224;-3.2777;-5.8442;4.1372;0.1248;-0.0488;-0.1340
0001363233;-3.1747;-5.8395;4.0582;0.1211;-0.0618;-0.1420
0001363242;-2.9904;-5.7940;4.2425;0.1195;-0.0757;-0.1548
0001363251;-3.0095;-5.9568;4.2569;0.1208;-0.0853;-0.1649
0001363260;-2.8204;-5.7844;4.2066;0.1160;-0.0879;-0.1571
0001363269;-2.9544;-5.9256;4.1946;0.1220;-0.1031;-0.1585
0001363278;-2.7845;-5.8227;4.2665;0.1166;-0.1057;-0.1404
0001363287;-2.6791;-5.7868;4.2162;0.1150;-0.1190;-0.1366
0001363296;-2.7653;-5.7389;4.1324;0.0987;-0.1135;-0.1258
0001363305;-2.6719;-6.0094;4.2162;0.0909;-0.1139;-0.1146
0001363314;-2.3798;-5.6024;4.2784;0.0739;-0.1067;-0.1031
0001363323;-2.1907;-5.6527;4.2066;0.0616;-0.0986;-0.0949
0001363332;-2.1117;-5.5569;4.2713;0.0468;-0.0741;-0.0801
0001363341;-2.1404;-5.7724;4.1084;0.0317;-0.0592;-0.0589
0001363350;-2.0590;-5.5067;4.1061;0.0160;-0.0493;-0.0341
0001363359;-2.3942;-5.7581;4.2210;0.0087;-0.0372;-0.0021
0001363368;-2.3391;-5.6671;4.2353;-0.0112;-0.0317;0.0273
0001363377;-2.5019;-5.6958;4.1061;-0.0312;-0.0226;0.0561
0001363386;-2.4253;-5.7030;4.1587;-0.0413;-0.0250;0.0715
0001363395;-2.6288;-5.8634;4.1803;-0.0598;-0.0095;0.0958
0001363404;-2.6408;-5.8059;4.1755;-0.0702;-0.0093;0.1146
0001363413;-2.8491;-5.9711;4.1061;-0.0759;-0.0269;0.1166
0001363422;-2.9784;-5.9424;4.3335;-0.0834;-0.0428;0.1218
0001363431;-2.8706;-5.8706;4.1946;-0.0919;-0.0666;0.1174
0001363440;-2.9760;-5.8083;4.2090;-0.1100;-0.0730;0.1178
0001363449;-3.0215;-5.8131;4.2234;-0.1204;-0.0851;0.1065
0001363458;-3.0478;-5.7054;4.2832;-0.1308;-0.0941;0.0962
0001363546;-2.5259;-5.8538;4.2497;-0.0934;-0.1107;0.0871
0001363555;-2.4062;-5.8323;4.3144;-0.1013;-0.1053;0.1010
0001363564;-2.5259;-5.8754;4.4173;-0.0959;-0.1058;0.0997
0001363573;-2.4660;-5.8323;4.4508;-0.0897;-0.0989;0.0982
0001363582;-2.5953;-5.8945;4.3886;-0.0947;-0.0951;0.0894
0001363591;-2.3367;-5.7078;4.3862;-0.0927;-0.0834;0.0807
0001363600;-2.4229;-5.9664;4.2976;-0.0867;-0.0663;0.0655
0001363609;-2.4708;-6.1818;4.2593;-0.0655;-0.0486;0.0572
0001363618;-2.4780;-6.3303;4.2306;-0.0449;-0.0234;0.0386
0001363627;-2.4732;-6.3518;4.2473;-0.0144;-0.0149;0.0171
0001363636;-2.7031;-6.4955;4.2569;0.0064;-0.0035;0.0053
0001363645;-2.6288;-6.1914;4.2832;0.0313;0.0012;-0.0207
0001363654;-2.5977;-6.1148;4.2665;0.0449;0.0044;-0.0396
0001363663;-2.7102;-5.7557;4.2665;0.0474;0.0049;-0.0683
0001363672;-2.5786;-5.4277;4.2377;0.0462;0.0131;-0.0829
0001363681;-2.6288;-5.3534;4.2904;0.0361;0.0365;-0.0975
0001363690;-2.5283;-5.5067;4.1922;0.0318;0.0541;-0.1116
0001363699;-2.4756;-5.4875;4.0151;0.0229;0.0762;-0.1135
0001363708;-2.3798;-5.5043;3.9193;0.0296;0.0999;-0.1143
0001363717;-2.4038;-5.7581;3.9289;0.0341;0.1063;-0.1092
0001363726;-2.6145;-5.7581;3.7589;0.0397;0.1162;-0.0895
0001363735;-2.7438;-5.6671;3.8547;0.0458;0.1184;-0.0765
0001363744;-2.8180;-5.5809;3.8666;0.0448;0.1017;-0.0618
0001363753;-3.0167;-5.7700;3.8403;0.0404;0.0702;-0.0493
0001363762;-3.0215;-5.6312;3.8834;0.0398;0.0388;-0.0449
0001363771;-3.0191;-5.7652;3.9480;0.0314;0.0113;-0.0353
0001363780;-2.7916;-5.7676;3.9648;0.0384;-0.0053;-0.0289
0001363789;-2.6552;-5.9711;3.8523;0.0493;-0.0165;-0.0257
0001363798;-2.4301;-5.9616;3.7517;0.0725;-0.0389;-0.0373
0001363807;-2.5594;-6.0406;3.7757;0.0959;-0.0117;-0.0298
0001363816;-2.6073;-6.1723;3.8235;0.1053;-0.0112;-0.0281
0001363825;-2.7605;-6.1387;3.7158;0.1356;-0.0389;-0.0330
0001363834;-2.6647;-5.9616;3.7421;0.1474;-0.0378;-0.0207
0001363843;-2.6432;-5.9185;3.8762;0.1633;-0.0360;-0.0205
0001363852;-2.8371;-5.9065;3.9361;0.1793;-0.0314;-0.0156
0001363861;-2.7605;-5.9759;3.8283;0.1865;-0.0618;-0.0063
0001363870;-2.8922;-5.8179;3.9744;0.2036;-0.0798;-0.0045
0001363879;-2.9425;-5.7509;3.9002;0.2097;-0.0735;0.0020
0001363888;-2.8826;-5.5330;4.0797;0.2216;-0.0665;-0.0181
0001363897;-2.9904;-5.8490;4.1396;0.2197;-0.1069;-0.0196
0001363906;-2.9736;-5.8251;4.0917;0.2257;-0.1415;-0.0264
0001363915;-2.4253;-5.9352;4.0318;0.2389;-0.1868;-0.0119
0001363924;-2.4972;-6.1411;4.0007;0.2561;-0.2040;-0.0402
0001363933;-2.6456;-5.8538;4.1061;0.2741;-0.1339;-0.0380
0001363942;-2.5762;-5.8826;4.1611;0.2972;-0.1331;-0.0670
0001363951;-2.6001;-5.9017;4.0151;0.3048;-0.1573;-0.0914
0001363960;-2.5929;-5.8873;4.1659;0.3156;-0.1720;-0.1010
0001363969;-2.5019;-5.8921;4.1372;0.3344;-0.1899;-0.1092
0001363978;-2.4253;-5.8275;4.1300;0.3532;-0.1917;-0.1170
0001363987;-2.0183;-5.8993;3.9504;0.3695;-0.1796;-0.1254
0001363996;-2.0686;-5.9544;4.1013;0.3904;-0.1611;-0.1196
0001364005;-2.4134;-5.9687;4.0031;0.4197;-0.1422;-0.1170
0001364014;-2.3894;-5.8897;4.0438;0.4351;-0.1061;-0.1312
0001364023;-2.4301;-5.8945;3.8499;0.4375;-0.0923;-0.1370
0001364032;-2.5426;-5.8035;3.9193;0.4481;-0.1066;-0.1444
0001364041;-2.5043;-5.5402;4.0127;0.4285;-0.1159;-0.1512
0001364050;-2.5642;-5.5067;4.1324;0.4141;-0.1306;-0.1735
0001364059;-2.2027;-5.3175;4.2066;0.4058;-0.1342;-0.1937
0001364068;-2.2266;-5.2505;4.3694;0.3928;-0.1058;-0.2117
0001364077;-2.5642;-5.6934;4.0701;0.3784;-0.0861;-0.2098
0001364086;-2.5690;-5.9927;4.0366;0.3964;-0.0954;-0.2012
0001364095;-2.7749;-6.2537;3.9911;0.3993;-0.0869;-0.1820
0001364104;-2.7222;-6.2824;3.9696;0.4269;-0.0906;-0.1717
0001364113;-2.5809;-6.1555;3.8834;0.4434;-0.0966;-0.1565
0001364122;-2.5139;-6.0885;3.8666;0.4474;-0.0969;-0.1540
0001364131;-2.5139;-5.9616;3.8044;0.4535;-0.1140;-0.1688
0001364140;-2.4157;-5.8969;3.8666;0.4418;-0.1218;-0.1785
0001364149;-2.3320;-5.8012;4.0294;0.4198;-0.1275;-0.2002
0001364158;-2.2673;-5.7796;4.1013;0.4158;-0.1414;-0.2153
0001364167;-2.3607;-5.9496;3.9504;0.3914;-0.1444;-0.2052
0001364176;-1.9417;-6.1435;3.8307;0.3928;-0.1672;-0.2036
0001364262;-0.0192;-5.8203;2.6432;0.4173;-0.2106;-0.0919
0001364271;0.1580;-5.7676;2.5139;0.4194;-0.1929;-0.0230
0001364280;0.0934;-5.8993;2.5522;0.4002;-0.1849;0.0326
0001364289;0.2251;-5.7940;2.4229;0.3575;-0.1725;0.0753
0001364298;0.1628;-5.6192;2.3367;0.3203;-0.1837;0.1038
0001364307;0.0599;-5.4516;2.3798;0.2892;-0.2164;0.1348
0001364316;0.0766;-5.2936;2.2936;0.2567;-0.2471;0.1601
0001364325;-0.1580;-5.1020;2.4421;0.2419;-0.2920;0.1713
0001364334;-0.0742;-5.3343;2.7366;0.2276;-0.3156;0.1640
0001364343;-0.1724;-5.6647;3.2848;0.2038;-0.3411;0.1307
0001364352;-0.7542;-5.9544;3.8690;0.1484;-0.3700;0.0750
0001364361;-1.9513;-5.1068;3.3255;0.1218;-0.4151;-0.0157
0001364370;-2.6145;-4.3383;3.7589;0.1054;-0.4568;-0.1435
0001364379;-3.0358;-4.6902;4.9153;0.0917;-0.4664;-0.2413
0001364388;-3.6176;-4.9392;6.2537;0.0168;-0.4788;-0.3042
0001364397;-5.0063;-4.3718;7.0844;-0.1387;-0.5237;-0.3908
0001364406;-5.3295;-2.7126;7.1395;-0.3220;-0.5973;-0.5275
0001364415;-4.8507;-1.8244;7.8219;-0.4979;-0.6656;-0.6135
0001364424;-3.0215;-2.2649;7.5753;-0.6294;-0.6780;-0.5580
0001364433;-0.7302;-3.7110;6.2393;-0.6817;-0.5522;-0.3533
0001364442;0.9697;-5.0542;5.5402;-0.6740;-0.3110;-0.0731
0001364451;1.8435;-5.8179;5.1978;-0.6155;-0.0113;0.1825
0001364460;1.5754;-6.3039;4.9847;-0.5505;0.2818;0.3351
0001364469;0.3639;-6.3758;5.1427;-0.4839;0.4942;0.3404
0001364478;-1.3360;-6.3494;5.3247;-0.4374;0.6094;0.2731
0001364487;-3.0167;-5.9975;5.3247;-0.4253;0.5969;0.1395
0001364496;-5.0613;-5.7724;5.4731;-0.4640;0.5023;-0.0296
0001364505;-6.8163;-5.0350;6.0741;-0.5283;0.3793;-0.2300
0001364514;-8.3821;-4.0342;6.5577;-0.6087;0.2738;-0.4269
0001364523;-9.1387;-3.1843;7.0198;-0.6896;0.1459;-0.6206
0001364532;-8.8011;-2.7174;6.7133;-0.7369;-0.0084;-0.7464
0001364541;-7.9296;-3.4117;6.5050;-0.7822;-0.1475;-0.7915
0001364550;-6.5601;-4.5298;6.2824;-0.8136;-0.2717;-0.7829
0001364559;-5.1978;-6.2297;6.1962;-0.8068;-0.3038;-0.7068
0001364568;-3.7445;-7.6830;6.1100;-0.7322;-0.2509;-0.5857
0001364577;-2.9760;-8.9304;5.7461;-0.5955;-0.1583;-0.4353
0001364586;-2.3032;-9.7205;5.6096;-0.4378;-0.0953;-0.2825
0001364595;-2.5833;-9.8952;5.7628;-0.2899;-0.1079;-0.1612
0001364604;-3.0694;-9.0908;5.9999;-0.1968;-0.1420;-0.0713
0001364613;-3.1891;-7.6974;6.2321;-0.1335;-0.1585;-0.0220
0001364622;-3.1651;-6.2177;6.1986;-0.0934;-0.1442;-0.0288
0001364631;-3.3423;-5.4396;6.2034;-0.0846;-0.1212;-0.1022
0001364640;-3.3615;-5.2648;5.9927;-0.0881;-0.0843;-0.2029
0001364649;-2.9018;-5.4947;5.6264;-0.0618;-0.0729;-0.3003
0001364658;-2.8587;-6.5793;5.4779;-0.0121;-0.0558;-0.3479
0001364667;-2.5881;-7.3598;5.4636;0.0646;-0.0425;-0.3651
0001364676;-2.5067;-7.7500;5.2864;0.1308;-0.0428;-0.3549
0001364685;-2.5953;-7.6974;5.3917;0.1884;-0.0573;-0.3218
0001364694;-2.9066;-7.3239;5.7628;0.2118;-0.0722;-0.2972
0001364703;-3.0694;-6.7277;5.7916;0.2264;-0.0935;-0.2894
0001364712;-3.4788;-6.3758;5.8993;0.2045;-0.1073;-0.2637
0001364721;-3.5314;-5.8538;5.8634;0.1859;-0.1330;-0.2653
0001364730;-3.4836;-5.6767;5.9376;0.1628;-0.1751;-0.2931
0001364739;-3.1029;-5.8395;5.8610;0.1376;-0.2025;-0.3072
0001364748;-2.6312;-6.3805;5.7437;0.1540;-0.2064;-0.2982
0001364757;-2.0566;-6.9216;5.5713;0.2045;-0.1731;-0.2723
0001364766;-1.5850;-7.1898;5.5115;0.2579;-0.1066;-0.2318
0001364775;-1.5395;-7.7620;5.4588;0.3207;-0.0739;-0.2002
0001364784;-1.6831;-7.4843;5.4827;0.3576;-0.0550;-0.1751
0001364793;-1.8938;-7.2353;5.6838;0.3793;-0.0524;-0.1735
0001364802;-2.3727;-6.7469;5.7389;0.3786;-0.0488;-0.1789
0001364811;-2.4876;-6.1579;5.7293;0.3521;-0.0494;-0.1973
0001364820;-2.6528;-5.4755;5.8107;0.3162;-0.0557;-0.2270
0001364829;-2.4972;-4.8961;5.8275;0.2762;-0.0681;-0.2735
0001364838;-2.3655;-5.0901;5.8227;0.2453;-0.0658;-0.2884
0001364847;-2.1069;-5.7389;5.7892;0.2431;-0.0614;-0.2874
0001364856;-2.2362;-6.3159;5.5569;0.2487;-0.0254;-0.2550
0001364865;-1.7813;-6.4907;5.5761;0.2617;0.0121;-0.2341
0001364874;-1.9201;-6.8738;5.4324;0.2702;0.0425;-0.2016
0001364883;-1.7382;-6.7684;5.3678;0.2750;0.0485;-0.1819
0001364892;-1.7119;-6.5218;5.2337;0.2655;0.0657;-0.1528
0001365036;-2.2625;-6.8091;4.5729;0.1330;0.2225;-0.1376
0001365045;-2.0542;-6.7421;4.5753;0.1284;0.2345;-0.1362
0001365054;-1.9417;-6.7397;4.5538;0.1331;0.2495;-0.1510
0001365063;-1.6951;-6.5601;4.5203;0.1202;0.2791;-0.1458
0001365072;-1.8483;-6.3949;4.6519;0.1079;0.3042;-0.1625
0001365081;-1.8699;-6.0837;4.6855;0.0893;0.3331;-0.1725
0001365090;-2.1620;-6.2417;4.6064;0.0677;0.3511;-0.1883
0001365099;-2.0758;-6.0071;4.5322;0.0525;0.3489;-0.2096
0001365108;-2.3272;-6.3255;4.4700;0.0260;0.3496;-0.2204
0001365117;-2.4062;-6.3782;4.5418;0.0088;0.3528;-0.2304
0001365126;-2.3080;-6.5098;4.5729;-0.0015;0.3576;-0.2222
0001365135;-2.5019;-6.6679;4.4796;-0.0131;0.3544;-0.2141
0001365144;-2.1596;-6.6128;4.5179;-0.0120;0.3385;-0.2138
0001365153;-2.1308;-6.6535;4.4748;-0.0169;0.3351;-0.2004
0001365162;-2.1979;-6.7924;4.4867;-0.0204;0.3234;-0.1986
0001365171;-2.1691;-6.7564;4.6543;-0.0121;0.3054;-0.2000
0001365180;-2.5594;-6.9336;4.6352;-0.0140;0.2950;-0.1932
0001365189;-2.6049;-6.8019;4.6807;0.0155;0.2593;-0.1939
0001365198;-2.6743;-6.8546;4.6424;0.0281;0.2293;-0.1757
0001365207;-2.8467;-6.9145;4.7309;0.0381;0.1998;-0.1677
0001365216;-2.8299;-6.8618;4.7621;0.0462;0.1998;-0.1516
0001365225;-2.8036;-6.7349;4.5203;0.0473;0.1984;-0.1384
0001365234;-2.6336;-6.6750;4.4580;0.0533;0.1976;-0.1302
0001365243;-2.6911;-6.7540;4.5705;0.0494;0.2093;-0.1276
0001365252;-2.7150;-6.6367;4.3910;0.0466;0.1981;-0.1424
0001365261;-2.7222;-6.7421;4.4508;0.0408;0.2028;-0.1467
0001365270;-2.9449;-6.7924;4.4748;0.0390;0.2000;-0.1523
0001365279;-2.8683;-6.9671;4.6376;0.0446;0.1820;-0.1579
0001365288;-3.0765;-7.0485;4.7142;0.0545;0.1696;-0.1468
0001365297;-3.2825;-7.3119;4.6424;0.0795;0.1399;-0.1322
0001365306;-3.3734;-7.5178;4.6232;0.0982;0.1224;-0.1171
0001365315;-3.1316;-7.4101;4.5466;0.1144;0.1009;-0.0839
0001365324;-3.1220;-7.4220;4.4652;0.1288;0.0838;-0.0646
0001365333;-2.7102;-6.8977;4.4819;0.1390;0.0714;-0.0514
0001365342;-2.7270;-6.8235;4.4772;0.1351;0.0678;-0.0266
0001365351;-2.6240;-6.4835;4.4819;0.1178;0.0645;-0.0073
0001365360;-2.4756;-6.1387;4.4221;0.1114;0.0570;0.0065
0001365369;-2.6480;-6.2345;4.4029;0.0885;0.0528;0.0241
0001365378;-2.7485;-6.3662;4.4532;0.0657;0.0424;0.0264
0001365387;-2.8563;-6.5481;4.4221;0.0364;0.0349;0.0314
0001365396;-2.8371;-6.4955;4.4125;0.0189;0.0217;0.0358
0001365405;-2.9209;-6.5984;4.2186;0.0047;0.0033;0.0465
0001365414;-3.1005;-6.5697;4.2904;0.0007;-0.0203;0.0557
0001365423;-3.0191;-6.4500;4.2641;-0.0233;-0.0377;0.0657
0001365432;-3.1220;-6.5793;4.1563;-0.0433;-0.0585;0.0685
0001365441;-2.9856;-6.7445;4.2449;-0.0634;-0.0667;0.0618
0001365450;-2.9113;-6.6032;4.1348;-0.0939;-0.0557;0.0769
0001365459;-2.9233;-6.5553;4.0031;-0.1127;-0.0448;0.0781
0001365468;-2.7366;-6.5146;3.8882;-0.1282;-0.0364;0.0801
0001365477;-2.6624;-6.4667;3.9217;-0.1446;-0.0290;0.0794
0001365486;-2.7438;-6.6248;3.9983;-0.1589;-0.0180;0.0823
0001365495;-2.7485;-6.7301;3.8738;-0.1636;-0.0164;0.0791
0001365504;-2.9832;-6.8187;3.8978;-0.1643;-0.0095;0.0726
0001365513;-2.8826;-6.8139;3.8475;-0.1693;-0.0076;0.0765
0001365522;-2.9880;-6.7804;3.7589;-0.1639;-0.0120;0.0745
0001365531;-3.0047;-6.8498;3.7804;-0.1739;-0.0200;0.0723
0001365540;-2.9209;-6.7995;3.7804;-0.1688;-0.0325;0.0673
0001365549;-2.8970;-6.8378;3.8068;-0.1633;-0.0341;0.0727
0001365558;-2.5953;-6.8019;3.6033;-0.1553;-0.0368;0.0758
0001365567;-2.4565;-6.8307;3.6296;-0.1318;-0.0358;0.0751
0001365576;-2.4349;-6.8402;3.4884;-0.1258;-0.0157;0.0758
0001365585;-2.4780;-6.8259;3.4788;-0.1172;-0.0020;0.0661
0001365594;-2.3415;-6.6319;3.2872;-0.1200;0.0281;0.0641
0001365603;-2.2362;-6.4548;3.2872;-0.1246;0.0569;0.0597
0001365612;-2.3439;-6.3303;3.4165;-0.1375;0.0829;0.0484
0001365621;-2.4517;-6.1459;3.2848;-0.1467;0.1025;0.0472
0001365630;-2.4062;-6.0789;3.3639;-0.1519;0.0994;0.0318
0001365639;-2.6384;-6.4739;3.3160;-0.1464;0.0923;0.0313
0001365648;-2.7869;-6.7349;3.4716;-0.1250;0.0687;0.0127
0001365657;-2.9544;-7.1922;3.6775;-0.0999;0.0520;-0.0073
0001365666;-2.9951;-7.4723;3.7589;-0.0598;0.0197;-0.0428
0001365754;-2.6647;-6.3925;3.5554;0.2856;0.0226;-0.2505
0001365763;-2.6264;-6.0669;3.5530;0.2569;0.0324;-0.2521
0001365772;-2.7509;-5.8873;3.4189;0.2062;0.0614;-0.2431
0001365781;-2.9568;-5.8466;3.2298;0.1615;0.0751;-0.2305
0001365790;-3.3327;-5.9592;3.1101;0.1092;0.0803;-0.2002
0001365799;-3.4572;-5.8969;3.0335;0.0585;0.0719;-0.1592
0001365808;-3.4931;-5.9137;2.8994;0.0112;0.0542;-0.1062
0001365817;-3.3016;-5.8873;2.7892;-0.0328;0.0338;-0.0538
0001365826;-3.2777;-6.0932;2.7988;-0.0777;0.0236;0.0097
0001365835;-3.1077;-6.0454;2.9018;-0.1119;0.0039;0.0667
0001365844;-3.3878;-6.4404;3.0287;-0.1488;-0.0064;0.1122
0001365853;-3.6033;-6.5888;3.0622;-0.1632;-0.0349;0.1322
0001365862;-3.7158;-6.7373;3.1603;-0.1781;-0.0837;0.1382
0001365871;-3.5099;-6.8211;3.1412;-0.1739;-0.1545;0.1143
0001365880;-3.1532;-6.9671;3.0311;-0.1612;-0.2088;0.0853
0001365889;-3.1460;-7.3789;3.1532;-0.1387;-0.2226;0.0538
0001365898;-2.7892;-7.1730;3.1364;-0.1081;-0.2393;0.0224
0001365907;-2.7701;-7.1946;3.2705;-0.0759;-0.2395;-0.0246
0001365916;-2.4517;-6.8546;3.3232;-0.0592;-0.2509;-0.0518
0001365925;-2.3056;-6.8283;3.4285;-0.0572;-0.2454;-0.0644
0001365934;-1.9154;-6.7109;3.3232;-0.0582;-0.2474;-0.0818
0001365943;-1.7885;-6.8259;3.4453;-0.0565;-0.2376;-0.0922
0001365952;-1.3767;-6.8115;3.3639;-0.0556;-0.2000;-0.1098
0001365961;-1.5850;-7.1467;3.2609;-0.0502;-0.1382;-0.1434
0001365970;-1.4605;-7.1108;3.1867;-0.0425;-0.0873;-0.1929
0001365979;-2.0782;-7.2832;3.2010;-0.0438;-0.0469;-0.2486
0001365988;-2.5594;-7.3382;3.2106;-0.0302;-0.0332;-0.3022
0001365997;-3.0837;-7.4292;3.1723;-0.0282;-0.0301;-0.3250
0001366006;-2.8946;-7.0701;3.2705;-0.0104;-0.0534;-0.3492
0001366015;-2.9377;-7.1706;3.3255;0.0035;-0.0779;-0.3525
0001366024;-2.6600;-7.0150;3.2872;0.0143;-0.1242;-0.3428
0001366033;-2.6025;-7.2233;3.5530;0.0189;-0.1100;-0.3496
0001366042;-2.7174;-7.2927;3.4764;0.0337;-0.1338;-0.3333
0001366051;-2.3511;-7.2209;3.2992;0.0410;-0.1340;-0.3124
0001366060;-2.2314;-7.0413;3.1196;0.0465;-0.1260;-0.3067
0001366069;-2.1332;-6.8211;3.0957;0.0545;-0.1336;-0.2950
0001366078;-2.5091;-7.0605;3.2394;0.0352;-0.0863;-0.3000
0001366087;-2.6767;-7.1251;3.3160;0.0261;-0.0577;-0.3094
0001366096;-2.9353;-6.8929;3.3950;0.0025;-0.0617;-0.2864
0001366105;-2.9904;-6.7325;3.5386;-0.0071;-0.0989;-0.2693
0001366114;-2.7318;-6.4380;3.6081;-0.0314;-0.1419;-0.2485
0001366123;-2.6480;-6.3111;3.4860;-0.0626;-0.1459;-0.2382
0001366132;-2.6384;-6.4859;3.5171;-0.0783;-0.1663;-0.2384
0001366141;-2.5283;-6.6607;3.5626;-0.1103;-0.1969;-0.2141
0001366150;-2.4493;-6.7373;3.5602;-0.1304;-0.2313;-0.1968
0001366159;-2.4517;-6.9911;3.6416;-0.1545;-0.2288;-0.1823
0001366168;-2.2529;-7.1084;3.7086;-0.1647;-0.2321;-0.1745
0001366177;-2.1093;-6.9456;3.4500;-0.1651;-0.2250;-0.1620
0001366186;-1.8172;-6.8977;3.5219;-0.1712;-0.2085;-0.1446
0001366195;-1.9130;-6.8714;3.5458;-0.1767;-0.1467;-0.1472
0001366204;-2.2314;-7.0461;3.6679;-0.1864;-0.1127;-0.1719
0001366213;-2.4014;-7.1970;3.8259;-0.1897;-0.0875;-0.1825
0001366222;-2.9808;-7.2712;4.1922;-0.1877;-0.1162;-0.2129
0001366231;-3.3160;-7.5824;4.5921;-0.1769;-0.1969;-0.2122
0001366240;-3.2801;-7.9847;4.8028;-0.1284;-0.2715;-0.2020
0001366249;-3.0861;-8.2145;4.7429;-0.0682;-0.2987;-0.1649
0001366258;-2.9784;-8.6718;4.8746;0.0145;-0.3194;-0.1360
0001366267;-2.9664;-8.7915;5.2912;0.1010;-0.3264;-0.0903
0001366276;-3.1125;-8.6886;5.4971;0.1743;-0.2924;-0.0833
0001366285;-3.4836;-8.2193;5.5043;0.2129;-0.2454;-0.0989
0001366294;-4.0510;-7.9224;5.4372;0.2230;-0.2364;-0.1342
0001366303;-4.0414;-7.5346;5.2744;0.2172;-0.2450;-0.1537
0001366312;-3.8738;-7.3382;5.1906;0.1877;-0.2352;-0.1956
0001366321;-3.2705;-7.2856;4.8028;0.1735;-0.2269;-0.2402
0001366330;-2.6959;-7.6782;4.5442;0.1436;-0.2124;-0.2325
0001366339;-2.2122;-7.9918;4.5131;0.1470;-0.1883;-0.2116
0001366348;-1.9369;-8.2073;4.2138;0.1740;-0.1464;-0.1653
0001366357;-1.9465;-8.4779;4.0270;0.2368;-0.1001;-0.1219
0001366366;-2.3080;-8.6814;4.1994;0.3055;-0.0823;-0.0890
0001366375;-2.8659;-9.1411;4.1851;0.3744;-0.0817;-0.0606
0001366463;-1.3671;-6.3231;4.8842;0.3587;-0.0509;-0.0096
0001366472;-1.3479;-6.6032;4.9488;0.3051;-0.0067;-0.0188
0001366481;-1.3575;-7.0102;4.8411;0.2562;0.0268;0.0087
0001366490;-1.5754;-7.1994;4.8100;0.2392;0.0337;0.0377
0001366499;-1.7430;-7.5968;4.8554;0.2157;0.0398;0.0859
0001366508;-1.9321;-7.6830;4.6974;0.2205;0.0292;0.1382
0001366517;-2.2075;-7.8745;4.8363;0.2172;0.0203;0.2008
0001366526;-2.2673;-7.9535;4.8483;0.2282;-0.0061;0.2617
0001366535;-2.3320;-7.9559;4.9512;0.2609;-0.0462;0.3196
0001366544;-2.3272;-8.0804;4.8914;0.3015;-0.0621;0.3728
0001366553;-2.3679;-8.0445;5.0015;0.3580;-0.0758;0.3932
0001366562;-2.6025;-8.0661;5.2625;0.4299;-0.0919;0.3906
0001366571;-2.8611;-8.2049;5.3223;0.5065;-0.1050;0.3824
0001366580;-3.0239;-8.4372;5.4253;0.6107;-0.0926;0.3814
0001366589;-3.4620;-8.8609;5.3199;0.7043;-0.0473;0.4028
0001366598;-3.2585;-8.9040;4.6998;0.7598;0.0101;0.3990
0001366607;-3.2753;-8.4898;4.4796;0.7823;0.0588;0.3844
0001366616;-2.8611;-7.7117;4.3886;0.8006;0.0530;0.3477
0001366625;-2.4948;-6.9216;4.4939;0.7855;0.0372;0.2910
0001366634;-2.1404;-6.2776;4.6184;0.7747;0.0321;0.2358
0001366643;-1.8148;-6.0166;4.8435;0.7589;0.0460;0.2089
0001366652;-1.9561;-6.0885;4.6998;0.7548;0.0654;0.1923
0001366661;-1.8220;-5.9448;4.7190;0.7469;0.0733;0.1779
0001366670;-2.0494;-6.2848;4.7142;0.7476;0.0733;0.1587
0001366679;-2.2098;-6.6008;4.6184;0.7746;0.0638;0.1300
0001366688;-2.4134;-7.0294;4.6878;0.8011;0.0707;0.1188
0001366697;-3.0071;-7.4292;4.4508;0.8451;0.0655;0.1090
0001366706;-3.1987;-7.5274;4.2090;0.8844;0.0540;0.1199
0001366715;-3.5099;-7.5130;4.0366;0.9498;0.0017;0.1335
0001366724;-3.2106;-7.4316;3.9480;0.9983;-0.0624;0.1616
0001366733;-3.0287;-7.1826;3.7565;1.0415;-0.1138;0.1909
0001366742;-2.4995;-6.7804;3.8523;1.0717;-0.1463;0.2033
0001366751;-2.2529;-6.4380;3.9624;1.1074;-0.1633;0.2046
0001366760;-1.9058;-6.0310;4.0079;1.1103;-0.1529;0.2068
0001366769;-1.6807;-5.7533;3.9768;1.1060;-0.1215;0.1820
0001366778;-1.6137;-5.6599;3.9361;1.0874;-0.0710;0.1432
0001366787;-1.7597;-5.6000;4.0797;1.0545;-0.0111;0.1228
0001366796;-2.0997;-5.2984;4.0630;1.0357;0.0224;0.1088
0001366805;-2.2960;-5.2625;4.1156;1.0079;0.0416;0.1070
0001366814;-2.8276;-5.2792;4.2689;0.9939;0.0242;0.1031
0001366823;-3.1388;-5.3630;4.2976;0.9898;-0.0179;0.0921
0001366832;-3.2106;-5.4899;4.2329;0.9737;-0.0520;0.0862
0001366841;-3.2346;-5.6886;4.1803;0.9719;-0.0978;0.0727
0001366850;-3.1963;-5.7676;4.1659;0.9447;-0.1049;0.0602
0001366859;-3.0789;-5.5617;4.3072;0.9421;-0.0873;0.0541
0001366868;-3.6847;-5.6982;4.6687;0.9312;-0.0322;0.0665
0001366877;-4.1132;-5.5545;4.6064;0.9021;0.0076;0.0646
0001366886;-4.3263;-5.1619;4.6471;0.8779;0.0201;0.0369
0001366895;-4.2689;-4.7669;4.7142;0.8406;0.0045;-0.0100
0001366904;-4.4748;-4.7166;4.8339;0.7963;-0.0115;-0.0605
0001366913;-3.9433;-4.4245;4.9105;0.7446;-0.0056;-0.1384
0001366922;-3.9073;-4.5657;4.9943;0.7080;0.0302;-0.2149
0001366931;-3.9528;-4.7070;4.9416;0.6731;0.0830;-0.2571
0001366940;-4.1132;-4.6448;4.8961;0.6394;0.1310;-0.2761
0001366949;-4.5777;-4.8363;4.9656;0.6122;0.1343;-0.3008
0001366958;-4.8794;-4.6878;5.1260;0.5724;0.1143;-0.3164
0001366967;-5.1044;-4.9201;5.2074;0.5269;0.0646;-0.3389
0001366976;-4.8914;-5.0206;5.2912;0.4911;-0.0025;-0.3778
0001366985;-4.5418;-4.7238;5.3391;0.4319;-0.0373;-0.4122
0001366994;-4.2880;-4.7405;5.4253;0.3866;-0.0606;-0.4315
0001367003;-3.8235;-4.6040;5.4300;0.3300;-0.0838;-0.4342
0001367012;-3.6176;-4.6424;5.5569;0.2948;-0.1037;-0.4319
0001367021;-3.4141;-4.7214;5.5258;0.2507;-0.0871;-0.3957
0001367030;-3.4931;-5.0709;5.3654;0.2165;-0.0983;-0.3676
0001367039;-3.5530;-5.2409;5.2218;0.1933;-0.1256;-0.3551
0001367048;-3.8331;-5.2529;5.2170;0.1709;-0.1764;-0.3472
0001367057;-3.5171;-5.3415;5.3223;0.1691;-0.2360;-0.3477
0001367066;-3.2298;-5.4731;5.1475;0.1620;-0.2835;-0.3624
0001367075;-2.5786;-5.4588;5.0757;0.1603;-0.2948;-0.3615
0001367084;-2.2146;-5.3822;4.9608;0.1653;-0.2892;-0.3677
0001367093;-2.2697;-5.5067;4.9632;0.1656;-0.2842;-0.3593
0001367102;-2.3176;-5.2936;4.8698;0.1655;-0.2928;-0.3359
0001367194;-2.1452;-5.5091;4.6639;-0.1103;-0.4230;-0.1884
0001367203;-1.6807;-5.5593;4.5921;-0.1218;-0.4318;-0.1841
0001367212;-1.7669;-5.7365;4.6352;-0.1319;-0.4239;-0.1849
0001367221;-1.3934;-5.7437;4.5226;-0.1403;-0.3810;-0.2053
0001367230;-1.5251;-6.2034;4.4317;-0.1446;-0.3277;-0.2041
0001367239;-1.4293;-6.3207;4.3910;-0.1160;-0.2896;-0.1989
0001367248;-1.4988;-6.2584;4.2162;-0.0981;-0.2445;-0.1974
0001367257;-1.4317;-6.2680;4.1108;-0.0749;-0.1801;-0.1992
0001367266;-1.7119;-6.5553;4.0869;-0.0424;-0.1464;-0.1765
0001367275;-1.9561;-6.3279;4.1324;-0.0119;-0.1059;-0.1681
0001367284;-1.9010;-6.2656;3.9528;0.0153;-0.0695;-0.1680
0001367293;-1.9968;-6.1172;3.7637;0.0341;-0.0300;-0.1788
0001367302;-1.9393;-6.2106;3.7541;0.0561;0.0060;-0.1949
0001367311;-1.9585;-6.3207;3.5195;0.0962;0.0337;-0.2176
0001367320;-1.7813;-6.3829;3.3160;0.1394;0.0814;-0.2258
0001367329;-1.8675;-6.7493;3.1747;0.1972;0.1306;-0.2457
0001367338;-2.0231;-6.8235;3.0861;0.2573;0.1675;-0.2665
0001367347;-2.3918;-6.8953;3.1556;0.3143;0.1915;-0.2983
0001367356;-2.8874;-6.8546;3.0646;0.3648;0.1924;-0.3332
0001367365;-3.0382;-6.7301;3.0119;0.3876;0.1864;-0.3515
0001367374;-3.3279;-6.5362;3.2274;0.4195;0.1535;-0.3744
0001367383;-3.4500;-6.2680;3.2825;0.4305;0.1198;-0.3637
0001367392;-3.3686;-5.9233;3.3112;0.4271;0.0759;-0.3551
0001367401;-3.2130;-5.7006;3.2872;0.4129;0.0452;-0.3404
0001367410;-2.9521;-5.7533;3.1843;0.4013;0.0039;-0.3163
0001367419;-2.7629;-5.8586;3.2465;0.3930;-0.0381;-0.2689
0001367428;-2.6073;-6.0885;3.5051;0.4058;-0.0869;-0.2165
0001367437;-2.6073;-6.1579;3.5913;0.4053;-0.1298;-0.1407
0001367446;-2.6911;-5.9903;4.1707;0.3718;-0.2013;-0.0911
0001367455;-2.9688;-5.4181;5.0925;0.2979;-0.2924;-0.0458
0001367464;-3.3088;-4.6591;5.6240;0.1927;-0.3889;0.0120
0001367473;-3.5482;-4.0294;6.1866;0.0711;-0.4978;0.0653
0001367482;-3.4429;-3.2010;6.7038;-0.0986;-0.5578;0.0871
0001367491;-2.9904;-2.4948;6.5529;-0.2703;-0.5387;0.0687
0001367500;-2.0686;-3.0550;6.0813;-0.4002;-0.4774;0.0284
0001367509;-1.0271;-4.2689;5.8826;-0.4784;-0.3921;0.0222
0001367518;-0.7661;-5.4612;5.6886;-0.5196;-0.3372;0.0241
0001367527;-0.8452;-6.1675;6.0813;-0.5610;-0.2966;0.0412
0001367536;-1.8268;-6.2824;6.6487;-0.6003;-0.2872;0.0538
0001367545;-2.5738;-5.6599;6.3590;-0.6294;-0.2927;0.0417
0001367554;-2.4493;-5.6695;5.8083;-0.6134;-0.2753;-0.0116
0001367563;-1.4820;-6.4236;5.2960;-0.5486;-0.2069;-0.0742
0001367572;-0.7254;-7.3047;4.6495;-0.4359;-0.0950;-0.1276
0001367581;-0.5219;-8.1307;4.0654;-0.2843;0.0140;-0.1615
0001367590;-0.6249;-8.8585;3.5793;-0.1102;0.0809;-0.1895
0001367599;-0.8619;-8.9687;3.4309;0.0725;0.1166;-0.1765
0001367608;-1.4916;-9.2344;3.6799;0.2237;0.1174;-0.1808
0001367617;-2.3391;-8.7317;3.6966;0.3396;0.1092;-0.1899
0001367626;-3.2082;-7.9368;4.1276;0.4187;0.0726;-0.2217
0001367635;-3.8714;-7.0198;4.3287;0.4369;0.0189;-0.2742
0001367644;-4.3670;-6.1292;4.4796;0.4227;-0.0686;-0.3323
0001367653;-4.2018;-5.2720;4.5226;0.3596;-0.1515;-0.3679
0001367662;-4.0270;-4.6759;4.9201;0.2774;-0.2525;-0.4022
0001367671;-3.4572;-4.3096;4.8435;0.1720;-0.3054;-0.3901
0001367680;-2.6480;-4.6519;5.0206;0.0675;-0.3110;-0.3455
0001367689;-1.8555;-4.9464;4.9967;-0.0328;-0.2739;-0.2939
0001367698;-1.5443;-5.4851;5.0182;-0.0931;-0.2166;-0.2325
0001367707;-1.0989;-5.8873;4.7716;-0.0965;-0.1713;-0.1869
0001367716;-0.8619;-6.2130;4.5442;-0.0787;-0.1211;-0.1498
0001367725;-0.8691;-6.4691;4.4005;-0.0373;-0.0810;-0.1435
0001367734;-0.7853;-6.4380;4.3431;-0.0147;-0.0233;-0.1326
0001367743;-0.8380;-6.2728;4.5873;0.0056;0.0217;-0.1468
0001367752;-1.4629;-6.2968;4.7453;0.0077;0.0661;-0.1717
0001367761;-1.8675;-5.8442;4.7956;0.0067;0.0866;-0.2142
0001367770;-2.2721;-5.7628;4.8818;-0.0095;0.0914;-0.2510
0001367779;-2.4708;-5.7293;4.7956;-0.0322;0.0710;-0.2823
0001367788;-2.4972;-5.8371;4.6831;-0.0546;0.0468;-0.2864
0001367797;-2.1739;-5.7652;4.7501;-0.0863;0.0376;-0.2747
0001367806;-1.9345;-5.8323;4.8291;-0.1184;0.0314;-0.2695
0001367815;-1.9249;-5.9568;4.7932;-0.1541;0.0382;-0.2531
0001367824;-1.7669;-5.8754;4.7573;-0.1911;0.0694;-0.2369
0001367912;-2.6312;-6.8331;4.4029;-0.2739;0.1604;-0.3571
0001367921;-2.9329;-6.9288;4.6519;-0.2558;0.1476;-0.3583
0001367930;-2.7294;-6.9312;4.6304;-0.2206;0.1252;-0.3557
0001367939;-2.7749;-6.9121;4.7070;-0.1981;0.1207;-0.3312
0001367948;-2.5067;-6.8043;4.6783;-0.1641;0.1175;-0.3142
0001367957;-2.3918;-6.8283;4.5873;-0.1569;0.1382;-0.2777
0001367966;-2.1691;-6.5745;4.7501;-0.1486;0.1435;-0.2486
0001367975;-2.2170;-6.4643;4.7070;-0.1464;0.1611;-0.2105
0001367984;-2.5235;-6.5410;4.7309;-0.1423;0.1812;-0.1692
0001367993;-2.4588;-6.3782;4.6471;-0.1396;0.1990;-0.1246
0001368002;-2.5618;-6.5170;4.7405;-0.1322;0.2076;-0.0921
0001368011;-2.4972;-6.5027;4.8315;-0.1323;0.2204;-0.0574
0001368020;-2.6312;-6.5864;4.7309;-0.1192;0.2226;-0.0342
0001368029;-2.6791;-6.6176;4.6543;-0.1179;0.2322;-0.0107
0001368038;-2.7174;-6.4620;4.5993;-0.1086;0.2301;0.0131
0001368047;-2.5738;-6.3398;4.5753;-0.0982;0.2233;0.0406
0001368056;-2.4708;-6.3829;4.6591;-0.1046;0.2316;0.0738
0001368065;-2.4086;-6.2201;4.7333;-0.1114;0.2461;0.1026
0001368074;-2.6408;-6.0406;4.7405;-0.1280;0.2518;0.1367
0001368083;-2.8563;-6.0382;4.7118;-0.1419;0.2533;0.1522
0001368092;-3.0670;-6.1148;4.7908;-0.1508;0.2326;0.1539
0001368101;-2.9736;-5.9975;4.6974;-0.1581;0.2110;0.1559
0001368110;-3.1460;-6.2106;4.6591;-0.1600;0.1828;0.1374
0001368119;-3.3327;-6.3973;4.5610;-0.1676;0.1502;0.1323
0001368128;-3.1651;-6.3925;4.6783;-0.1687;0.1215;0.1307
0001368137;-3.3208;-6.5434;4.6519;-0.1613;0.0950;0.1276
0001368146;-3.4884;-6.5434;4.5705;-0.1581;0.0669;0.1226
0001368155;-3.4141;-6.4620;4.5873;-0.1575;0.0565;0.1295
0001368164;-3.6488;-6.6559;4.5538;-0.1482;0.0358;0.1306
0001368173;-3.3567;-6.4069;4.4724;-0.1431;0.0128;0.1414
0001368182;-3.5099;-6.3758;4.4772;-0.1354;-0.0113;0.1470
0001368191;-3.3854;-6.4883;4.5179;-0.1380;-0.0401;0.1511
0001368200;-3.2226;-6.4093;4.3622;-0.1407;-0.0550;0.1537
0001368209;-2.9449;-6.3087;4.3981;-0.1555;-0.0586;0.1627
0001368218;-2.9904;-6.3997;4.2641;-0.1743;-0.0533;0.1703
0001368227;-2.8659;-6.3566;4.3886;-0.1891;-0.0482;0.1817
0001368236;-2.8132;-6.4141;4.3814;-0.1955;-0.0573;0.1876
0001368245;-2.7869;-6.4117;4.4245;-0.2069;-0.0534;0.1931
0001368254;-2.7653;-6.5098;4.5131;-0.2058;-0.0650;0.1832
0001368263;-3.1029;-6.6248;4.5083;-0.2120;-0.0751;0.1668
0001368272;-2.7054;-6.5146;4.4867;-0.2098;-0.0933;0.1436
0001368281;-2.8060;-6.6870;4.4412;-0.2065;-0.1087;0.1148
0001368290;-2.5043;-6.7349;4.4245;-0.1976;-0.1172;0.0957
0001368299;-2.7078;-7.0174;4.3551;-0.1913;-0.1081;0.0821
0001368308;-2.2649;-7.0413;4.3215;-0.1640;-0.1065;0.0695
0001368317;-2.2098;-7.0964;4.4293;-0.1508;-0.0861;0.0693
0001368326;-2.1428;-7.1204;4.3958;-0.1290;-0.0670;0.0654
0001368335;-2.2553;-6.9408;4.2904;-0.1222;-0.0498;0.0674
0001368344;-2.1165;-6.9168;4.3335;-0.1147;-0.0444;0.0540
0001368353;-2.1931;-6.8498;4.3646;-0.1090;-0.0422;0.0512
0001368362;-1.9704;-6.6463;4.2952;-0.1138;-0.0424;0.0409
0001368371;-1.9656;-6.5984;4.4173;-0.1138;-0.0500;0.0282
0001368380;-2.2075;-6.6846;4.3766;-0.1304;-0.0485;0.0234
0001368389;-2.3798;-6.6391;4.3670;-0.1431;-0.0490;0.0100
0001368398;-2.3870;-6.4572;4.4484;-0.1560;-0.0524;-0.0189
0001368407;-2.4469;-6.3973;4.3120;-0.1708;-0.0616;-0.0372
0001368416;-2.4900;-6.5625;4.1875;-0.1823;-0.0730;-0.0641
0001368425;-2.5139;-6.6463;4.2186;-0.1849;-0.0767;-0.0863
0001368434;-2.4181;-6.8019;4.2066;-0.1994;-0.0743;-0.0943
0001368443;-2.5953;-6.8522;4.2545;-0.2068;-0.0871;-0.1166
0001368452;-2.7414;-6.8881;4.1468;-0.2132;-0.1055;-0.1455
0001368461;-2.7318;-6.8235;4.2042;-0.2289;-0.1268;-0.1719
0001368470;-3.0311;-6.6870;4.2018;-0.2310;-0.1551;-0.1936
0001368479;-3.0909;-6.8809;4.1156;-0.2455;-0.1785;-0.2057
0001368488;-2.8347;-6.8618;4.0965;-0.2474;-0.2032;-0.2208
0001368497;-2.5690;-6.6655;4.0845;-0.2565;-0.2029;-0.2153
0001368506;-2.5331;-6.6894;4.0606;-0.2670;-0.1924;-0.2104
0001368515;-2.3487;-6.6272;4.0223;-0.2762;-0.1835;-0.2106
0001368524;-2.3798;-6.7804;3.9816;-0.2898;-0.1619;-0.1872
0001368533;-2.1213;-6.5194;3.9433;-0.2900;-0.1442;-0.1645
0001368542;-2.0686;-6.5362;3.9025;-0.3027;-0.1239;-0.1467
0001368686;-1.4581;-5.7652;3.3184;-0.3231;0.3293;0.1432
0001368695;-1.8866;-5.8179;3.2489;-0.3319;0.3348;0.1523
0001368704;-2.2817;-5.9855;3.0622;-0.3489;0.2930;0.1557
0001368713;-2.2577;-5.9496;3.0263;-0.3548;0.2200;0.1625
0001368722;-2.1596;-6.0166;2.8922;-0.3671;0.1410;0.1885
0001368731;-2.0279;-6.1866;3.0071;-0.3730;0.0705;0.2149
0001368740;-1.6137;-6.2058;3.0119;-0.3886;0.0272;0.2282
0001368749;-1.6209;-6.4308;3.1987;-0.4044;-0.0015;0.2160
0001368758;-1.4078;-6.0023;3.4189;-0.4286;0.0104;0.1911
0001368767;-1.6041;-5.8227;3.4788;-0.4603;0.0270;0.1351
0001368776;-1.8962;-5.7581;3.3806;-0.4852;0.0245;0.0653
0001368785;-2.2697;-5.9424;3.1316;-0.5092;0.0256;-0.0211
0001368794;-2.3008;-5.9879;2.9473;-0.5295;-0.0157;-0.1239
0001368803;-2.5618;-6.6750;2.9353;-0.5383;-0.0730;-0.1823
0001368812;-2.4493;-7.3717;2.9856;-0.5351;-0.1336;-0.2081
0001368821;-2.1237;-7.5034;3.1077;-0.5000;-0.1632;-0.2000
0001368830;-2.0063;-7.7405;3.0071;-0.4580;-0.1821;-0.1704
0001368839;-1.4533;-7.4388;3.1556;-0.3994;-0.1913;-0.1310
0001368848;-1.1947;-7.3502;3.3686;-0.3432;-0.1895;-0.0921
0001368857;-0.7901;-7.0964;3.5769;-0.3006;-0.1514;-0.0498
0001368866;-0.2107;-6.5481;3.1723;-0.2562;-0.1075;-0.0045
0001368875;0.0120;-6.3183;2.8228;-0.2344;-0.0506;0.0377
0001368884;0.3136;-6.0837;2.6217;-0.2192;0.0103;0.0689
0001368893;0.2777;-6.0621;2.6288;-0.2169;0.0757;0.0485
0001368902;0.1269;-5.9544;3.0095;-0.2368;0.1379;0.0316
0001368911;-0.5531;-6.0956;3.2561;-0.2286;0.1623;0.0047
0001368920;-1.4413;-6.6032;3.5817;-0.2441;0.1568;0.0083
0001368929;-2.5187;-7.0653;4.4269;-0.2033;0.0670;0.0229
0001368938;-3.9097;-7.9966;5.3822;-0.1147;-0.0922;0.0894
0001368947;-5.6383;-9.2105;5.5689;-0.0108;-0.2581;0.2020
0001368956;-7.0868;-10.4100;5.8490;0.0901;-0.3961;0.2734
0001368965;-8.1235;-11.1139;7.1251;0.1856;-0.5435;0.2787
0001368974;-8.3270;-11.4419;8.0948;0.3038;-0.7405;0.2527
0001368983;-7.2496;-11.2192;7.5992;0.4149;-0.9025;0.1667
0001368992;-4.5825;-10.0221;6.2968;0.4299;-0.9494;-0.0015
0001369001;-1.3072;-8.5281;5.8969;0.3752;-0.8295;-0.1888
0001369010;0.9816;-7.2856;6.2058;0.3218;-0.5622;-0.3541
0001369019;2.1763;-6.4332;5.9209;0.2486;-0.1764;-0.4916
0001369028;2.1141;-5.9687;5.2864;0.1775;0.1580;-0.6018
0001369037;0.4764;-6.6248;5.2074;0.1211;0.3603;-0.6293
0001369046;-1.5012;-7.7883;5.7724;0.1151;0.3992;-0.6027
0001369055;-3.6536;-9.3565;6.2728;0.1732;0.3375;-0.5072
0001369064;-5.6000;-10.6063;6.5362;0.2870;0.2134;-0.3854
0001369073;-7.4484;-11.6813;6.2369;0.3853;0.0653;-0.2621
0001369082;-9.0022;-12.6988;5.9089;0.4068;0.0454;-0.1480
0001369091;-8.9543;-13.1968;5.8826;0.3516;0.1288;-0.0629
0001369100;-7.3071;-11.0421;5.0422;0.3008;0.1478;-0.0241
0001369109;-5.5857;-8.0469;4.3598;0.2570;0.1232;0.0418
0001369118;-4.4843;-5.7604;4.5729;0.1643;0.1430;0.0734
0001369127;-3.8690;-3.9911;4.9536;0.0582;0.1735;0.0385
0001369136;-3.9361;-3.3375;5.1044;-0.0441;0.1969;-0.0163
0001369145;-4.0366;-3.6703;5.0661;-0.1415;0.1625;-0.0653
0001369154;-4.7597;-5.4348;5.3726;-0.2112;0.0079;-0.0967
0001369163;-4.8315;-6.8881;5.7389;-0.2425;-0.2021;-0.1061
0001369172;-5.0518;-8.4420;5.5857;-0.2742;-0.3675;-0.0762
0001369181;-4.4221;-9.5720;5.1284;-0.3020;-0.4579;-0.0302
0001369190;-3.2633;-10.0485;4.9177;-0.3051;-0.4823;0.0546
0001369199;-2.5546;-9.8306;4.8650;-0.2541;-0.4652;0.1667
0001369208;-1.9034;-8.4443;5.1906;-0.2210;-0.3645;0.2485
0001369217;-1.5155;-7.5729;5.1475;-0.2210;-0.2773;0.2790
0001369226;-1.4940;-7.2712;4.9847;-0.2193;-0.2418;0.2718
0001369235;-1.9273;-7.4508;4.9129;-0.2216;-0.2495;0.2630
0001369244;-2.3607;-7.8865;4.8195;-0.2112;-0.2859;0.2325
0001369253;-2.3056;-8.4372;4.7740;-0.1700;-0.3084;0.1832
0001369262;-2.1356;-8.8705;4.8100;-0.1260;-0.3119;0.1371
0001369271;-1.6424;-9.2536;4.6831;-0.0589;-0.3112;0.0938
0001369280;-1.5730;-9.5457;4.6017;0.0224;-0.2855;0.0911
0001369289;-1.4293;-9.3134;4.5346;0.1136;-0.2329;0.1235
0001369298;-1.2737;-8.5497;4.5921;0.1940;-0.1636;0.1584
0001369307;-1.5514;-7.9655;4.5155;0.2483;-0.0949;0.2057
0001369316;-1.7454;-7.5130;4.5681;0.2880;-0.0572;0.2437
0001369404;-2.3080;-7.2808;4.6424;0.0645;-0.0394;0.3627
0001369413;-2.0877;-6.9743;4.5849;0.0597;-0.0257;0.4001
0001369422;-2.0734;-7.0820;4.6591;0.0546;0.0019;0.4195
0001369431;-1.9441;-6.8953;4.6232;0.0574;0.0229;0.4202
0001369440;-2.1093;-6.9599;4.6519;0.0549;0.0576;0.4326
0001369449;-1.8364;-6.8235;4.6711;0.0657;0.0738;0.4286
0001369458;-2.0494;-6.7540;4.6878;0.0663;0.0946;0.4205
0001369467;-2.1141;-6.7756;4.5777;0.0781;0.1094;0.3997
0001369476;-2.0518;-6.7181;4.6064;0.0802;0.1220;0.3635
0001369485;-2.2410;-6.8283;4.6088;0.0877;0.1370;0.3276
0001369494;-2.3894;-6.8690;4.5131;0.0869;0.1608;0.2992
0001369503;-2.6145;-6.9887;4.5346;0.0966;0.1669;0.2662
0001369512;-2.7270;-7.0677;4.5250;0.1062;0.1696;0.2435
0001369521;-2.9113;-7.0413;4.4748;0.1136;0.1451;0.2140
0001369530;-3.1125;-7.1084;4.4317;0.1295;0.1223;0.1841
0001369539;-3.0406;-7.2018;4.6088;0.1452;0.1022;0.1470
0001369548;-3.0095;-7.1730;4.4700;0.1705;0.0910;0.1083
0001369557;-2.9185;-7.0342;4.5442;0.2002;0.0879;0.0695
0001369566;-2.9688;-7.0174;4.5562;0.2230;0.0979;0.0338
0001369575;-2.9640;-7.0461;4.5945;0.2537;0.1014;0.0004
0001369584;-3.0837;-6.8833;4.3574;0.2746;0.1119;-0.0252
0001369593;-3.1819;-6.8761;4.3120;0.2918;0.1171;-0.0497
0001369602;-3.0550;-6.6942;4.3215;0.2990;0.1160;-0.0697
0001369611;-3.1603;-6.8354;4.3551;0.3170;0.0987;-0.0891
0001369620;-3.1436;-6.7804;4.4724;0.3248;0.0842;-0.1007
0001369629;-3.1005;-6.6894;4.3838;0.3289;0.0821;-0.0977
0001369638;-3.1268;-6.6511;4.4221;0.3375;0.0822;-0.1030
0001369647;-2.9137;-6.8570;4.4700;0.3424;0.0845;-0.0967
0001369656;-2.9928;-6.7540;4.4412;0.3424;0.0986;-0.0837
0001369665;-3.0598;-6.8857;4.4532;0.3421;0.1053;-0.0753
0001369674;-2.5426;-6.4620;4.4460;0.3411;0.1106;-0.0706
0001369683;-2.6600;-6.5003;4.5418;0.3381;0.1184;-0.0642
0001369692;-2.7246;-6.3686;4.4460;0.3260;0.1300;-0.0526
0001369701;-2.6432;-6.1435;4.4963;0.3160;0.1224;-0.0368
0001369710;-2.6384;-6.0765;4.4149;0.2943;0.1228;-0.0115
0001369719;-2.6839;-6.1220;4.4293;0.2898;0.1038;-0.0004
0001369728;-2.8036;-6.2560;4.3862;0.2793;0.0858;0.0284
0001369737;-2.8706;-6.2297;4.4580;0.2674;0.0601;0.0492
0001369746;-2.7605;-6.3518;4.4748;0.2650;0.0392;0.0646
0001369755;-2.5881;-6.3518;4.3359;0.2465;0.0348;0.0853
0001369764;-2.5091;-6.3614;4.3694;0.2438;0.0322;0.1055
0001369773;-2.4636;-6.2728;4.3072;0.2418;0.0332;0.1212
0001369782;-2.4852;-6.2872;4.4460;0.2510;0.0289;0.1284
0001369791;-2.5259;-6.3327;4.5801;0.2427;0.0274;0.1427
0001369800;-2.5307;-6.3422;4.5873;0.2393;0.0268;0.1466
0001369809;-2.5331;-6.2273;4.3790;0.2393;0.0189;0.1292
0001369818;-2.6264;-6.3351;4.3981;0.2318;0.0131;0.1107
0001369827;-2.7007;-6.2177;4.4963;0.2225;0.0037;0.0830
0001369836;-2.9664;-6.3279;4.4436;0.2172;-0.0088;0.0537
0001369845;-2.7581;-6.0573;4.5969;0.2028;-0.0121;0.0440
0001369854;-2.8994;-6.2249;4.4987;0.1911;-0.0224;0.0258
0001369863;-2.7581;-6.1651;4.5083;0.1821;-0.0500;0.0111
0001369872;-2.8276;-6.3087;4.5179;0.1757;-0.0650;0.0011
0001369881;-2.6384;-6.3398;4.4388;0.1621;-0.0653;-0.0053
0001369890;-2.5331;-6.1555;4.5514;0.1633;-0.0706;-0.0149
0001369899;-2.5714;-6.2920;4.5562;0.1529;-0.0644;-0.0225
0001369908;-2.5283;-6.3159;4.5203;0.1567;-0.0666;-0.0392
0001369917;-2.5977;-6.4572;4.5633;0.1500;-0.0590;-0.0406
0001369926;-2.8276;-6.6008;4.4245;0.1444;-0.0669;-0.0537
0001369935;-2.4708;-6.3566;4.4700;0.1439;-0.0699;-0.0582
0001369944;-2.7126;-6.5194;4.5155;0.1331;-0.0777;-0.0560
0001369953;-2.6528;-6.3829;4.4460;0.1319;-0.0913;-0.0714
0001369962;-2.7342;-6.3327;4.4149;0.1180;-0.0886;-0.0710
0001369971;-2.6624;-6.3303;4.4891;0.1162;-0.0930;-0.0822
0001369980;-2.7318;-6.3183;4.3838;0.1013;-0.0895;-0.0802
0001369989;-2.6600;-6.2680;4.4843;0.0969;-0.0987;-0.0813
0001369998;-2.8156;-6.1914;4.4867;0.0899;-0.1092;-0.0622
0001370007;-2.8994;-6.3063;4.3622;0.0806;-0.1252;-0.0538
0001370016;-2.7557;-6.1435;4.4772;0.0785;-0.1488;-0.0429
0001370025;-2.6791;-6.0885;4.4149;0.0628;-0.1496;-0.0300
0001370034;-2.5570;-6.1627;4.3455;0.0548;-0.1592;-0.0230
0001370043;-2.6264;-6.1004;4.3383;0.0430;-0.1560;-0.0036
0001370131;-2.5881;-5.8562;4.2545;-0.0596;-0.1386;0.0917
0001370140;-2.4493;-5.9352;4.2569;-0.0600;-0.1378;0.0974
0001370149;-2.6695;-6.0669;4.2234;-0.0743;-0.1336;0.1151
0001370158;-2.7150;-5.9520;4.2665;-0.0795;-0.1396;0.1315
0001370167;-2.9401;-6.2177;4.2545;-0.0859;-0.1596;0.1435
0001370176;-2.7845;-6.2537;4.3886;-0.0787;-0.1785;0.1496
0001370185;-2.8132;-6.2656;4.2593;-0.0802;-0.1760;0.1537
0001370194;-2.6336;-6.2345;4.1994;-0.0718;-0.1704;0.1506
0001370203;-2.5043;-6.3255;4.3072;-0.0561;-0.1544;0.1396
0001370212;-2.2529;-6.2848;4.1468;-0.0482;-0.1275;0.1304
0001370221;-2.5115;-6.4356;4.0917;-0.0324;-0.1053;0.1231
0001370230;-2.5163;-6.5098;4.0342;-0.0195;-0.0897;0.1210
0001370239;-2.5881;-6.3686;4.0749;-0.0096;-0.0835;0.1298
0001370248;-2.6336;-6.2537;4.1779;0.0109;-0.1006;0.1339
0001370257;-2.6983;-6.1746;4.3335;0.0091;-0.1095;0.1475
0001370266;-2.6600;-5.8849;4.3622;0.0125;-0.1310;0.1520
0001370275;-2.8754;-5.9065;4.4197;0.0003;-0.1330;0.1669
0001370284;-2.9329;-5.9831;4.4436;-0.0147;-0.1387;0.1735
0001370293;-2.8539;-5.8419;4.3670;-0.0312;-0.1490;0.1779
0001370302;-2.8683;-5.8849;4.4628;-0.0388;-0.1677;0.1727
0001370311;-2.7198;-6.1172;4.3670;-0.0425;-0.1811;0.1700
0001370320;-2.8395;-6.1818;4.4077;-0.0492;-0.1891;0.1592
0001370329;-2.7174;-6.2944;4.4005;-0.0569;-0.1943;0.1472
0001370338;-2.5977;-6.0813;4.4772;-0.0576;-0.2069;0.1419
0001370347;-2.5666;-6.0406;4.5203;-0.0669;-0.2160;0.1440
0001370356;-2.7509;-6.0406;4.6639;-0.0713;-0.2348;0.1551
0001370365;-2.6073;-5.8179;4.6567;-0.0742;-0.2431;0.1545
0001370374;-2.7701;-5.9304;4.5681;-0.0731;-0.2515;0.1478
0001370383;-2.6145;-5.9280;4.4796;-0.0743;-0.2459;0.1442
0001370392;-2.5929;-6.2776;4.4915;-0.0701;-0.2406;0.1311
0001370401;-2.8299;-6.5817;4.5059;-0.0501;-0.2316;0.1155
0001370410;-2.5091;-6.2608;4.2880;-0.0414;-0.2164;0.1037
0001370419;-2.4684;-6.3566;4.3862;-0.0181;-0.2085;0.0842
0001370428;-2.6001;-6.2776;4.4939;-0.0001;-0.2024;0.0674
0001370437;-2.4086;-6.1052;4.6160;0.0179;-0.1969;0.0376
0001370446;-2.4301;-6.0549;4.6663;0.0240;-0.1903;0.0052
0001370455;-2.4397;-5.7126;4.8483;0.0031;-0.1708;-0.0172
0001370464;-2.4588;-5.5498;5.2170;-0.0189;-0.1679;-0.0397
0001370473;-2.6959;-5.1954;5.7557;-0.0691;-0.1680;-0.0628
0001370482;-3.0742;-4.4628;6.1028;-0.1447;-0.1593;-0.1006
0001370491;-3.3399;-3.9768;5.8849;-0.2316;-0.1625;-0.1414
0001370500;-2.8419;-3.7302;5.3151;-0.3123;-0.1884;-0.1927
0001370509;-2.1548;-4.7908;4.8890;-0.3749;-0.2265;-0.2152
0001370518;-1.2019;-5.9017;4.6950;-0.3890;-0.2117;-0.1943
0001370527;-0.8140;-6.8522;4.5370;-0.3511;-0.1519;-0.1540
0001370536;-0.6512;-7.6231;4.3958;-0.2939;-0.0678;-0.1033
0001370545;-0.6297;-7.8650;4.1515;-0.2172;0.0132;-0.0541
0001370554;-1.1708;-8.1642;4.0630;-0.1238;0.0508;-0.0169
0001370563;-1.7933;-8.2648;3.9313;-0.0187;0.0490;0.0191
0001370572;-2.2051;-8.0972;3.9241;0.0695;0.0506;0.0361
0001370581;-2.5905;-7.7045;4.0606;0.1482;0.0476;0.0258
0001370590;-3.0430;-7.2927;4.0270;0.1980;0.0420;0.0035
0001370599;-3.0550;-6.4883;4.0510;0.2248;0.0200;-0.0234
0001370608;-3.2872;-5.9951;4.1348;0.2160;-0.0060;-0.0453
0001370617;-3.4836;-5.5809;4.2114;0.1876;-0.0408;-0.0686
0001370626;-3.3279;-4.9943;4.4125;0.1316;-0.0548;-0.0777
0001370635;-3.4548;-4.7238;4.6543;0.0620;-0.0638;-0.0885
0001370644;-3.1268;-4.6783;4.7501;-0.0233;-0.0586;-0.0837
0001370653;-2.8898;-4.7214;4.7142;-0.1091;-0.0609;-0.0737
0001370662;-2.6791;-5.0206;4.7309;-0.1781;-0.0770;-0.0545
0001370671;-2.6193;-5.6958;4.7214;-0.2258;-0.0903;-0.0420
0001370680;-2.3391;-5.9903;4.7046;-0.2603;-0.0859;-0.0288
0001370689;-2.2075;-6.1699;4.5418;-0.2647;-0.0666;-0.0260
0001370698;-2.1332;-6.5481;4.4317;-0.2494;-0.0460;-0.0262
0001370707;-2.0997;-6.5266;4.4245;-0.2377;-0.0289;-0.0238
0001370716;-2.1476;-6.7852;4.3790;-0.2097;-0.0215;-0.0333
0001370725;-1.9704;-6.6224;4.5059;-0.1940;-0.0044;-0.0349
0001370734;-2.2386;-6.4021;4.5633;-0.1785;0.0077;-0.0465
0001370743;-2.4181;-6.3327;4.5562;-0.1576;0.0152;-0.0552
0001370752;-2.8132;-6.2273;4.6040;-0.1608;0.0207;-0.0726
0001370840;-1.5562;-6.1148;4.6471;-0.2489;-0.0909;-0.0290
0001370849;-1.7861;-6.3087;4.6567;-0.2474;-0.0596;-0.0055
0001370858;-1.8794;-6.2944;4.6280;-0.2402;-0.0289;0.0141
0001370867;-1.9441;-6.1028;4.6280;-0.2117;-0.0188;0.0133
0001370876;-2.1308;-6.3446;4.5897;-0.2064;-0.0009;0.0163
0001370885;-2.4732;-6.4859;4.7190;-0.1903;0.0029;0.0004
0001370894;-2.5019;-6.5027;4.8411;-0.1828;0.0077;-0.0144
0001370903;-2.5450;-6.5050;4.8626;-0.1664;-0.0071;-0.0406
0001370912;-2.6839;-6.5984;4.8842;-0.1435;-0.0358;-0.0685
0001370921;-2.3272;-6.4332;4.8794;-0.1264;-0.0601;-0.0885
0001370930;-1.8914;-6.3973;4.9177;-0.1017;-0.0834;-0.1176
0001370939;-1.9273;-6.4715;4.8985;-0.0905;-0.0814;-0.1419
0001370948;-1.4796;-6.3446;5.0159;-0.0795;-0.0817;-0.1803
0001370957;-1.5131;-6.3183;4.9608;-0.0879;-0.0758;-0.2165
0001370966;-1.3958;-6.3015;5.0135;-0.0971;-0.0541;-0.2571
0001370975;-1.4557;-6.2489;5.0494;-0.1051;-0.0330;-0.3104
0001370984;-1.4748;-6.2872;4.8866;-0.1155;-0.0061;-0.3403
0001370993;-1.5299;-6.3231;4.9823;-0.1107;0.0167;-0.3770
0001371002;-1.6616;-6.2944;4.8937;-0.1179;0.0594;-0.3842
0001371011;-1.9106;-6.4548;4.8219;-0.1162;0.0851;-0.3956
0001371020;-2.0111;-6.4117;4.7956;-0.1258;0.1007;-0.3934
0001371029;-2.2817;-6.5098;4.7980;-0.1286;0.0953;-0.3930
0001371038;-2.3966;-6.4883;4.7429;-0.1446;0.0750;-0.3866
0001371047;-2.5043;-6.4811;4.8507;-0.1408;0.0566;-0.3709
0001371056;-2.6073;-6.5218;4.9560;-0.1427;0.0580;-0.3519
0001371065;-2.2865;-6.3853;4.8890;-0.1343;0.0624;-0.3405
0001371074;-2.4445;-6.6224;4.9919;-0.1243;0.0853;-0.3152
0001371083;-2.2003;-6.5553;4.8267;-0.1099;0.1096;-0.2854
0001371092;-2.3104;-6.5912;4.9823;-0.0879;0.1256;-0.2683
0001371101;-2.2697;-6.5888;5.0159;-0.0588;0.1299;-0.2653
0001371110;-2.4014;-6.5625;5.0494;-0.0429;0.1415;-0.2434
0001371119;-2.4134;-6.5266;4.9799;-0.0215;0.1402;-0.2388
0001371128;-2.5738;-6.4811;4.8937;-0.0024;0.1388;-0.2205
0001371137;-2.6624;-6.5003;4.9608;0.0035;0.1348;-0.2025
0001371146;-2.4588;-6.2249;4.9488;0.0075;0.1227;-0.1785
0001371155;-2.5355;-6.1627;4.9728;0.0059;0.1214;-0.1510
0001371164;-2.2889;-5.8993;5.0302;-0.0068;0.1170;-0.1142
0001371173;-2.3727;-5.9400;4.8985;-0.0168;0.1196;-0.0655
0001371182;-2.4445;-5.9999;4.8985;-0.0258;0.1243;-0.0372
0001371191;-2.3200;-5.9400;4.9033;-0.0392;0.1171;-0.0184
0001371200;-2.3607;-6.0454;4.9608;-0.0525;0.1208;0.0059
0001371209;-2.5881;-6.0956;4.9967;-0.0655;0.1214;0.0211
0001371218;-2.4708;-6.0478;4.9847;-0.0645;0.0994;0.0300
0001371227;-2.6600;-6.2130;5.0685;-0.0638;0.0931;0.0532
0001371236;-2.7414;-6.1483;5.0039;-0.0612;0.0783;0.0637
0001371245;-2.5690;-6.2728;5.0159;-0.0468;0.0674;0.0839
0001371254;-2.4924;-6.2920;4.9680;-0.0412;0.0609;0.0959
0001371263;-2.2817;-6.2393;4.9105;-0.0312;0.0624;0.1023
0001371272;-2.3224;-6.4811;4.8842;-0.0265;0.0703;0.1034
0001371281;-2.3320;-6.6295;4.7429;-0.0088;0.0771;0.0903
0001371290;-2.1165;-6.4811;4.7836;-0.0015;0.0978;0.0782
0001371299;-2.3439;-6.5170;4.7908;0.0125;0.0939;0.0653
0001371308;-2.5498;-6.6918;4.7262;0.0200;0.0901;0.0517
0001371317;-2.7102;-6.6846;4.7405;0.0332;0.0839;0.0334
0001371326;-2.9185;-6.8809;4.7285;0.0370;0.0733;0.0254
0001371335;-2.8108;-6.6702;4.6687;0.0494;0.0576;0.0055
0001371344;-2.7725;-6.6774;4.5945;0.0633;0.0362;-0.0185
0001371353;-2.6671;-6.5721;4.6280;0.0649;0.0302;-0.0306
0001371362;-2.5355;-6.5266;4.6376;0.0725;0.0249;-0.0476
0001371371;-2.5714;-6.6224;4.5418;0.0802;0.0213;-0.0637
0001371380;-2.5211;-6.6702;4.5921;0.0718;0.0218;-0.0747
0001371389;-2.6576;-6.5170;4.4724;0.0790;0.0127;-0.0815
0001371398;-2.6695;-6.6535;4.5107;0.0738;0.0115;-0.0826
0001371407;-2.7438;-6.4739;4.4676;0.0697;0.0005;-0.0827
0001371416;-2.8491;-6.4787;4.4460;0.0562;-0.0013;-0.0731
0001371425;-2.6264;-6.2489;4.4053;0.0368;-0.0068;-0.0670
0001371434;-2.6480;-6.2106;4.3838;0.0280;-0.0211;-0.0747
0001371443;-2.5690;-6.1675;4.2760;0.0073;-0.0171;-0.0719
0001371452;-2.4253;-6.2608;4.2784;-0.0270;-0.0121;-0.0805
0001371461;-2.4900;-6.2872;4.2329;-0.0565;0.0019;-0.1003
0001371470;-2.5402;-6.0789;4.2689;-0.0850;0.0125;-0.0929
0001371558;-2.4636;-6.4069;4.2976;-0.1687;-0.1324;-0.0779
0001371567;-2.3798;-6.3590;4.3383;-0.1684;-0.1284;-0.0806
0001371576;-2.2984;-6.4212;4.3024;-0.1640;-0.1251;-0.0903
0001371585;-2.2482;-6.5625;4.2497;-0.1671;-0.1088;-0.0975
0001371594;-2.5115;-6.7277;4.3335;-0.1628;-0.0938;-0.1042
0001371603;-2.3152;-6.4332;4.4436;-0.1789;-0.0763;-0.1054
0001371612;-2.3583;-6.3782;4.4412;-0.1891;-0.0833;-0.1103
0001371621;-2.4110;-6.3782;4.3718;-0.2140;-0.0743;-0.0945
0001371630;-2.2218;-6.2489;4.3239;-0.2294;-0.0862;-0.0741
0001371639;-2.0399;-6.1435;4.2521;-0.2557;-0.0818;-0.0453
0001371648;-1.7980;-5.9304;4.3215;-0.2831;-0.0886;-0.0317
0001371657;-1.7669;-6.1435;4.3048;-0.3148;-0.0865;-0.0132
0001371666;-1.7885;-5.9496;4.1683;-0.3377;-0.0747;-0.0080
0001371675;-1.6975;-6.1004;4.1563;-0.3620;-0.0699;-0.0100
0001371684;-1.5227;-6.0908;4.2377;-0.3889;-0.0422;-0.0057
0001371693;-1.4174;-6.1196;4.1779;-0.3996;-0.0338;-0.0083
0001371702;-1.2378;-5.9999;4.0725;-0.4207;-0.0165;0.0157
0001371711;-1.3408;-6.1148;3.9911;-0.4474;-0.0033;0.0337
0001371720;-1.1349;-6.0310;3.9002;-0.4527;0.0165;0.0448
0001371729;-1.1540;-6.1435;3.7206;-0.4747;0.0465;0.0577
0001371738;-1.1349;-6.2608;3.7733;-0.4724;0.0588;0.0592
0001371747;-1.1061;-6.5457;3.5961;-0.4723;0.0613;0.0586
0001371756;-1.0726;-6.6319;3.4740;-0.4604;0.0618;0.0440
0001371765;-1.0367;-6.7205;3.4788;-0.4670;0.0817;0.0144
0001371774;-1.3695;-6.9240;3.6823;-0.4626;0.0979;-0.0277
0001371783;-1.4437;-6.9360;3.5195;-0.4714;0.1318;-0.0681
0001371792;-1.6927;-6.7493;3.4596;-0.4775;0.1371;-0.1214
0001371801;-2.3104;-6.9671;3.5147;-0.4867;0.1112;-0.1671
0001371810;-2.2745;-6.7971;3.5003;-0.4998;0.0581;-0.2101
0001371819;-2.4804;-7.0390;3.4381;-0.5081;0.0108;-0.2262
0001371828;-1.9537;-6.8211;3.4860;-0.4987;-0.0103;-0.2237
0001371837;-2.0016;-7.0892;3.5937;-0.4862;-0.0222;-0.2266
0001371846;-1.8986;-7.0150;3.5195;-0.4662;-0.0093;-0.2154
0001371855;-1.9321;-6.9887;3.4644;-0.4534;-0.0108;-0.1972
0001371864;-1.9106;-7.0390;3.5386;-0.4371;-0.0187;-0.1739
0001371873;-1.9968;-6.9695;3.7757;-0.4266;-0.0302;-0.1587
0001371882;-2.1237;-7.0413;3.8140;-0.4147;-0.0322;-0.1529
0001371891;-2.1069;-6.8546;3.8140;-0.4142;-0.0209;-0.1495
0001371900;-1.9800;-6.6487;3.7062;-0.4170;-0.0092;-0.1422
0001371909;-1.8028;-6.6080;3.6751;-0.4132;-0.0057;-0.1340
0001371918;-1.5490;-6.5864;3.7182;-0.4133;-0.0076;-0.1226
0001371927;-1.6257;-6.7349;3.6105;-0.4186;0.0128;-0.0890
0001371936;-1.3455;-6.7277;3.2609;-0.4006;0.0332;-0.0584
0001371945;-1.4437;-6.8019;3.2705;-0.3738;0.0540;-0.0226
0001371954;-1.5227;-6.7900;3.3232;-0.3471;0.0421;-0.0028
0001371963;-1.6281;-6.8546;3.2585;-0.3035;0.0165;0.0245
0001371972;-1.4102;-6.8977;3.1101;-0.2573;-0.0155;0.0677
0001371981;-1.1779;-7.0366;3.2370;-0.2014;-0.0472;0.1085
0001371990;-0.9768;-7.2353;3.1867;-0.1527;-0.0629;0.1523
0001371999;-0.8428;-7.3454;3.5386;-0.0929;-0.1009;0.1817
0001372008;-1.2067;-7.8003;4.0223;-0.0159;-0.1555;0.2108
0001372017;-1.9752;-8.5353;4.4221;0.0735;-0.2136;0.2405
0001372026;-2.7964;-9.0142;4.9488;0.1868;-0.2702;0.2477
0001372035;-3.8020;-9.4643;5.4995;0.2815;-0.3006;0.2233
0001372044;-4.7214;-9.8713;6.4596;0.3730;-0.3551;0.1503
0001372053;-5.0805;-10.2256;6.9025;0.4461;-0.4211;0.0457
0001372062;-4.6687;-10.4603;6.7277;0.4541;-0.4117;-0.0825
0001372071;-3.7996;-10.2903;6.5290;0.4567;-0.3629;-0.2507
0001372080;-2.4325;-9.1937;6.4835;0.4461;-0.2202;-0.3833
0001372089;-1.4724;-8.0014;6.3949;0.3816;-0.0067;-0.4866
0001372098;-1.1588;-6.8929;6.0286;0.2762;0.1889;-0.5804
0001372107;-0.8332;-5.7604;5.7006;0.1330;0.3383;-0.6506
0001372116;-0.6369;-4.8937;5.6503;0.0017;0.4029;-0.6815
0001372125;-1.6640;-5.6886;6.2010;-0.0698;0.3512;-0.6522
0001372134;-3.5291;-7.9799;6.3398;-0.0823;0.2186;-0.5444
0001372143;-5.5306;-9.5170;5.5857;-0.0818;0.1560;-0.4033
0001372152;-6.6942;-10.9271;5.0182;-0.1525;0.2196;-0.3016
0001372161;-7.0892;-11.9662;5.3079;-0.2443;0.3400;-0.1390
0001372170;-6.1316;-9.7516;5.3319;-0.2112;0.3978;0.1116
0001372179;-4.9536;-7.3670;4.5897;-0.2193;0.4068;0.2939
0001372188;-4.4796;-5.9711;4.3239;-0.2611;0.3561;0.3921
0001372276;-2.3367;-8.0972;5.2553;-0.0075;-0.0542;0.2916
0001372285;-2.2960;-7.6303;5.1380;0.0140;-0.0193;0.3164
0001372294;-2.5450;-7.5322;4.9536;0.0217;-0.0349;0.3617
0001372303;-2.9832;-7.8314;5.0015;0.0310;-0.0985;0.4122
0001372312;-3.4716;-8.3629;5.1236;0.0472;-0.1739;0.4473
0001372321;-3.1532;-8.4731;4.9943;0.0564;-0.2378;0.4808
0001372330;-3.3279;-8.9902;5.1739;0.0709;-0.3014;0.4807
0001372339;-3.1077;-8.8442;5.2194;0.0915;-0.3292;0.4875
0001372348;-2.4301;-8.3606;5.2170;0.1168;-0.3476;0.4930
0001372357;-2.2697;-8.0134;5.1260;0.1440;-0.3544;0.5157
0001372366;-1.6975;-7.2640;4.8937;0.1544;-0.3167;0.5601
0001372375;-1.5299;-7.0797;4.8650;0.1692;-0.2771;0.6134
0001372384;-1.5131;-6.8785;4.6591;0.1616;-0.2236;0.6484
0001372393;-1.6233;-6.7086;4.5897;0.1487;-0.1767;0.6769
0001372402;-1.8411;-6.8929;4.4556;0.1311;-0.1459;0.6735
0001372411;-2.2434;-6.9887;4.3670;0.1251;-0.1416;0.6358
0001372420;-2.3607;-7.0892;4.3120;0.1139;-0.1303;0.5886
0001372429;-2.4325;-7.2425;4.3120;0.0994;-0.1214;0.5476
0001372438;-2.5738;-7.2903;4.3000;0.0871;-0.0975;0.5105
0001372447;-2.9113;-7.5561;4.2138;0.0886;-0.0917;0.4719
0001372456;-2.6863;-7.3526;4.2689;0.0886;-0.0947;0.4422
0001372465;-2.9592;-7.4124;4.3718;0.0889;-0.1017;0.4117
0001372474;-2.9856;-7.5417;4.2377;0.1071;-0.1085;0.3780
0001372483;-2.8443;-7.4436;4.1587;0.1163;-0.0951;0.3441
0001372492;-2.8084;-7.4603;4.2042;0.1442;-0.0929;0.2952
0001372501;-2.8132;-7.4651;4.3096;0.1763;-0.0855;0.2399
0001372510;-2.8467;-7.4795;4.4269;0.1911;-0.0678;0.1891
0001372519;-2.9449;-7.2880;4.2377;0.2278;-0.0806;0.1264
0001372528;-2.7821;-7.1036;4.3742;0.2389;-0.0853;0.0871
0001372537;-2.9257;-7.0868;4.3862;0.2593;-0.1019;0.0373
0001372546;-2.7366;-6.9145;4.4939;0.2631;-0.1066;0.0020
0001372555;-2.7485;-7.0246;4.4508;0.2694;-0.0994;-0.0149
0001372564;-2.9616;-7.0318;4.4700;0.2850;-0.1021;-0.0322
0001372573;-2.7988;-7.0150;4.6256;0.2886;-0.0937;-0.0453
0001372582;-2.6312;-7.0078;4.5298;0.2998;-0.0929;-0.0705
0001372591;-2.7031;-6.9959;4.4748;0.3020;-0.0726;-0.0907
0001372600;-2.8299;-7.0701;4.4221;0.3044;-0.0589;-0.1238
0001372609;-2.5307;-6.9911;4.3598;0.3112;-0.0428;-0.1601
0001372618;-2.5977;-7.0270;4.4843;0.3048;-0.0232;-0.1867
0001372627;-2.5786;-6.8283;4.4628;0.3100;-0.0123;-0.2021
0001372636;-2.6671;-6.7157;4.4173;0.3011;0.0012;-0.2032
0001372645;-2.8252;-6.7014;4.5179;0.2972;-0.0097;-0.1980
0001372654;-2.8299;-6.7157;4.4436;0.2907;-0.0281;-0.1895
0001372663;-2.6145;-6.5481;4.5370;0.2907;-0.0501;-0.1780
0001372672;-2.3703;-6.4907;4.4963;0.2847;-0.0801;-0.1660
0001372681;-2.2505;-6.5745;4.5083;0.2842;-0.0819;-0.1561
0001372690;-2.1811;-6.7924;4.5945;0.2912;-0.0866;-0.1545
0001372699;-1.9441;-6.6367;4.5226;0.2872;-0.0837;-0.1504
0001372708;-1.9992;-6.7253;4.5610;0.3016;-0.0687;-0.1539
0001372717;-1.9537;-6.6966;4.5993;0.3084;-0.0565;-0.1524
0001372726;-1.9776;-6.3327;4.5466;0.3136;-0.0446;-0.1438
0001372735;-2.3583;-6.5027;4.6639;0.2979;-0.0301;-0.1291
0001372744;-2.4852;-6.3063;4.6663;0.2898;-0.0398;-0.1156
0001372753;-2.6001;-6.2153;4.7214;0.2690;-0.0569;-0.1099
0001372762;-2.5426;-6.1507;4.6424;0.2537;-0.0754;-0.0997
0001372771;-2.3200;-6.0765;4.5897;0.2365;-0.0739;-0.0866
0001372780;-2.2625;-6.2728;4.6184;0.2302;-0.0755;-0.0814
0001372789;-2.0351;-6.1986;4.5490;0.2166;-0.0588;-0.0694
0001372798;-1.7047;-6.1076;4.4963;0.2005;-0.0373;-0.0734
0001372807;-1.9345;-6.2920;4.5203;0.1948;-0.0230;-0.0730
0001372816;-2.0446;-6.1028;4.5633;0.1784;-0.0055;-0.0766
0001372825;-2.0973;-6.0190;4.5993;0.1707;0.0051;-0.0634
0001372834;-2.3894;-6.0693;4.7501;0.1478;0.0093;-0.0525
0001372843;-2.6264;-6.1459;4.7692;0.1155;0.0035;-0.0393
0001372852;-2.7677;-6.0382;4.7118;0.0867;-0.0119;-0.0248
0001372861;-2.5139;-5.9975;4.7238;0.0517;-0.0221;-0.0163
0001372870;-2.6911;-6.3159;4.7692;0.0312;-0.0342;-0.0080
0001372879;-2.3631;-6.4548;4.6783;0.0112;-0.0372;-0.0056
0001372888;-2.3152;-6.5122;4.6998;0.0063;-0.0381;-0.0205
0001372897;-2.1213;-6.4500;4.7190;0.0041;-0.0313;-0.0226
0001372906;-2.4900;-6.6032;4.6280;0.0127;-0.0285;-0.0289
0001373013;-2.4397;-6.5434;4.8147;-0.1556;-0.1856;0.0145
0001373022;-2.3391;-6.7229;4.7309;-0.1496;-0.1751;0.0168
0001373031;-2.3104;-6.8785;4.7070;-0.1520;-0.1476;0.0268
0001373040;-2.0925;-6.6008;4.6376;-0.1547;-0.1342;0.0276
0001373049;-2.2314;-6.5434;4.6998;-0.1563;-0.1262;0.0221
0001373058;-2.1979;-6.4691;4.7046;-0.1595;-0.1142;0.0313
0001373067;-2.4995;-6.4787;4.7477;-0.1717;-0.1082;0.0282
0001373076;-2.5331;-6.4021;4.6352;-0.1699;-0.1172;0.0228
0001373085;-2.4062;-6.4141;4.6663;-0.1809;-0.1258;0.0258
0001373094;-2.4660;-6.7109;4.5801;-0.1815;-0.1355;0.0197
0001373103;-2.2529;-6.4524;4.5514;-0.1961;-0.1326;0.0376
0001373112;-2.2314;-6.5290;4.3958;-0.1993;-0.1343;0.0441
0001373121;-2.3918;-6.4356;4.4508;-0.1990;-0.1323;0.0582
0001373130;-2.4612;-6.3398;4.5059;-0.2146;-0.1256;0.0893
0001373139;-2.6719;-6.2991;4.5322;-0.2266;-0.1231;0.1046
0001373148;-2.6983;-6.4835;4.5250;-0.2354;-0.1292;0.1224
0001373157;-2.7366;-6.4739;4.4365;-0.2534;-0.1282;0.1464
0001373166;-2.8563;-6.6631;4.3622;-0.2529;-0.1434;0.1519
0001373175;-2.6719;-6.7804;4.3981;-0.2551;-0.1454;0.1663
0001373184;-2.6384;-6.8211;4.4245;-0.2450;-0.1504;0.1663
0001373193;-2.5426;-6.7852;4.4053;-0.2419;-0.1528;0.1724
0001373202;-2.3343;-6.7540;4.3407;-0.2292;-0.1498;0.1608
0001373211;-2.3415;-6.7469;4.3072;-0.2293;-0.1356;0.1551
0001373220;-2.3272;-6.8091;4.3120;-0.2222;-0.1180;0.1523
0001373229;-2.2553;-6.6439;4.4412;-0.2060;-0.1066;0.1649
0001373238;-2.2266;-6.6104;4.4628;-0.1903;-0.0975;0.1827
0001373247;-2.0446;-6.5362;4.3981;-0.1813;-0.0854;0.1891
0001373256;-2.2290;-6.4643;4.3479;-0.1737;-0.0838;0.2009
0001373265;-2.5067;-6.6607;4.3646;-0.1727;-0.0801;0.2078
0001373274;-2.4325;-6.5864;4.4197;-0.1627;-0.0919;0.2026
0001373283;-2.5235;-6.6750;4.3862;-0.1475;-0.0969;0.2028
0001373292;-2.5618;-6.6655;4.4388;-0.1383;-0.1029;0.1912
0001373301;-2.7174;-6.8019;4.4652;-0.1283;-0.1100;0.1715
0001373310;-2.5163;-6.6918;4.5155;-0.1252;-0.1082;0.1631
0001373319;-2.7773;-7.1658;4.5322;-0.1122;-0.1013;0.1507
0001373328;-2.5091;-7.0198;4.4915;-0.0873;-0.0953;0.1256
0001373337;-2.3008;-6.9719;4.3742;-0.0705;-0.0687;0.1176
0001373346;-2.0063;-6.8833;4.3790;-0.0413;-0.0449;0.0901
0001373355;-2.3679;-7.1299;4.3766;-0.0131;-0.0115;0.0733
0001373364;-2.3152;-7.0174;4.3383;0.0266;0.0012;0.0462
0001373373;-2.4445;-7.1275;4.3790;0.0528;0.0053;0.0429
0001373382;-2.6480;-7.2449;4.4436;0.0785;-0.0085;0.0322
0001373391;-2.8515;-7.1922;4.7453;0.0997;-0.0321;0.0184
0001373400;-3.0574;-6.9528;5.0422;0.0917;-0.0649;0.0053
0001373409;-3.1077;-6.5888;5.2218;0.0718;-0.0873;-0.0053
0001373418;-3.0023;-6.0071;5.3917;0.0380;-0.0965;-0.0119
0001373427;-3.0646;-5.7413;5.5019;-0.0115;-0.1142;-0.0420
0001373436;-3.0023;-5.6503;5.4468;-0.0741;-0.1307;-0.0637
0001373445;-2.9856;-5.9568;5.3103;-0.1250;-0.1543;-0.0762
0001373454;-2.6911;-6.0885;5.3223;-0.1520;-0.1817;-0.0867
0001373463;-2.6552;-6.5577;5.4588;-0.1692;-0.1969;-0.0758
0001373472;-2.6240;-6.5362;5.9448;-0.1933;-0.2060;-0.0596
0001373481;-2.5762;-6.0525;6.1387;-0.2317;-0.2122;-0.0501
0001373490;-2.7438;-5.6934;6.2010;-0.2734;-0.2204;-0.0714
0001373499;-2.9521;-5.3510;6.1052;-0.3175;-0.2198;-0.1002
0001373508;-2.6121;-5.5234;5.8251;-0.3499;-0.2160;-0.1295
0001373517;-2.1380;-5.9711;5.5426;-0.3706;-0.2025;-0.1398
0001373526;-1.8603;-6.8283;5.2625;-0.3589;-0.1844;-0.1458
0001373535;-1.2330;-7.3550;5.0470;-0.3321;-0.1515;-0.1238
0001373544;-1.2282;-8.1331;4.7118;-0.2729;-0.1324;-0.1038
0001373553;-0.9194;-8.6574;4.5514;-0.1947;-0.1172;-0.0537
0001373562;-0.9936;-9.1554;4.5298;-0.1027;-0.1198;-0.0039
0001373571;-1.1277;-9.1004;4.5011;0.0035;-0.1203;0.0453
0001373580;-1.4940;-8.5186;4.7022;0.0991;-0.0999;0.0617
0001373589;-1.7765;-7.8673;4.7740;0.1748;-0.0914;0.0453
0001373598;-2.2936;-7.2042;4.8914;0.2162;-0.1078;0.0096
0001373607;-2.5570;-6.4308;4.9512;0.2294;-0.1295;-0.0298
0001373616;-2.8347;-6.0837;5.2529;0.2065;-0.1544;-0.0807
0001373625;-2.9497;-5.8275;5.2385;0.1761;-0.1771;-0.1182
0001373634;-2.7294;-5.6288;5.1930;0.1354;-0.1955;-0.1328
0001373722;-2.4397;-6.6128;4.9775;0.0187;-0.0332;0.0132
0001373731;-2.4134;-6.7253;4.8890;0.0340;-0.0405;-0.0012
0001373740;-2.4301;-6.7828;4.9847;0.0397;-0.0525;-0.0167
0001373749;-2.5379;-6.9504;4.9249;0.0544;-0.0600;-0.0244
0001373758;-2.2984;-6.7157;5.0230;0.0721;-0.0574;-0.0222
0001373767;-2.2553;-6.6080;5.0566;0.0859;-0.0550;-0.0221
0001373776;-1.8986;-6.3829;5.0278;0.0922;-0.0667;-0.0147
0001373785;-2.1356;-6.2776;5.0901;0.0902;-0.0655;-0.0027
0001373794;-1.9968;-6.0932;5.1619;0.0787;-0.0606;0.0080
0001373803;-2.0973;-5.9328;5.1404;0.0690;-0.0524;0.0097
0001373812;-2.2170;-6.1196;5.0853;0.0566;-0.0476;0.0136
0001373821;-2.1452;-6.0813;5.0853;0.0453;-0.0328;0.0120
0001373830;-2.0734;-6.2800;5.0446;0.0390;-0.0300;0.0051
0001373839;-2.2482;-6.5577;4.9536;0.0416;-0.0334;-0.0095
0001373848;-2.1811;-6.6702;5.0278;0.0517;-0.0328;-0.0204
0001373857;-2.3367;-6.9240;5.0709;0.0508;-0.0268;-0.0289
0001373866;-2.2577;-6.9073;5.0757;0.0687;-0.0268;-0.0421
0001373875;-2.0494;-6.5817;5.0685;0.0793;-0.0305;-0.0462
0001373884;-2.2505;-6.8354;5.1811;0.0851;-0.0356;-0.0489
0001373893;-1.9824;-6.5601;5.1906;0.0951;-0.0426;-0.0620
0001373902;-2.0159;-6.5481;5.1499;0.0903;-0.0353;-0.0644
0001373911;-1.9824;-6.3614;5.0805;0.0953;-0.0264;-0.0697
0001373920;-2.0710;-6.3614;5.0901;0.0915;-0.0261;-0.0767
0001373929;-1.9896;-6.2106;5.1188;0.0853;-0.0246;-0.0830
0001373938;-2.0686;-6.1699;5.1164;0.0837;-0.0234;-0.0838
0001373947;-2.1045;-6.3231;5.1978;0.0807;-0.0222;-0.0815
0001373956;-2.0638;-6.3183;5.2122;0.0737;-0.0181;-0.0783
0001373965;-2.0494;-6.3351;5.1763;0.0738;-0.0276;-0.0794
0001373974;-2.1620;-6.4476;5.2074;0.0753;-0.0273;-0.0722
0001373983;-2.0423;-6.3734;5.2074;0.0834;-0.0418;-0.0786
0001373992;-2.1476;-6.5912;5.1427;0.0862;-0.0426;-0.0707
0001374001;-2.2122;-6.5434;5.2840;0.0858;-0.0400;-0.0693
0001374010;-2.1476;-6.3614;5.2601;0.0842;-0.0448;-0.0682
0001374019;-2.2505;-6.5410;5.2074;0.0897;-0.0488;-0.0721
0001374028;-2.0925;-6.3997;5.1739;0.0875;-0.0474;-0.0721
0001374037;-2.0159;-6.3614;5.2553;0.0862;-0.0448;-0.0598
0001374046;-2.0925;-6.5864;5.2313;0.0901;-0.0460;-0.0557
0001374055;-1.9704;-6.3686;5.2409;0.0866;-0.0470;-0.0612
0001374064;-1.9896;-6.3782;5.2912;0.0905;-0.0396;-0.0545
0001374073;-2.1093;-6.5697;5.2098;0.0995;-0.0386;-0.0604
0001374082;-2.0231;-6.3494;5.2074;0.0930;-0.0249;-0.0585
0001374091;-1.9632;-6.1938;5.1595;0.0915;-0.0266;-0.0658
0001374100;-2.0494;-6.1770;5.2002;0.0918;-0.0269;-0.0710
0001374109;-1.8268;-6.1028;5.1787;0.0842;-0.0224;-0.0790
0001374118;-1.9441;-6.3327;5.3367;0.0797;-0.0230;-0.0869
0001374127;-1.8052;-6.2632;5.3175;0.0811;-0.0262;-0.1031
0001374136;-1.8699;-6.3542;5.2672;0.0801;-0.0144;-0.1116
0001374145;-1.8914;-6.4069;5.2074;0.0834;-0.0148;-0.1242
0001374154;-1.8986;-6.5841;5.2816;0.0894;-0.0169;-0.1379
0001374163;-1.9992;-6.5027;5.2553;0.0955;-0.0177;-0.1583
0001374172;-1.8962;-6.4931;5.2529;0.0917;-0.0057;-0.1659
0001374181;-1.8794;-6.4811;5.3223;0.0963;-0.0065;-0.1759
0001374190;-1.9872;-6.4165;5.2361;0.1026;-0.0071;-0.1859
0001374199;-1.8842;-6.3063;5.1499;0.0991;0.0024;-0.1853
0001374208;-1.9585;-6.2991;5.1427;0.1015;0.0033;-0.2024
0001374217;-2.1332;-6.4572;5.1260;0.0953;0.0099;-0.2053
0001374226;-2.1261;-6.4141;5.1404;0.0889;0.0163;-0.2106
0001374235;-2.0183;-6.3351;5.1020;0.0877;0.0195;-0.2242
0001374244;-2.0973;-6.3614;5.0230;0.0775;0.0334;-0.2232
0001374253;-2.1237;-6.2632;4.9752;0.0689;0.0356;-0.2225
0001374262;-2.1021;-6.2776;5.0781;0.0705;0.0334;-0.2250
0001374271;-2.2841;-6.4787;4.9847;0.0568;0.0432;-0.2153
0001374280;-2.2075;-6.4667;5.0566;0.0588;0.0345;-0.2245
0001374289;-2.4229;-6.4141;5.0254;0.0585;0.0362;-0.2134
0001374298;-2.3774;-6.5362;5.0398;0.0569;0.0406;-0.2036
0001374307;-2.0686;-6.3039;5.1092;0.0669;0.0396;-0.1997
0001374316;-2.4110;-6.5960;5.0326;0.0665;0.0573;-0.1787
0001374325;-2.4277;-6.5529;5.0733;0.0653;0.0628;-0.1651
0001374334;-2.3128;-6.3805;5.0637;0.0758;0.0520;-0.1551
0001374343;-2.3391;-6.3135;5.1332;0.0690;0.0506;-0.1428
0001374352;-2.1596;-6.2728;5.0446;0.0730;0.0524;-0.1378
0001374437;-2.4325;-6.4500;5.0350;0.0791;0.0139;-0.1287
0001374446;-2.1500;-6.4883;4.9895;0.0797;0.0201;-0.1238
0001374455;-2.1500;-6.4212;4.8937;0.0790;0.0241;-0.1292
0001374464;-2.2936;-6.5769;4.8818;0.0857;0.0232;-0.1263
0001374473;-2.2936;-6.5027;4.9632;0.0839;0.0294;-0.1347
0001374482;-2.2146;-6.4620;4.9273;0.0827;0.0354;-0.1247
0001374491;-2.3846;-6.5003;4.8770;0.0813;0.0430;-0.1224
0001374500;-2.2865;-6.5601;5.0087;0.0937;0.0417;-0.1170
0001374509;-2.4157;-6.5218;5.0996;0.0943;0.0406;-0.1039
0001374518;-2.6169;-6.6439;5.1212;0.1069;0.0293;-0.0955
0001374527;-2.6480;-6.6224;4.9943;0.1218;0.0229;-0.0873
0001374536;-2.5139;-6.6367;5.1284;0.1275;0.0240;-0.0690
0001374545;-2.4205;-6.5936;5.0805;0.1443;0.0157;-0.0675
0001374554;-2.4517;-6.4165;4.9680;0.1499;0.0151;-0.0683
0001374563;-2.2817;-6.3087;4.9991;0.1500;0.0065;-0.0658
0001374572;-2.3439;-6.3686;5.0494;0.1471;0.0117;-0.0636
0001374581;-2.2290;-6.1962;4.9009;0.1432;0.0208;-0.0608
0001374590;-2.2625;-6.3542;4.9368;0.1424;0.0266;-0.0605
0001374599;-2.1548;-6.3063;4.8985;0.1314;0.0357;-0.0553
0001374608;-2.3056;-6.2058;4.8435;0.1303;0.0301;-0.0577
0001374617;-2.2434;-6.2752;4.9129;0.1188;0.0337;-0.0565
0001374626;-2.4253;-6.4117;4.8435;0.1179;0.0349;-0.0566
0001374635;-2.5235;-6.4500;4.8842;0.1252;0.0238;-0.0625
0001374644;-2.5187;-6.5218;4.9249;0.1172;0.0277;-0.0609
0001374653;-2.3272;-6.3805;4.8602;0.1132;0.0236;-0.0590
0001374662;-2.5546;-6.3877;4.9560;0.1123;0.0131;-0.0601
0001374671;-2.5019;-6.4931;4.7716;0.1073;0.0041;-0.0661
0001374680;-2.3535;-6.3470;4.9249;0.1050;0.0024;-0.0669
0001374689;-2.2960;-6.3255;4.8315;0.1005;0.0043;-0.0617
0001374698;-2.3008;-6.4643;4.7597;0.0909;0.0023;-0.0594
0001374707;-2.5283;-6.4572;4.8363;0.0901;-0.0103;-0.0707
0001374716;-2.4541;-6.3566;4.8818;0.0774;-0.0132;-0.0701
0001374725;-2.3056;-6.3973;4.8483;0.0726;-0.0308;-0.0765
0001374734;-2.5809;-6.4643;4.9009;0.0594;-0.0269;-0.0637
0001374743;-2.4756;-6.3686;4.8698;0.0521;-0.0360;-0.0581
0001374752;-2.3272;-6.3015;4.8722;0.0394;-0.0422;-0.0478
0001374761;-2.4612;-6.2082;4.9249;0.0280;-0.0517;-0.0490
0001374770;-2.2266;-6.1124;4.8459;0.0064;-0.0512;-0.0454
0001374779;-2.2098;-6.0645;4.9823;-0.0112;-0.0489;-0.0421
0001374788;-2.3320;-6.2489;4.8578;-0.0284;-0.0498;-0.0428
0001374797;-2.1596;-6.1938;4.9273;-0.0382;-0.0474;-0.0356
0001374806;-2.1835;-6.2752;4.9512;-0.0489;-0.0365;-0.0312
0001374815;-2.1332;-6.3039;4.9895;-0.0537;-0.0264;-0.0312
0001374824;-2.0901;-6.3662;4.9608;-0.0640;-0.0085;-0.0297
0001374833;-2.0255;-6.4500;4.9895;-0.0678;0.0025;-0.0301
0001374842;-2.2098;-6.4763;5.0278;-0.0799;0.0104;-0.0192
0001374851;-2.2936;-6.5984;4.8985;-0.0697;0.0117;-0.0201
0001374860;-2.4804;-6.4500;4.9153;-0.0807;0.0272;-0.0067
0001374869;-2.5905;-6.5745;4.9177;-0.0790;0.0245;-0.0009
0001374878;-2.4445;-6.2752;4.8483;-0.0859;0.0302;0.0173
0001374887;-2.5379;-6.2728;4.8770;-0.1029;0.0330;0.0402
0001374896;-2.4612;-6.1052;4.9129;-0.1119;0.0304;0.0548
0001374905;-2.4038;-6.0549;4.8866;-0.1299;0.0365;0.0758
0001374914;-2.4445;-5.9999;4.8076;-0.1464;0.0341;0.0935
0001374923;-2.5426;-6.1268;4.8842;-0.1757;0.0466;0.1164
0001374932;-2.4205;-6.0023;4.7716;-0.1855;0.0390;0.1258
0001374941;-2.3080;-5.8059;4.7262;-0.2032;0.0428;0.1503
0001374950;-2.5809;-6.1627;4.6950;-0.2072;0.0356;0.1539
0001374959;-2.5642;-6.1387;4.6471;-0.2170;0.0460;0.1663
0001374968;-2.4134;-6.2130;4.6807;-0.2233;0.0602;0.1696
0001374977;-2.5426;-6.4620;4.5993;-0.2138;0.0663;0.1625
0001374986;-2.3679;-6.3973;4.5298;-0.2153;0.0737;0.1628
0001374995;-2.3966;-6.3734;4.4724;-0.2077;0.0771;0.1448
0001375004;-2.5881;-6.4476;4.4412;-0.1909;0.0777;0.1310
0001375013;-2.5690;-6.3135;4.4676;-0.1907;0.0775;0.1160
0001375022;-2.5474;-6.3542;4.3742;-0.1744;0.0678;0.0987
0001375031;-2.6911;-6.5362;4.3551;-0.1556;0.0532;0.0749
0001375040;-2.7916;-6.5841;4.4149;-0.1430;0.0412;0.0636
0001375049;-2.8683;-6.5864;4.4819;-0.1294;0.0288;0.0437
0001375058;-2.6647;-6.5194;4.4843;-0.1128;0.0248;0.0212
0001375067;-2.5355;-6.5218;4.4412;-0.0949;0.0222;0.0099
0001375076;-2.5977;-6.5697;4.5250;-0.0777;0.0215;-0.0097
0001375202;-2.3966;-6.0214;4.3072;-0.0281;0.0175;-0.1123
0001375211;-2.3080;-5.8849;4.3622;-0.0642;0.0099;-0.0978
0001375220;-2.4205;-5.7389;4.4197;-0.0978;-0.0047;-0.0903
0001375229;-2.3008;-5.6671;4.4005;-0.1395;-0.0125;-0.0770
0001375238;-2.2841;-5.7341;4.4772;-0.1716;-0.0246;-0.0560
0001375247;-2.2051;-5.8586;4.4221;-0.1982;-0.0333;-0.0298
0001375256;-1.9154;-6.0094;4.2856;-0.2084;-0.0456;-0.0096
0001375265;-1.9058;-6.3183;4.1324;-0.2254;-0.0434;0.0116
0001375274;-1.3838;-6.1483;4.1396;-0.2368;-0.0353;0.0454
0001375283;-1.4581;-6.4620;4.0582;-0.2346;-0.0320;0.0750
0001375292;-1.3192;-6.5888;4.1252;-0.2394;-0.0474;0.0882
0001375301;-0.9960;-6.5242;4.0462;-0.2382;-0.0538;0.1282
0001375310;-0.7159;-6.3853;4.0342;-0.2258;-0.0594;0.1547
0001375319;-0.4429;-6.3303;4.0821;-0.2120;-0.0464;0.1788
0001375328;0.0024;-5.9616;4.0677;-0.2185;-0.0065;0.1941
0001375337;0.1365;-5.8778;4.0773;-0.2395;0.0324;0.1767
0001375346;-0.1437;-5.8778;3.8307;-0.2638;0.0931;0.1423
0001375355;-0.1245;-5.7796;3.7134;-0.2892;0.1426;0.0683
0001375364;-0.4741;-5.8945;3.6751;-0.3228;0.1892;-0.0265
0001375373;-0.7087;-6.2991;3.4955;-0.3591;0.2193;-0.1354
0001375382;-0.9960;-6.5864;3.4620;-0.3913;0.2429;-0.2649
0001375391;-1.6472;-6.9049;3.3543;-0.4018;0.2373;-0.3672
0001375400;-1.8818;-7.0126;3.4213;-0.4056;0.2360;-0.4506
0001375409;-2.2242;-7.2137;3.5410;-0.3988;0.2129;-0.5149
0001375418;-2.5690;-7.0797;3.7373;-0.3914;0.1659;-0.5621
0001375427;-2.8060;-7.1371;3.8930;-0.3969;0.1158;-0.5802
0001375436;-2.7629;-7.1706;4.0342;-0.3926;0.0474;-0.5873
0001375445;-2.2913;-7.1563;3.8762;-0.3821;-0.0372;-0.5718
0001375454;-1.8459;-7.2999;3.7302;-0.3693;-0.0881;-0.5308
0001375463;-1.1325;-7.4388;3.5554;-0.3440;-0.0941;-0.4879
0001375472;-0.4717;-7.5992;3.3160;-0.3088;-0.0466;-0.4338
0001375481;-0.3089;-7.7692;3.1795;-0.2605;0.0453;-0.3894
0001375490;-0.1173;-7.6974;2.9784;-0.2237;0.1443;-0.3641
0001375499;-0.7302;-7.7572;3.0358;-0.2061;0.2410;-0.3444
0001375508;-1.1923;-7.5202;3.0526;-0.1915;0.3114;-0.3443
0001375517;-1.9800;-7.4148;3.1173;-0.1795;0.3192;-0.3431
0001375526;-2.6528;-7.2664;3.2465;-0.1651;0.3068;-0.3246
0001375535;-2.8922;-6.9025;3.3471;-0.1553;0.2667;-0.3084
0001375544;-3.2106;-6.9552;3.3112;-0.1336;0.1994;-0.3020
0001375553;-3.0694;-6.9145;3.2681;-0.1187;0.1495;-0.2896
0001375562;-2.6815;-6.8474;3.2058;-0.1095;0.1014;-0.2859
0001375571;-2.5809;-7.1012;3.1843;-0.0917;0.0604;-0.2942
0001375580;-2.3798;-7.1395;3.1891;-0.0965;0.0428;-0.2781
0001375589;-1.9441;-6.9552;3.2896;-0.0970;0.0317;-0.2531
0001375598;-1.7597;-6.8474;3.3902;-0.0846;0.0217;-0.2266
0001375607;-1.9154;-7.0509;3.7565;-0.0473;-0.0293;-0.1893
0001375616;-2.5474;-7.7165;4.3670;0.0085;-0.0925;-0.1025
0001375625;-3.5530;-8.4443;4.5131;0.1223;-0.1679;0.0033
0001375634;-3.9935;-8.6814;4.6926;0.2530;-0.2308;0.0923
0001375643;-4.3263;-8.7077;4.9847;0.3190;-0.2329;0.1295
0001375652;-4.4915;-8.5712;5.7126;0.3433;-0.2330;0.1255
0001375661;-4.5490;-8.3797;6.2680;0.3758;-0.2710;0.1259
0001375670;-4.6280;-8.2983;6.3925;0.4170;-0.3090;0.1583
0001375679;-4.2689;-8.0924;6.5769;0.4469;-0.3180;0.1621
0001375688;-3.9145;-8.0852;6.7924;0.4414;-0.2641;0.1163
0001375697;-3.6033;-8.0780;6.7708;0.4108;-0.1339;0.0372
0001375706;-3.4788;-7.7141;6.3135;0.3533;0.0200;-0.0250
0001375715;-3.5386;-7.4891;5.9089;0.2781;0.1443;-0.0466
0001375724;-3.5075;-6.9336;5.8131;0.2108;0.1972;-0.0336
0001375733;-3.7589;-6.5697;5.8155;0.1482;0.1696;-0.0033
0001375742;-3.9887;-6.8402;5.8251;0.1159;0.0773;0.0525
0001375751;-4.1037;-7.5130;6.0549;0.1348;-0.0654;0.1315
0001375760;-4.6256;-8.3582;6.1220;0.1970;-0.1776;0.2451
0001375769;-5.5450;-9.3757;6.0597;0.3015;-0.2001;0.3754
0001375778;-5.9927;-10.9391;5.5522;0.3621;-0.1027;0.5016
0001375787;-5.4731;-11.6646;5.0326;0.3740;0.0703;0.6348
0001375796;-4.7669;-9.8593;4.8770;0.4041;0.2100;0.7557
0001375805;-4.2449;-7.5106;4.8650;0.3881;0.2880;0.7967
0001375814;-3.5434;-5.9328;4.8004;0.3559;0.3034;0.7991
0001375823;-3.1364;-4.8315;4.6926;0.3095;0.3120;0.7819
0001375832;-2.9113;-4.4341;4.7094;0.2541;0.3324;0.7673
0001375920;-2.3846;-7.0749;4.3120;0.2530;-0.1717;0.5385
0001375929;-2.3942;-6.9336;4.3239;0.2693;-0.1475;0.5077
0001375938;-2.1691;-6.6822;4.1851;0.2750;-0.1026;0.4692
0001375947;-2.4445;-6.9408;4.2449;0.2968;-0.0827;0.4186
0001375956;-2.3798;-6.9647;4.2306;0.3178;-0.0649;0.3664
0001375965;-2.6624;-7.0820;4.0606;0.3489;-0.0644;0.3134
0001375974;-2.7366;-7.1012;4.1444;0.3880;-0.0602;0.2733
0001375983;-2.4062;-6.7349;4.1444;0.4234;-0.0550;0.2437
0001375992;-2.9018;-6.8642;4.0582;0.4600;-0.0430;0.2156
0001376001;-2.6719;-6.5122;4.1204;0.4743;-0.0234;0.1939
0001376010;-2.8012;-6.3111;4.2473;0.4934;-0.0249;0.1619
0001376019;-2.8276;-6.0908;4.2928;0.5069;-0.0376;0.1164
0001376028;-3.0909;-5.9999;4.3622;0.5108;-0.0533;0.0666
0001376037;-3.4309;-6.2441;4.3215;0.5247;-0.0811;0.0127
0001376046;-3.5674;-6.3255;4.4149;0.5365;-0.1062;-0.0405
0001376055;-3.5769;-6.4260;4.5035;0.5420;-0.1418;-0.1070
0001376064;-3.1747;-6.1723;4.5059;0.5368;-0.1525;-0.1704
0001376073;-2.9592;-6.0621;4.5226;0.5412;-0.1547;-0.2301
0001376082;-2.5546;-6.0262;4.3958;0.5498;-0.1415;-0.2878
0001376091;-2.4181;-5.9616;4.3479;0.5361;-0.0990;-0.3110
0001376100;-2.4110;-5.7341;4.2306;0.5341;-0.0775;-0.3325
0001376109;-2.4924;-5.6671;4.2521;0.5216;-0.0641;-0.3376
0001376118;-2.7126;-5.7221;4.2282;0.4972;-0.0650;-0.3324
0001376127;-2.7438;-5.5905;4.2952;0.4771;-0.0807;-0.3315
0001376136;-2.6624;-5.4013;4.2042;0.4394;-0.0873;-0.3195
0001376145;-2.7294;-5.4420;4.2665;0.4157;-0.0998;-0.3082
0001376154;-2.7198;-5.4205;4.2689;0.3766;-0.0998;-0.2793
0001376163;-2.6528;-5.5115;4.2042;0.3463;-0.1006;-0.2438
0001376172;-2.7246;-5.4468;4.2928;0.3156;-0.1070;-0.2089
0001376181;-2.5019;-5.4061;4.2066;0.2755;-0.1025;-0.1727
0001376188;-2.4972;-5.3822;4.3455;0.2490;-0.1061;-0.1434
0001376196;-2.6983;-5.5115;4.2569;0.2158;-0.1126;-0.1114
0001376204;-2.8060;-5.5186;4.2306;0.1811;-0.1207;-0.0767
0001376212;-2.7078;-5.4109;4.2832;0.1482;-0.1467;-0.0577
0001376220;-2.4445;-5.4229;4.3072;0.1266;-0.1684;-0.0482
0001376228;-2.7126;-5.3630;4.4724;0.1025;-0.1745;-0.0357
0001376236;-2.6097;-5.6312;4.3479;0.0783;-0.1745;-0.0296
0001376244;-2.5283;-5.6216;4.4460;0.0661;-0.1668;-0.0260
0001376252;-2.5881;-5.8682;4.4819;0.0465;-0.1567;-0.0165
0001376260;-2.4852;-5.8371;4.5873;0.0393;-0.1270;-0.0139
0001376268;-2.1907;-5.7317;4.4245;0.0183;-0.1066;0.0000
0001376276;-2.1715;-5.8466;4.4796;0.0141;-0.0961;0.0025
0001376284;-2.1117;-5.9424;4.5131;0.0116;-0.0935;0.0045
0001376292;-2.0566;-5.8203;4.5298;0.0085;-0.0743;0.0023
0001376300;-2.1476;-5.7772;4.4867;0.0011;-0.0530;-0.0019
0001376308;-2.3080;-5.6551;4.5274;-0.0072;-0.0433;-0.0113
