time;acc_x;acc_y;acc_z;gyro_x;gyro_y;gyro_z
0001164118;5.0039;2.5355;3.4141;0.1360;0.3238;0.0189
0001164126;5.3726;2.7461;3.5482;0.1298;0.2666;0.0183
0001164133;5.3558;2.8371;3.5434;0.1158;0.2145;0.0131
0001164141;5.2984;2.7605;3.6440;0.0879;0.1707;0.0104
0001164150;5.2529;2.8635;3.8475;0.0534;0.1106;0.0027
0001164158;5.1499;2.6791;3.9600;0.0437;0.0662;-0.0107
0001164166;5.2912;2.6647;4.0031;0.0273;0.0240;-0.0220
0001164178;5.6599;2.6767;4.0294;0.0288;-0.0257;-0.0490
0001164186;5.5258;2.5163;3.9552;0.0253;-0.0470;-0.0604
0001164197;5.8706;2.8299;3.9433;0.0322;-0.0601;-0.0654
0001164205;5.9137;2.7916;3.9576;0.0550;-0.0682;-0.0701
0001164217;5.8682;2.6576;3.8020;0.0895;-0.0594;-0.0557
0001164225;5.9424;2.6600;3.7781;0.1085;-0.0613;-0.0376
0001164233;6.1818;2.8347;3.5937;0.1128;-0.0549;-0.0216
0001164244;6.3542;2.8826;3.4548;0.1222;-0.0480;0.0067
0001164252;6.3207;2.6288;3.3878;0.1150;-0.0461;0.0236
0001164320;6.4787;2.3320;3.0430;0.0497;0.0164;-0.0048
0001164328;6.3901;2.3056;3.1005;0.0426;0.0221;-0.0264
0001164339;6.1938;2.2889;3.0239;0.0409;0.0310;-0.0421
0001164348;6.0549;2.5714;2.9305;0.0422;0.0365;-0.0616
0001164355;5.8347;2.4325;2.7677;0.0377;0.0305;-0.0815
0001164367;5.7317;2.6647;2.6528;0.0385;0.0282;-0.0989
0001164375;5.7509;2.8850;2.6576;0.0494;0.0159;-0.1266
0001164386;5.9783;3.0287;2.6791;0.0541;0.0180;-0.1603
0001164394;5.9065;3.1053;2.6312;0.0492;0.0304;-0.1757
0001164406;5.7892;2.6767;2.6264;0.0421;0.0432;-0.1985
0001164414;5.9137;2.7031;2.6743;0.0382;0.0505;-0.2178
0001164422;5.8419;2.6887;2.6719;0.0224;0.0655;-0.2232
0001164433;5.9544;2.7198;2.6911;0.0041;0.0802;-0.2457
0001164441;5.9400;2.7342;2.7773;-0.0113;0.0927;-0.2558
0001164453;5.8490;2.7126;3.0430;-0.0222;0.1075;-0.2782
0001164461;5.9544;2.6312;3.0765;-0.0310;0.1295;-0.2795
0001164472;5.9568;2.6504;3.1029;-0.0396;0.1360;-0.2566
0001164480;5.6719;2.3296;2.9664;-0.0462;0.1315;-0.2312
0001164492;5.6000;1.9130;2.8706;-0.0470;0.1148;-0.1691
0001164500;5.5186;1.7334;2.6600;-0.0421;0.0997;-0.1300
0001164508;5.1595;1.6113;2.5043;-0.0401;0.0841;-0.0925
0001164519;5.1140;1.7549;2.4277;-0.0344;0.0510;-0.0613
0001164527;4.9775;1.8675;2.4349;-0.0284;0.0336;-0.0550
0001164595;6.0142;2.6887;3.1412;-0.0270;-0.0313;-0.0292
0001164603;6.0047;2.6217;3.0406;-0.0432;-0.0092;-0.0089
0001164614;6.0238;2.6360;3.1412;-0.0597;0.0218;0.0147
0001164622;6.0525;2.6240;3.1364;-0.0618;0.0338;0.0167
0001164630;5.9927;2.5163;3.2801;-0.0653;0.0538;0.0293
0001164642;5.8059;2.5833;3.3686;-0.0609;0.0713;0.0329
0001164650;5.6862;2.4493;3.4477;-0.0486;0.0829;0.0457
0001164661;5.4755;2.5067;3.2346;-0.0305;0.0819;0.0533
0001164669;5.4348;2.8347;3.3136;-0.0306;0.0874;0.0661
0001164681;5.2601;2.8156;3.3232;-0.0232;0.0799;0.0671
0001164689;5.1763;2.7533;3.2705;-0.0312;0.0737;0.0649
0001164697;5.1068;2.7749;3.3184;-0.0438;0.0645;0.0585
0001164708;5.1499;2.6767;3.3088;-0.0573;0.0490;0.0345
0001164716;5.4277;2.7078;3.2992;-0.0629;0.0344;0.0187
0001164728;5.2385;2.5187;3.3255;-0.0578;0.0148;0.0119
0001164736;5.0685;2.4373;3.2633;-0.0626;0.0033;0.0124
0001164747;5.2050;2.5283;3.3303;-0.0560;-0.0209;0.0052
0001164755;5.2026;2.4588;3.2130;-0.0572;-0.0296;0.0043
0001164763;5.1978;2.3583;3.2968;-0.0484;-0.0420;0.0007
0001164775;5.2912;2.3128;3.1723;-0.0212;-0.0661;-0.0107
0001164783;5.3199;2.2817;3.0430;-0.0133;-0.0738;-0.0067
0001164795;5.4277;2.3631;2.9257;0.0008;-0.0917;-0.0077
0001164803;5.4181;2.4014;2.8802;0.0068;-0.0918;-0.0036
0001164871;5.7102;2.3511;3.0047;-0.0172;-0.0370;0.0125
0001164879;5.8730;2.5235;3.0335;-0.0167;-0.0249;0.0165
0001164890;5.6551;2.4780;3.0023;-0.0201;-0.0165;0.0195
0001164898;5.5713;2.4804;2.9281;-0.0205;-0.0181;0.0189
0001164906;5.7245;2.6432;2.9592;-0.0248;-0.0192;0.0203
0001164918;5.5593;2.4828;3.1340;-0.0300;-0.0192;0.0213
0001164926;5.6360;2.6887;3.0646;-0.0310;-0.0248;0.0189
0001164937;5.5378;2.5450;3.0502;-0.0270;-0.0317;0.0236
0001164945;5.4516;2.3439;3.0622;-0.0181;-0.0386;0.0222
0001164957;5.5833;2.4732;3.1220;-0.0092;-0.0470;0.0294
0001164965;5.4444;2.3487;3.0263;-0.0117;-0.0504;0.0376
0001164976;5.7054;2.5666;3.1627;-0.0089;-0.0620;0.0393
0001164984;5.5881;2.5426;3.1125;-0.0092;-0.0653;0.0357
0001164992;5.6934;2.6456;3.1173;-0.0139;-0.0616;0.0386
0001165004;5.8658;2.5402;3.1244;-0.0113;-0.0608;0.0348
0001165012;5.8634;2.6719;3.1436;-0.0153;-0.0560;0.0393
0001165023;6.0478;2.7318;3.1436;-0.0149;-0.0428;0.0452
0001165031;5.9280;2.6624;3.1196;-0.0226;-0.0397;0.0486
0001165043;5.9903;2.6264;3.1268;-0.0264;-0.0298;0.0548
0001165051;5.9209;2.6169;3.1412;-0.0222;-0.0326;0.0510
0001165059;5.8155;2.5187;3.1005;-0.0192;-0.0346;0.0480
0001165071;5.9089;2.6001;3.1196;-0.0151;-0.0365;0.0421
0001165079;5.4899;2.3942;3.1508;-0.0163;-0.0357;0.0374
0001165148;5.8466;2.4134;2.9712;-0.0145;-0.0931;0.0099
0001165156;5.9400;2.4229;3.0526;-0.0151;-0.0909;0.0124
0001165167;5.8059;2.4277;3.0406;-0.0211;-0.0898;0.0028
0001165175;6.0501;2.6145;3.0406;-0.0282;-0.0897;0.0056
0001165187;5.7724;2.3918;3.1220;-0.0265;-0.0933;0.0020
0001165195;5.8107;2.4397;3.0239;-0.0280;-0.0997;0.0031
0001165203;5.8083;2.5522;3.0526;-0.0216;-0.1103;-0.0015
0001165215;5.7892;2.6480;3.0382;-0.0358;-0.1116;0.0012
0001165222;5.6671;2.6145;3.0598;-0.0412;-0.1162;-0.0012
0001165234;5.9352;2.6815;3.1580;-0.0449;-0.1276;-0.0044
0001165242;5.8347;2.6312;3.1412;-0.0521;-0.1324;-0.0033
0001165254;5.9424;2.4995;3.1436;-0.0517;-0.1379;-0.0047
0001165261;5.8275;2.4732;3.1723;-0.0472;-0.1447;-0.0024
0001165269;5.8227;2.3272;3.1484;-0.0492;-0.1480;0.0033
0001165281;5.8969;2.3511;3.0981;-0.0346;-0.1508;0.0052
0001165289;5.7197;2.2913;3.1580;-0.0353;-0.1524;0.0005
0001165300;5.9065;2.3727;3.0837;-0.0277;-0.1514;0.0017
0001165308;6.1004;2.4876;3.1005;-0.0248;-0.1494;-0.0052
0001165320;6.1411;2.5546;3.0694;-0.0197;-0.1387;-0.0004
0001165328;6.1196;2.3870;3.1364;-0.0173;-0.1420;-0.0092
0001165392;6.2273;2.6504;3.0622;-0.0456;-0.1087;-0.0156
0001165400;6.1459;2.5355;3.0885;-0.0488;-0.1043;-0.0195
0001165408;6.1244;2.4924;3.1077;-0.0500;-0.1047;-0.0258
0001165420;6.2991;2.5738;3.0813;-0.0572;-0.0931;-0.0228
0001165428;6.0693;2.5211;3.1364;-0.0638;-0.0957;-0.0171
0001165439;6.0525;2.5618;3.1771;-0.0648;-0.0955;-0.0249
0001165447;5.9687;2.4780;3.1101;-0.0682;-0.0915;-0.0213
0001165459;6.0142;2.5618;3.1556;-0.0645;-0.0913;-0.0200
0001165467;5.9664;2.3631;3.1173;-0.0576;-0.0967;-0.0306
0001165478;5.9879;2.5594;3.2848;-0.0516;-0.0989;-0.0325
0001165486;5.9975;2.4636;3.1508;-0.0545;-0.0922;-0.0250
0001165494;6.0382;2.4612;3.1603;-0.0510;-0.0906;-0.0306
0001165506;5.9831;2.4229;3.2154;-0.0505;-0.0786;-0.0201
0001165514;6.0478;2.5307;3.1771;-0.0502;-0.0814;-0.0161
0001165526;6.0047;2.5379;3.2729;-0.0477;-0.0894;-0.0119
0001165534;6.1627;2.6600;3.2322;-0.0502;-0.0833;-0.0115
0001165545;5.9999;2.4301;3.1723;-0.0453;-0.0815;-0.0051
0001165553;6.0166;2.5067;3.1939;-0.0336;-0.0854;-0.0085
0001165565;5.9544;2.4277;3.1915;-0.0289;-0.0851;-0.0033
0001165573;5.8754;2.3128;3.2058;-0.0258;-0.0894;-0.0039
0001165581;5.9041;2.4038;3.1867;-0.0196;-0.0973;-0.0063
0001165593;5.9951;2.4924;3.1771;-0.0203;-0.1023;-0.0095
0001165601;5.9352;2.4205;3.1843;-0.0183;-0.0999;-0.0071
0001165667;6.0094;2.4924;3.1173;-0.0157;-0.1092;-0.0268
0001165675;6.0047;2.3990;3.1364;-0.0079;-0.1124;-0.0328
0001165686;5.9592;2.3966;3.0813;-0.0016;-0.1151;-0.0360
0001165694;5.9137;2.3703;3.1053;0.0024;-0.1151;-0.0352
0001165706;6.0214;2.4253;3.1556;-0.0071;-0.1107;-0.0361
0001165714;6.1411;2.3942;3.1388;-0.0044;-0.1071;-0.0336
0001165722;6.0741;2.4134;3.0933;-0.0084;-0.1015;-0.0274
0001165733;6.1866;2.5355;3.1173;0.0064;-0.1031;-0.0341
0001165741;5.9855;2.4181;3.1580;-0.0075;-0.0929;-0.0282
0001165753;6.2225;2.7198;3.1220;-0.0044;-0.0914;-0.0304
0001165761;5.9783;2.4995;3.0765;-0.0143;-0.0874;-0.0233
0001165772;5.8466;2.4373;3.1580;-0.0139;-0.0895;-0.0240
0001165780;5.9807;2.4588;3.2346;-0.0197;-0.0877;-0.0215
0001165792;5.9951;2.4636;3.1747;-0.0120;-0.0799;-0.0221
0001165800;5.9831;2.3822;3.1388;-0.0053;-0.0795;-0.0209
0001165808;6.0908;2.4517;3.2322;-0.0060;-0.0706;-0.0137
0001165819;6.2082;2.4756;3.0837;0.0049;-0.0678;-0.0165
0001165827;6.1004;2.3224;3.1699;0.0031;-0.0566;-0.0085
0001165839;6.0980;2.3846;3.1029;0.0037;-0.0506;-0.0143
0001165847;6.1076;2.4229;3.1747;0.0009;-0.0446;-0.0055
0001165859;5.9017;2.3272;3.2082;0.0027;-0.0332;-0.0069
0001165867;5.9568;2.4421;3.1053;-0.0028;-0.0380;-0.0087
0001165933;6.0980;2.5809;3.1843;-0.0081;-0.0445;0.0027
0001165941;6.1459;2.4684;3.2274;-0.0048;-0.0452;-0.0088
0001165949;6.2704;2.5139;3.1891;-0.0052;-0.0434;-0.0043
0001165960;6.2704;2.5953;3.1819;-0.0008;-0.0450;-0.0048
0001165968;6.1148;2.5331;3.1867;-0.0072;-0.0378;-0.0008
0001165980;6.1770;2.6121;3.1675;-0.0109;-0.0406;0.0020
0001165988;6.0980;2.4900;3.1843;-0.0043;-0.0389;0.0012
0001165999;6.0430;2.4205;3.1077;-0.0040;-0.0402;0.0016
0001166007;6.2058;2.6504;3.1819;-0.0039;-0.0388;0.0019
0001166019;5.9209;2.3942;3.1795;-0.0081;-0.0346;0.0047
0001166027;6.1507;2.7438;3.1556;-0.0060;-0.0386;-0.0019
0001166035;6.2297;2.5953;3.2058;-0.0076;-0.0328;0.0025
0001166046;6.0071;2.4852;3.1316;-0.0041;-0.0330;-0.0001
0001166054;6.1004;2.5762;3.1292;-0.0109;-0.0321;-0.0003
0001166066;6.0908;2.4373;3.0765;-0.0128;-0.0298;0.0029
0001166074;6.1052;2.4924;3.1843;-0.0148;-0.0330;0.0008
0001166085;6.0358;2.4157;3.2106;-0.0100;-0.0376;-0.0069
0001166093;6.2106;2.5786;3.1436;-0.0063;-0.0382;-0.0056
0001166105;6.0908;2.5402;3.0837;-0.0025;-0.0424;-0.0071
0001166113;6.0861;2.4756;3.0670;-0.0080;-0.0389;-0.0044
0001166121;5.9592;2.4972;3.0502;-0.0133;-0.0373;-0.0069
0001166133;6.1627;2.6336;3.1316;-0.0172;-0.0456;-0.0127
0001166141;5.9927;2.6001;3.1149;-0.0205;-0.0496;-0.0147
0001166207;5.9687;2.4636;3.1436;-0.0164;-0.0614;-0.0196
0001166215;6.1339;2.6552;3.1244;-0.0111;-0.0702;-0.0260
0001166226;6.1723;2.5762;3.0382;-0.0168;-0.0654;-0.0260
0001166234;6.2752;2.6097;3.0813;-0.0245;-0.0641;-0.0256
0001166246;6.2058;2.5187;3.0742;-0.0177;-0.0624;-0.0238
0001166254;6.2321;2.5235;3.1627;-0.0184;-0.0569;-0.0274
0001166262;6.0310;2.5235;3.1508;-0.0121;-0.0581;-0.0236
0001166273;6.0262;2.4660;3.0789;-0.0254;-0.0565;-0.0184
0001166281;6.0142;2.5043;3.0406;-0.0217;-0.0554;-0.0165
0001166293;6.0621;2.5618;3.1316;-0.0329;-0.0524;-0.0125
0001166301;6.2991;2.6959;3.1101;-0.0280;-0.0554;-0.0175
0001166312;6.1866;2.4541;3.1053;-0.0300;-0.0542;-0.0167
0001166320;6.1004;2.4565;3.0933;-0.0306;-0.0470;-0.0171
0001166332;6.1842;2.6121;3.0909;-0.0264;-0.0408;-0.0092
0001166340;6.1316;2.4493;3.0598;-0.0265;-0.0421;-0.0140
0001166348;6.1818;2.4852;3.0813;-0.0211;-0.0462;-0.0109
0001166360;6.1531;2.4684;2.9904;-0.0276;-0.0392;-0.0131
0001166367;5.9999;2.4684;3.0526;-0.0240;-0.0396;-0.0135
0001166379;6.0885;2.4780;3.1867;-0.0258;-0.0373;-0.0159
0001166387;6.0525;2.4852;3.0526;-0.0278;-0.0389;-0.0192
0001166399;6.1387;2.5690;3.1196;-0.0262;-0.0378;-0.0139
0001166407;6.1483;2.5546;3.1196;-0.0297;-0.0340;-0.0128
0001166474;6.1124;2.5426;3.2058;-0.0289;-0.0389;-0.0104
0001166481;6.1316;2.5857;3.1460;-0.0248;-0.0437;-0.0096
0001166489;5.9185;2.3559;3.1244;-0.0205;-0.0472;-0.0141
0001166500;6.0430;2.4636;3.1556;-0.0282;-0.0492;-0.0157
0001166508;6.2010;2.7725;3.1220;-0.0260;-0.0521;-0.0171
0001166520;6.1986;2.5594;3.2513;-0.0333;-0.0484;-0.0141
0001166528;6.1651;2.6264;3.0742;-0.0322;-0.0510;-0.0147
0001166539;6.0621;2.3679;3.1484;-0.0328;-0.0430;-0.0112
0001166547;6.1244;2.3822;3.1388;-0.0301;-0.0478;-0.0112
0001166559;6.0406;2.3750;3.0718;-0.0344;-0.0450;-0.0095
0001166567;5.9999;2.4253;3.0813;-0.0293;-0.0504;-0.0145
0001166575;6.1627;2.4876;3.0694;-0.0305;-0.0494;-0.0152
0001166587;6.0454;2.3870;3.1484;-0.0326;-0.0470;-0.0120
0001166594;6.1914;2.4373;3.1412;-0.0286;-0.0536;-0.0129
0001166606;6.1387;2.5235;3.1173;-0.0309;-0.0469;-0.0089
0001166614;6.0406;2.3320;3.1029;-0.0336;-0.0481;-0.0067
0001166625;6.1675;2.5019;3.1532;-0.0369;-0.0456;-0.0083
0001166633;6.1507;2.4469;3.0311;-0.0264;-0.0494;-0.0104
0001166645;6.0358;2.3415;3.1675;-0.0348;-0.0469;-0.0129
0001166653;6.1699;2.5905;3.1603;-0.0376;-0.0420;-0.0100
0001166661;6.2177;2.6312;3.1436;-0.0360;-0.0470;-0.0151
0001166673;6.0478;2.5786;3.2920;-0.0338;-0.0446;-0.0111
0001166681;6.1339;2.4900;3.1316;-0.0345;-0.0517;-0.0135
0001166747;6.2584;2.6097;3.1053;-0.0317;-0.0485;-0.0145
0001166755;6.1148;2.4349;3.2298;-0.0316;-0.0474;-0.0165
0001166766;6.0406;2.4325;3.2274;-0.0304;-0.0482;-0.0177
0001166774;5.9807;2.3463;3.2465;-0.0365;-0.0469;-0.0159
0001166786;5.9640;2.4086;3.1077;-0.0382;-0.0470;-0.0133
0001166794;5.9448;2.5379;3.1101;-0.0414;-0.0530;-0.0148
0001166802;6.0071;2.5953;3.1173;-0.0438;-0.0610;-0.0183
0001166813;6.0885;2.5570;3.1867;-0.0548;-0.0528;-0.0143
0001166821;5.9783;2.4972;3.1867;-0.0557;-0.0572;-0.0160
0001166833;5.9783;2.4014;3.2537;-0.0524;-0.0537;-0.0184
0001166841;6.0621;2.4325;3.2896;-0.0474;-0.0545;-0.0184
0001166852;6.0142;2.2577;3.1771;-0.0460;-0.0549;-0.0183
0001166860;6.1962;2.5235;3.1220;-0.0421;-0.0562;-0.0241
0001166872;6.1794;2.3918;3.2513;-0.0456;-0.0514;-0.0188
0001166880;6.1483;2.3750;3.1723;-0.0382;-0.0500;-0.0200
0001166888;6.1028;2.5379;3.0789;-0.0446;-0.0458;-0.0157
0001166900;6.0789;2.5618;3.1173;-0.0476;-0.0484;-0.0123
0001166908;6.0501;2.5786;3.0885;-0.0517;-0.0444;-0.0116
0001166919;6.0645;2.4110;3.1771;-0.0488;-0.0438;-0.0095
0001166927;6.0693;2.5618;3.2465;-0.0506;-0.0428;-0.0133
0001166939;6.0238;2.4301;3.2417;-0.0482;-0.0453;-0.0123
0001166947;6.0741;2.4708;3.2202;-0.0505;-0.0382;-0.0113
0001167011;6.0406;2.4469;3.2465;-0.0421;-0.0424;-0.0152
0001167019;6.0430;2.3894;3.2370;-0.0534;-0.0362;-0.0123
0001167027;6.0885;2.5402;3.2226;-0.0556;-0.0362;-0.0127
0001167039;6.1603;2.4588;3.2513;-0.0601;-0.0305;-0.0128
0001167047;6.1483;2.5714;3.2705;-0.0655;-0.0364;-0.0156
0001167058;6.1555;2.3750;3.2705;-0.0582;-0.0333;-0.0136
0001167066;6.1076;2.5450;3.3662;-0.0556;-0.0357;-0.0191
0001167078;6.0885;2.4900;3.2441;-0.0640;-0.0328;-0.0123
0001167086;6.3973;2.6145;3.3567;-0.0634;-0.0340;-0.0160
0001167097;6.1627;2.4852;3.3471;-0.0618;-0.0390;-0.0160
0001167105;6.1531;2.4397;3.2992;-0.0601;-0.0344;-0.0116
0001167113;6.1028;2.3870;3.2513;-0.0632;-0.0333;-0.0125
0001167125;5.9975;2.2218;3.1867;-0.0648;-0.0349;-0.0180
0001167133;6.0621;2.3607;3.2848;-0.0612;-0.0394;-0.0200
0001167144;6.0669;2.3032;3.2872;-0.0666;-0.0366;-0.0151
0001167152;6.0454;2.2936;3.2202;-0.0679;-0.0376;-0.0157
0001167164;6.0980;2.4469;3.3303;-0.0698;-0.0380;-0.0088
0001167172;6.2345;2.4229;3.3088;-0.0787;-0.0401;0.0004
0001167183;6.0956;2.3056;3.3423;-0.0738;-0.0414;-0.0016
0001167191;6.0908;2.4014;3.2178;-0.0775;-0.0376;-0.0013
0001167199;6.0406;2.3367;3.3567;-0.0715;-0.0497;-0.0068
0001167211;6.3207;2.6145;3.3255;-0.0654;-0.0572;-0.0184
0001167219;6.2632;2.5929;3.3854;-0.0669;-0.0474;-0.0177
0001167283;5.9161;2.2051;3.6536;-0.0875;-0.1130;-0.0028
0001167291;5.9424;2.2434;3.6559;-0.0945;-0.1162;-0.0083
0001167303;5.7126;2.2362;3.5674;-0.1015;-0.1292;-0.0148
0001167311;6.0286;2.4852;3.5362;-0.1128;-0.1416;-0.0205
0001167322;6.0190;2.4541;3.5027;-0.1234;-0.1537;-0.0216
0001167330;6.0023;2.3296;3.4572;-0.1251;-0.1631;-0.0234
0001167338;6.0789;2.2122;3.4548;-0.1263;-0.1732;-0.0226
0001167350;6.1172;2.1165;3.3327;-0.1274;-0.1769;-0.0049
0001167358;6.0478;1.9656;3.4141;-0.1302;-0.1701;0.0019
0001167370;6.4284;2.0279;3.3543;-0.1295;-0.1656;0.0113
0001167378;6.3782;2.0399;3.3423;-0.1323;-0.1522;0.0143
0001167390;6.3279;2.0231;3.2705;-0.1202;-0.1424;0.0197
0001167398;6.2441;2.2577;3.1939;-0.1304;-0.1340;0.0337
0001167410;6.2872;2.3056;3.1101;-0.1299;-0.1394;0.0502
0001167418;5.9735;2.1715;3.1867;-0.1204;-0.1432;0.0541
0001167426;6.1196;2.3942;3.1101;-0.0994;-0.1580;0.0554
0001167438;6.1052;2.5091;3.0885;-0.0845;-0.1628;0.0562
0001167446;6.2273;2.6288;3.1675;-0.0758;-0.1673;0.0478
0001167457;6.1627;2.5666;3.0694;-0.0626;-0.1760;0.0250
0001167465;6.2106;2.6552;3.1292;-0.0454;-0.1808;0.0140
0001167477;6.3015;2.5546;3.0358;-0.0261;-0.1683;0.0117
0001167485;6.4596;2.6288;2.9329;-0.0189;-0.1596;0.0011
0001167493;6.5673;2.7461;2.9904;-0.0141;-0.1599;-0.0093
0001167561;6.2321;2.5307;2.8778;-0.0250;-0.1564;-0.0405
0001167569;6.1986;2.3128;2.8228;-0.0336;-0.1575;-0.0249
0001167581;6.1196;2.1261;2.8730;-0.0386;-0.1696;-0.0145
0001167589;6.5745;2.3727;2.6887;-0.0393;-0.1677;-0.0012
0001167600;6.4332;2.3343;2.8204;-0.0405;-0.1720;-0.0017
0001167608;6.6128;2.4493;2.8204;-0.0438;-0.1564;0.0088
0001167620;6.5745;2.3320;2.7629;-0.0393;-0.1484;0.0073
0001167628;6.6128;2.4086;2.7294;-0.0296;-0.1451;0.0095
0001167636;6.8594;2.5235;2.8443;-0.0306;-0.1284;0.0218
0001167647;6.5960;2.2482;2.7916;-0.0236;-0.1230;0.0290
0001167655;6.5218;2.2936;2.7222;-0.0273;-0.1092;0.0401
0001167667;6.8474;2.4181;2.6911;-0.0308;-0.0966;0.0592
0001167675;6.6990;2.2027;2.7294;-0.0274;-0.0942;0.0610
0001167686;6.7516;2.3559;2.8491;-0.0281;-0.0718;0.0793
0001167694;6.8761;2.4612;2.7964;-0.0256;-0.0616;0.0817
0001167706;6.6750;2.3942;2.8371;-0.0201;-0.0434;0.0747
0001167714;6.7086;2.3846;2.7916;-0.0068;-0.0308;0.0687
0001167722;6.6128;2.4397;2.7054;-0.0115;-0.0183;0.0677
0001167733;6.6056;2.3894;2.6791;-0.0019;-0.0031;0.0596
0001167741;6.4548;2.2793;2.7078;0.0012;0.0024;0.0585
0001167753;6.4260;2.1380;2.7294;0.0076;0.0191;0.0652
0001167761;6.5122;2.2529;2.7007;-0.0029;0.0305;0.0789
0001167829;6.5266;2.0494;2.6552;-0.0350;0.1605;0.1708
0001167837;6.6272;2.1620;2.5881;-0.0405;0.1656;0.1747
0001167845;6.4979;1.8603;2.6791;-0.0472;0.1664;0.1839
0001167857;6.3662;1.6041;2.6288;-0.0601;0.1636;0.1861
0001167865;6.4165;1.4533;2.6767;-0.0685;0.1759;0.1901
0001167876;6.4308;1.1157;2.6767;-0.0658;0.1759;0.1851
0001167884;6.4548;0.9002;2.4972;-0.0665;0.1760;0.1723
0001167896;6.3542;0.8308;2.3056;-0.0698;0.1760;0.1529
0001167904;6.5888;0.8859;2.2242;-0.0859;0.1725;0.1335
0001167912;6.6463;0.9697;2.1691;-0.1090;0.1671;0.1067
0001167924;6.3829;0.7446;2.4373;-0.1358;0.1454;0.0568
0001167932;6.1938;0.3591;2.5163;-0.1500;0.1314;0.0104
0001167944;6.1794;0.1939;2.3894;-0.1756;0.1172;-0.0642
0001167952;6.1986;-0.0168;2.2984;-0.2037;0.1059;-0.1275
0001167964;6.1292;-0.5243;2.2338;-0.2694;0.1070;-0.2280
0001167972;6.0813;-1.2426;2.1835;-0.2986;0.1087;-0.2998
0001167980;6.3398;-1.5682;1.9201;-0.3212;0.1211;-0.3664
0001167992;6.4117;-2.5402;1.0750;-0.3128;0.1747;-0.4514
0001168000;6.2944;-3.0981;0.2658;-0.3119;0.2180;-0.4764
0001168011;6.6679;-3.1939;-0.0886;-0.3595;0.2778;-0.4546
0001168019;6.4667;-3.2801;0.2274;-0.4053;0.3038;-0.4032
0001168031;6.3710;-3.3040;0.8882;-0.4812;0.3168;-0.3154
0001168039;6.0980;-3.4022;0.7949;-0.4715;0.3255;-0.2651
0001168107;6.0430;-1.8340;-1.2115;-0.1226;0.2384;-0.2761
0001168115;6.0501;-1.2067;-1.3958;-0.0312;0.2489;-0.2531
0001168127;6.1627;0.3496;-1.2378;0.0678;0.2819;-0.2078
0001168135;6.5314;1.5467;-0.9720;0.0695;0.3215;-0.1693
0001168143;6.6774;2.6911;-0.2753;0.0233;0.3639;-0.1167
0001168154;6.6272;3.8355;0.9888;-0.0945;0.3533;-0.0597
0001168162;6.5194;4.2593;1.9561;-0.2122;0.3271;-0.0584
0001168174;6.1794;3.3399;2.6600;-0.3401;0.2801;-0.1391
0001168182;5.4660;1.6257;2.0327;-0.3584;0.2735;-0.2057
0001168193;5.0637;0.3376;1.0918;-0.2582;0.2459;-0.2958
0001168201;4.6400;-0.2274;1.1181;-0.1320;0.2254;-0.3375
0001168209;4.3335;-0.3352;1.4437;-0.0013;0.2178;-0.3436
0001168221;4.6256;0.5602;2.3008;0.0867;0.2026;-0.3577
0001168229;5.1068;1.4030;2.8132;0.0747;0.2245;-0.3557
0001168241;5.8610;2.3391;3.4548;-0.0192;0.2522;-0.2940
0001168249;6.3087;2.6719;3.5147;-0.0854;0.2411;-0.2268
0001168260;6.4284;2.5402;3.4884;-0.1073;0.2399;-0.1355
0001168268;6.8498;2.2098;3.9696;-0.1476;0.3231;-0.0923
0001168280;7.0485;2.0494;4.7190;-0.2162;0.4604;-0.0834
0001168288;7.2018;1.8316;5.6767;-0.2321;0.5311;-0.0862
0001168296;7.2113;1.7190;6.3829;-0.2473;0.6286;-0.0594
0001168364;5.0566;10.6853;19.9892;-2.2380;1.4385;-0.3002
0001168373;4.9919;18.3228;32.7527;-4.3657;1.8876;-0.6375
0001168385;10.0197;29.0369;45.4036;-4.3657;2.3294;-1.2805
0001168392;15.1553;19.7593;36.4565;-3.2672;2.5804;-1.5404
0001168404;7.8171;4.3574;13.9486;-2.4433;2.4980;-0.7635
0001168412;3.0191;4.0869;10.7500;-2.2527;2.1607;-0.1419
0001168424;-0.2035;4.0845;6.7277;-1.6959;1.6710;0.5196
0001168432;-0.4860;3.2202;3.9816;-1.2761;1.4083;0.5650
0001168440;-0.7302;2.8347;2.9425;-1.0801;0.9876;0.4467
0001168452;-0.8452;3.9744;0.1915;-1.1175;0.3692;0.0971
0001168460;-1.5826;5.8538;-0.2035;-1.4008;0.1124;-0.3063
0001168472;-1.5730;9.9742;1.5682;-2.2773;0.1010;-0.8158
0001168480;-0.7877;10.8864;3.7397;-3.1421;0.0466;-0.9141
0001168492;-0.3112;6.8139;3.2609;-4.1864;-0.0751;-1.0491
0001168500;0.5028;3.0550;3.1723;-4.3657;-0.1359;-1.0337
0001168512;2.3128;-0.7829;5.7102;-4.3657;-0.2855;-1.0039
0001168520;2.5833;-2.5666;7.7309;-4.1756;-0.4155;-1.0794
0001168528;2.6049;-3.6751;8.8873;-3.8036;-0.5401;-1.1968
0001168540;2.4708;-4.4891;9.1123;-2.9278;-0.6107;-1.1470
0001168548;2.2769;-4.2617;7.9296;-2.0843;-0.7386;-1.0023
0001168561;2.3679;-3.5698;6.0956;-0.7670;-0.8298;-0.7913
0001168568;2.6743;-2.3990;4.7285;-0.0926;-0.8434;-0.7974
0001168636;0.6704;0.1149;4.7812;-4.3657;-0.7053;-0.5789
0001168644;0.8763;-2.1332;7.6279;-4.3657;-0.7324;-0.5064
0001168656;2.4493;-4.5274;7.7285;-4.3657;-0.6562;-0.4406
0001168664;3.3998;-5.7078;6.3949;-4.3657;-0.6678;-0.4060
0001168675;4.1037;-7.4220;4.5945;-4.3657;-0.7522;-0.3284
0001168683;3.8882;-8.7340;5.4013;-4.3657;-0.8761;-0.2269
0001168691;3.2010;-10.9319;7.3957;-4.3657;-0.9859;-0.1026
0001168703;-1.8148;-24.3682;21.7274;-4.3657;-1.5677;0.0027
0001168711;-3.1891;-26.3721;18.8591;-3.4621;-1.8301;-0.0120
0001168723;-0.1221;-13.9151;3.1580;-2.2182;-2.5463;0.1732
0001168731;0.6345;-9.9216;-0.9242;-1.9821;-2.7631;0.5368
0001168743;-0.5626;-10.1370;-0.7254;-2.1289;-2.0444;1.5343
0001168751;-2.2936;-12.2966;2.5115;-2.0408;-1.3684;2.0925
0001168763;-4.3263;-18.8615;11.1881;-1.0084;-0.9714;2.3172
0001168771;-3.5721;-19.7258;11.7962;-0.0413;-1.1668;2.0832
0001168783;-0.5578;-16.7355;8.6790;0.5586;-1.5579;1.5438
0001168791;2.8252;-16.2399;9.5241;0.3379;-1.5561;1.2432
0001168803;7.3622;-16.3165;11.7029;-0.2569;-1.2319;0.7185
0001168811;9.6462;-15.7203;11.3820;-0.6590;-0.9012;0.3179
0001168819;10.7835;-14.8680;10.7380;-1.0387;-0.4343;-0.1103
0001168831;11.9902;-13.5416;9.1291;-1.4264;0.3449;-0.7614
0001168839;11.8585;-13.2950;8.9854;-1.5027;0.7077;-1.2155
0001168906;3.2465;-8.9663;6.3686;2.3210;1.5196;-1.4437
0001168914;1.6065;-8.2863;5.7341;2.8932;1.2089;-0.9907
0001168926;0.0718;-8.0325;5.3486;3.2077;0.1624;-0.3022
0001168934;-0.5866;-8.2193;7.1228;3.1857;-0.4531;0.2289
0001168946;-0.8068;-7.1060;10.4483;3.2305;-0.6250;0.9531
0001168954;0.5363;-6.2130;10.9295;3.3016;-0.5570;1.1391
0001168962;2.3463;-5.3151;10.1921;3.1706;-0.5935;1.1014
0001168974;6.2058;-2.1428;11.2432;2.0081;-0.5886;0.7857
0001168982;7.6495;-1.3503;10.2520;0.6931;-0.5481;0.5541
0001168994;8.1163;-2.9856;6.5146;-0.7653;-0.4728;0.2534
0001169002;8.3175;-4.2928;5.9233;-1.0305;-0.4374;0.1092
0001169014;9.5912;-5.1116;8.2384;-0.6715;-0.4327;-0.0268
0001169022;10.1921;-5.1691;10.3956;-0.2892;-0.3472;-0.0870
0001169034;10.6757;-5.8849;11.2025;0.1479;0.0252;-0.1607
0001169042;9.6271;-6.0765;10.3549;0.3071;0.2924;-0.1619
0001169054;7.5513;-6.1770;9.3925;0.5177;0.4610;-0.1147
0001169062;6.2513;-6.3877;9.7252;0.6017;0.4523;-0.0719
0001169070;5.1811;-6.0789;10.3094;0.6121;0.3973;-0.0328
0001169082;4.1515;-5.7269;10.7117;0.4844;0.2706;0.0390
0001169090;3.7445;-5.4324;10.4100;0.4189;0.1603;0.0775
0001169102;3.9361;-5.0901;10.0413;0.3547;0.0550;0.1045
0001169110;4.4484;-4.7190;10.1394;0.3264;0.0240;0.1086
0001169179;5.1260;-5.0446;9.6343;0.0771;-0.0309;-0.0482
0001169188;4.9321;-5.1619;9.6486;0.0814;-0.0298;-0.0306
0001169201;5.2529;-4.8961;9.5505;0.0967;-0.0533;-0.0097
0001169210;5.3822;-4.8554;9.3637;0.1005;-0.0518;0.0168
0001169219;5.5569;-4.4772;9.4451;0.0773;-0.0418;0.0452
0001169232;5.9256;-4.5729;9.2536;0.0286;-0.0396;0.0843
0001169241;6.0669;-4.6064;9.2320;-0.0085;-0.0296;0.1005
0001169254;6.0310;-4.7860;9.3685;-0.0541;-0.0071;0.0890
0001169263;5.8107;-5.2577;9.4355;-0.0560;0.0079;0.0624
0001169276;5.7676;-5.3127;9.3733;-0.0266;0.0256;0.0199
0001169285;5.5545;-5.3056;9.3254;-0.0025;0.0341;0.0028
0001169294;5.2313;-5.2337;9.3661;0.0152;0.0340;-0.0044
0001169307;5.1140;-5.0853;9.5505;-0.0057;0.0324;-0.0005
0001169316;5.0254;-4.9560;9.5600;-0.0377;0.0199;0.0185
0001169329;5.0350;-4.9752;9.6606;-0.0903;-0.0143;0.0338
0001169338;5.2098;-5.0422;9.8162;-0.1085;-0.0348;0.0330
0001169351;5.3343;-5.4085;9.7205;-0.1335;-0.0362;0.0464
0001169360;5.5761;-5.6120;9.6726;-0.1279;-0.0272;0.0377
0001169373;5.5019;-5.9568;9.7588;-0.1163;-0.0079;0.0330
0001169382;5.4516;-6.0310;9.7372;-0.1030;0.0023;0.0325
0001169391;5.4013;-6.0525;9.6414;-0.0827;0.0009;0.0217
0001169404;5.2385;-6.1411;9.5409;-0.0533;-0.0029;0.0093
0001169413;5.0446;-6.1459;9.5553;-0.0584;-0.0033;-0.0068
0001169482;5.1954;-5.9256;9.3805;0.0051;-0.0049;-0.0237
0001169491;5.0206;-5.8873;9.3709;0.0117;-0.0176;-0.0196
0001169504;5.1380;-5.8778;9.3470;-0.0035;-0.0273;-0.0125
0001169513;5.2241;-5.8849;9.2608;-0.0221;-0.0180;-0.0013
0001169526;5.2744;-5.8873;9.4882;-0.0270;-0.0144;-0.0031
0001169535;5.3008;-5.9304;9.4403;-0.0168;-0.0149;-0.0069
0001169544;5.1547;-5.9759;9.4571;-0.0052;-0.0059;0.0136
0001169557;5.0015;-5.9687;9.3685;0.0113;-0.0071;0.0330
0001169566;5.0805;-5.7940;9.3925;0.0224;-0.0176;0.0385
0001169579;4.8890;-5.7916;9.3589;0.0165;-0.0341;0.0434
0001169588;4.9632;-5.7485;9.3709;0.0009;-0.0373;0.0457
0001169601;5.1068;-5.7197;9.4068;-0.0157;-0.0550;0.0426
0001169610;5.1404;-5.7796;9.4355;-0.0155;-0.0598;0.0346
0001169623;5.2050;-5.8490;9.4715;-0.0119;-0.0592;0.0296
0001169632;5.1044;-5.9568;9.4882;-0.0009;-0.0616;0.0376
0001169641;5.1140;-5.9544;9.4092;0.0039;-0.0522;0.0324
0001169654;4.9656;-5.9783;9.4044;0.0108;-0.0410;0.0318
0001169663;5.2241;-5.8131;9.5265;0.0143;-0.0300;0.0284
0001169679;5.0685;-5.7748;9.5960;0.0216;-0.0200;0.0300
0001169688;4.9895;-5.7150;9.5170;0.0207;-0.0192;0.0288
0001169757;5.1763;-5.4468;9.5600;0.0005;-0.0634;0.0149
0001169766;5.2816;-5.5713;9.5840;-0.0047;-0.0621;0.0100
0001169778;5.1020;-5.7293;9.4882;-0.0008;-0.0580;0.0111
0001169787;5.2385;-5.6790;9.4523;0.0131;-0.0556;0.0059
0001169796;5.4779;-5.6216;9.4164;0.0148;-0.0477;0.0035
0001169809;5.2720;-5.7964;9.4619;0.0205;-0.0405;0.0000
0001169818;5.1212;-5.5665;9.4691;0.0171;-0.0334;0.0031
0001169830;5.2026;-5.6719;9.5241;0.0244;-0.0328;0.0049
0001169839;5.1164;-5.5162;9.5361;0.0401;-0.0430;-0.0029
0001169852;5.0949;-5.4708;9.5289;0.0404;-0.0472;-0.0051
0001169861;5.1954;-5.2912;9.5193;0.0236;-0.0506;0.0019
0001169870;5.1858;-5.4157;9.3901;0.0037;-0.0554;0.0055
0001169882;5.4636;-5.4013;9.5265;-0.0127;-0.0585;0.0009
0001169891;5.4085;-5.4420;9.5265;-0.0075;-0.0618;-0.0045
0001169904;5.5330;-5.5043;9.5313;-0.0025;-0.0473;-0.0111
0001169913;5.4875;-5.5689;9.4930;-0.0007;-0.0402;-0.0084
0001169925;5.4516;-5.5354;9.5648;0.0144;-0.0358;-0.0191
0001169934;5.3127;-5.5498;9.5648;0.0107;-0.0199;-0.0117
0001169947;5.4324;-5.4851;9.5122;0.0111;-0.0125;-0.0161
0001169956;5.3534;-5.5306;9.5313;0.0084;-0.0120;-0.0215
0001169968;5.3295;-5.5665;9.5792;0.0093;-0.0185;-0.0269
0001169977;5.1188;-5.8371;9.4954;0.0093;-0.0091;-0.0168
0001169986;5.2864;-5.5306;9.4308;0.0135;-0.0113;-0.0167
0001170054;5.3678;-5.5545;9.4451;-0.0362;-0.0501;-0.0093
0001170063;5.2864;-5.6910;9.5217;-0.0412;-0.0342;-0.0067
0001170075;5.2218;-5.8059;9.4284;-0.0192;-0.0192;-0.0053
0001170084;5.1763;-5.7341;9.3541;-0.0027;-0.0199;-0.0128
0001170097;5.0853;-5.6838;9.3853;0.0039;-0.0212;-0.0091
0001170106;5.2601;-5.6383;9.4260;-0.0035;-0.0171;-0.0052
0001170118;5.0063;-5.5402;9.5864;-0.0220;-0.0282;-0.0141
0001170127;5.2241;-5.5713;9.5529;-0.0290;-0.0296;-0.0222
0001170136;5.0733;-5.7868;9.5624;-0.0280;-0.0333;-0.0215
0001170149;5.2002;-5.5881;9.4164;-0.0159;-0.0309;-0.0191
0001170158;5.1858;-5.6144;9.4379;-0.0147;-0.0236;-0.0211
0001170170;5.3654;-5.6551;9.4212;-0.0055;-0.0318;-0.0228
0001170179;5.2313;-5.5593;9.4499;-0.0084;-0.0209;-0.0218
0001170192;5.1571;-5.7676;9.4284;-0.0081;-0.0234;-0.0285
0001170201;5.1667;-5.5833;9.4954;-0.0171;-0.0164;-0.0309
0001170213;5.3056;-5.5330;9.4116;-0.0175;-0.0215;-0.0320
0001170222;5.1930;-5.6336;9.3637;-0.0246;-0.0167;-0.0278
0001170235;5.2696;-5.6767;9.5361;-0.0165;-0.0181;-0.0348
0001170244;5.4157;-5.4971;9.5098;-0.0153;-0.0119;-0.0388
0001170253;5.2361;-5.7533;9.4954;-0.0033;-0.0191;-0.0433
0001170265;5.0877;-5.6527;9.4236;0.0015;-0.0204;-0.0414
0001170274;5.0901;-5.7628;9.4116;-0.0120;-0.0217;-0.0384
0001170340;5.1811;-5.7341;9.3015;0.0015;0.0080;-0.0384
0001170349;5.2433;-5.4300;9.4403;-0.0029;0.0149;-0.0370
0001170361;5.1164;-5.6288;9.4116;-0.0123;0.0125;-0.0312
0001170370;5.1954;-5.5067;9.3805;-0.0112;0.0043;-0.0340
0001170383;4.8650;-5.7126;9.4739;-0.0196;-0.0045;-0.0304
0001170392;4.9512;-5.6264;9.5457;-0.0270;-0.0024;-0.0195
0001170401;4.8866;-5.8562;9.5241;-0.0171;-0.0177;-0.0168
0001170413;4.8602;-5.8179;9.5505;-0.0137;-0.0333;-0.0163
0001170422;5.0949;-5.8323;9.5098;-0.0129;-0.0401;-0.0136
0001170435;5.2002;-5.6312;9.4691;-0.0097;-0.0404;-0.0212
0001170444;5.1858;-5.7078;9.5122;-0.0097;-0.0356;-0.0208
0001170456;5.3463;-5.5809;9.4858;-0.0035;-0.0277;-0.0131
0001170465;5.1356;-5.7006;9.5361;0.0021;-0.0241;-0.0121
0001170478;5.1356;-5.6288;9.5265;0.0039;-0.0143;-0.0065
0001170487;5.1523;-5.6192;9.5217;0.0032;-0.0140;-0.0069
0001170499;5.1906;-5.4636;9.4643;0.0104;-0.0144;-0.0137
0001170508;4.9201;-5.7868;9.4332;0.0091;-0.0076;-0.0081
0001170517;4.8052;-5.7269;9.4595;0.0109;-0.0180;-0.0105
0001170530;5.0087;-5.5306;9.3853;0.0085;-0.0282;-0.0005
0001170539;4.8626;-5.6503;9.5098;-0.0001;-0.0326;-0.0004
0001170551;5.2098;-5.5186;9.5768;-0.0024;-0.0469;-0.0039
0001170560;5.2241;-5.5761;9.4068;-0.0135;-0.0430;0.0016
0001170627;5.2457;-5.4516;9.3901;0.0077;-0.0265;-0.0215
0001170636;5.2433;-5.4516;9.2895;-0.0119;-0.0188;-0.0129
0001170648;5.0973;-5.3798;9.2943;-0.0281;-0.0314;-0.0218
0001170657;5.0422;-5.5522;9.3087;-0.0365;-0.0336;-0.0262
0001170666;5.0996;-5.5833;9.2632;-0.0396;-0.0326;-0.0356
0001170679;5.4229;-5.6336;9.2775;-0.0426;-0.0209;-0.0442
0001170688;5.5450;-5.5905;9.2799;-0.0598;0.0044;-0.0442
0001170700;5.2864;-5.7988;9.3398;-0.0561;0.0203;-0.0564
0001170709;5.3343;-5.8155;9.2967;-0.0504;0.0364;-0.0614
0001170722;5.1954;-5.6862;9.4834;-0.0362;0.0549;-0.0610
0001170731;5.1547;-5.7581;9.5600;-0.0269;0.0642;-0.0601
0001170743;5.0135;-5.7533;9.5289;-0.0133;0.0474;-0.0469
0001170752;4.9129;-5.7485;9.4810;-0.0019;0.0222;-0.0472
0001170765;4.9033;-5.7533;9.4882;-0.0023;0.0032;-0.0380
0001170774;4.8315;-5.6144;9.5289;-0.0071;-0.0016;-0.0360
0001170783;4.7381;-5.7269;9.5864;-0.0115;-0.0144;-0.0344
0001170795;4.9991;-5.5402;9.6079;-0.0141;-0.0369;-0.0385
0001170804;4.9608;-5.6886;9.4786;-0.0228;-0.0337;-0.0342
0001170817;5.0182;-5.7293;9.4882;-0.0236;-0.0409;-0.0317
0001170826;5.1619;-5.5713;9.5433;-0.0245;-0.0357;-0.0199
0001170838;5.2194;-5.6527;9.6079;-0.0254;-0.0211;-0.0117
0001170847;5.2337;-5.8586;9.4882;-0.0081;-0.0141;-0.0125
0001170914;4.9680;-5.3463;9.4523;0.0121;-0.0290;0.0020
0001170923;4.9775;-5.4181;9.4355;0.0051;-0.0394;-0.0048
0001170932;4.9057;-5.4779;9.3948;-0.0013;-0.0349;0.0024
0001170944;5.1284;-5.4253;9.3996;-0.0152;-0.0381;-0.0047
0001170953;4.9321;-5.5282;9.4140;-0.0330;-0.0302;-0.0093
0001170966;5.2864;-5.3870;9.5553;-0.0372;-0.0281;-0.0167
0001170975;4.8507;-5.7796;9.5433;-0.0290;-0.0298;-0.0244
0001170987;4.9991;-5.7030;9.5768;-0.0191;-0.0215;-0.0237
0001170996;5.0661;-5.5522;9.4810;-0.0145;-0.0228;-0.0123
0001171009;4.8147;-5.6407;9.5361;0.0013;-0.0268;-0.0141
0001171018;5.1116;-5.4540;9.5409;0.0063;-0.0322;-0.0192
0001171030;4.9225;-5.5976;9.5720;0.0027;-0.0373;-0.0204
0001171039;4.7836;-5.5450;9.5696;-0.0101;-0.0342;-0.0184
0001171048;4.9608;-5.5713;9.5361;-0.0105;-0.0401;-0.0207
0001171061;4.9464;-5.4995;9.5337;-0.0149;-0.0424;-0.0212
0001171070;5.1571;-5.4971;9.6151;-0.0179;-0.0425;-0.0108
0001171082;5.1619;-5.4875;9.4619;-0.0140;-0.0346;-0.0084
0001171091;5.1523;-5.4564;9.4739;-0.0067;-0.0373;-0.0123
0001171104;5.0685;-5.5282;9.5002;-0.0136;-0.0215;-0.0061
0001171113;5.2529;-5.4085;9.5433;-0.0104;-0.0213;-0.0203
0001171126;4.8674;-5.7150;9.4475;-0.0041;-0.0148;-0.0187
0001171135;4.9847;-5.5665;9.3972;-0.0055;-0.0143;-0.0159
0001171144;4.9656;-5.5474;9.4715;-0.0137;-0.0152;-0.0155
0001171212;4.8770;-5.6982;9.4691;-0.0278;-0.0328;-0.0224
0001171221;5.1332;-5.3486;9.5433;-0.0328;-0.0232;-0.0180
0001171234;5.0589;-5.5354;9.4882;-0.0382;-0.0250;-0.0242
0001171243;4.8866;-5.6599;9.5026;-0.0329;-0.0175;-0.0195
0001171255;5.1858;-5.4612;9.4523;-0.0244;-0.0181;-0.0249
0001171264;4.8076;-5.7772;9.3111;-0.0274;-0.0124;-0.0201
0001171277;4.9799;-5.5091;9.4068;-0.0248;-0.0029;-0.0286
0001171286;5.0182;-5.6862;9.4332;-0.0191;-0.0100;-0.0336
0001171298;4.9416;-5.6695;9.4236;-0.0241;-0.0039;-0.0278
0001171307;4.9057;-5.6934;9.4188;-0.0207;-0.0059;-0.0297
0001171316;5.0781;-5.6862;9.5361;-0.0205;-0.0045;-0.0244
0001171329;4.9392;-5.6838;9.4140;-0.0169;-0.0053;-0.0248
0001171338;4.9488;-5.8203;9.4547;-0.0172;-0.0031;-0.0253
0001171350;4.8842;-5.7006;9.3494;-0.0173;-0.0051;-0.0272
0001171359;4.9512;-5.6886;9.4475;-0.0156;-0.0081;-0.0249
0001171372;4.7812;-5.8012;9.4475;-0.0089;-0.0044;-0.0250
0001171381;4.9249;-5.6216;9.5170;-0.0027;-0.0204;-0.0258
0001171393;4.8698;-5.5857;9.4858;-0.0116;-0.0236;-0.0191
0001171402;4.8100;-5.5641;9.5050;-0.0123;-0.0305;-0.0228
0001171469;4.9584;-5.6216;9.3422;-0.0187;-0.0245;-0.0211
0001171478;4.9943;-5.6623;9.4571;-0.0205;-0.0294;-0.0217
0001171487;5.0015;-5.6048;9.3925;-0.0280;-0.0252;-0.0171
0001171499;5.0015;-5.7341;9.4284;-0.0215;-0.0258;-0.0211
0001171508;4.9775;-5.7197;9.4523;-0.0236;-0.0294;-0.0258
0001171521;5.1140;-5.5330;9.2871;-0.0164;-0.0232;-0.0253
0001171530;4.9752;-5.7174;9.4739;-0.0112;-0.0207;-0.0253
0001171542;4.9967;-5.6360;9.4834;-0.0081;-0.0180;-0.0201
0001171551;4.9009;-5.5210;9.3685;-0.0036;-0.0224;-0.0273
0001171564;4.9129;-5.6168;9.3541;-0.0176;-0.0197;-0.0187
0001171573;4.9081;-5.6024;9.4523;-0.0215;-0.0149;-0.0167
0001171585;5.0542;-5.6216;9.4906;-0.0152;-0.0228;-0.0171
0001171594;4.8315;-5.7006;9.3925;-0.0095;-0.0256;-0.0195
0001171603;5.0661;-5.5952;9.2727;-0.0221;-0.0226;-0.0153
0001171616;4.8746;-5.6551;9.4858;-0.0316;-0.0222;-0.0189
0001171625;4.7884;-5.7389;9.5433;-0.0285;-0.0220;-0.0173
0001171637;4.8746;-5.7628;9.3709;-0.0179;-0.0282;-0.0135
0001171646;4.7285;-5.8658;9.4020;-0.0169;-0.0332;-0.0112
0001171659;4.9249;-5.7652;9.5122;-0.0172;-0.0298;-0.0109
0001171668;5.0637;-5.7581;9.4691;-0.0072;-0.0310;-0.0167
0001171680;5.0326;-5.6886;9.4906;-0.0040;-0.0278;-0.0181
0001171689;5.0542;-5.6072;9.4355;-0.0093;-0.0153;-0.0191
0001171756;4.9368;-5.6336;9.3446;-0.0073;-0.0254;-0.0217
0001171765;5.0542;-5.5689;9.4379;-0.0032;-0.0328;-0.0314
0001171774;4.9728;-5.6910;9.3637;-0.0024;-0.0258;-0.0332
0001171786;5.0374;-5.5665;9.4212;-0.0028;-0.0149;-0.0328
0001171795;5.1260;-5.4995;9.4643;-0.0020;-0.0061;-0.0301
0001171808;4.9416;-5.6503;9.4763;-0.0005;-0.0017;-0.0188
0001171817;4.9919;-5.3798;9.4499;0.0011;-0.0117;-0.0261
0001171829;4.8411;-5.6479;9.4332;-0.0051;-0.0175;-0.0226
0001171838;4.8267;-5.4779;9.4858;-0.0109;-0.0153;-0.0164
0001171851;4.9368;-5.5138;9.3158;-0.0132;-0.0229;-0.0188
0001171860;5.0206;-5.4803;9.3230;-0.0152;-0.0265;-0.0195
0001171869;4.9033;-5.6814;9.4140;-0.0204;-0.0280;-0.0195
0001171881;4.8722;-5.7150;9.4403;-0.0157;-0.0288;-0.0171
0001171890;5.0733;-5.5067;9.3781;-0.0201;-0.0241;-0.0139
0001171903;4.9488;-5.6719;9.4236;-0.0181;-0.0237;-0.0201
0001171912;4.8842;-5.7102;9.3901;-0.0091;-0.0226;-0.0204
0001171924;4.9105;-5.6527;9.4451;-0.0093;-0.0113;-0.0197
0001171933;4.8746;-5.5593;9.5624;-0.0052;-0.0123;-0.0165
0001171946;4.8363;-5.6886;9.3853;0.0024;-0.0143;-0.0176
0001171955;4.8147;-5.6048;9.4116;0.0047;-0.0197;-0.0116
0001171967;4.7716;-5.6120;9.4236;-0.0057;-0.0215;-0.0156
0001171976;4.8483;-5.5713;9.4427;-0.0045;-0.0313;-0.0212
0001171985;4.8315;-5.5976;9.4355;-0.0168;-0.0261;-0.0179
0001172052;4.8961;-5.5426;9.4523;-0.0195;-0.0341;-0.0107
0001172061;4.7501;-5.7365;9.3996;-0.0121;-0.0373;-0.0168
0001172073;4.9464;-5.5641;9.4188;-0.0105;-0.0372;-0.0177
0001172082;4.8914;-5.6120;9.4571;-0.0185;-0.0281;-0.0124
0001172095;4.8842;-5.6767;9.3853;-0.0148;-0.0286;-0.0139
0001172104;5.0518;-5.4396;9.3757;-0.0105;-0.0238;-0.0167
0001172116;4.8554;-5.5785;9.4858;-0.0069;-0.0305;-0.0180
0001172123;4.8794;-5.5593;9.3853;-0.0096;-0.0298;-0.0121
0001172135;4.8866;-5.5761;9.4499;-0.0116;-0.0316;-0.0127
0001172143;4.8004;-5.6144;9.5122;-0.0135;-0.0318;-0.0147
0001172151;4.9344;-5.5402;9.3781;-0.0087;-0.0353;-0.0197
0001172162;4.9560;-5.6814;9.4930;-0.0200;-0.0264;-0.0184
0001172170;4.9440;-5.5450;9.4451;-0.0175;-0.0233;-0.0127
0001172182;4.9105;-5.5952;9.5433;-0.0144;-0.0265;-0.0165
0001172190;4.8698;-5.7030;9.3829;-0.0197;-0.0314;-0.0141
0001172201;4.9321;-5.7054;9.4188;-0.0160;-0.0353;-0.0137
0001172209;5.0015;-5.6671;9.4020;-0.0171;-0.0245;-0.0139
0001172221;5.0901;-5.6599;9.4643;-0.0071;-0.0245;-0.0236
0001172229;4.7788;-5.8371;9.4427;-0.0043;-0.0221;-0.0238
0001172240;4.9416;-5.5545;9.3302;0.0045;-0.0147;-0.0179
0001172248;4.8746;-5.6695;9.4930;0.0045;-0.0115;-0.0252
0001172256;4.9321;-5.5952;9.4260;0.0016;-0.0115;-0.0193
0001172325;4.7932;-5.7485;9.4284;-0.0111;-0.0421;0.0021
0001172332;4.9249;-5.5498;9.4068;-0.0137;-0.0392;0.0039
0001172343;4.9632;-5.6000;9.4188;-0.0081;-0.0444;-0.0077
