time;acc_x;acc_y;acc_z;gyro_x;gyro_y;gyro_z
0000061512;6.0023;-15.9238;1.7310;-0.0608;0.0176;-0.0036
0000061520;5.7269;-16.1441;1.7861;-0.0650;0.0242;0.0036
0000061527;5.9256;-16.0795;1.7621;-0.0681;0.0236;0.0052
0000061535;5.9711;-16.0388;1.7813;-0.0576;0.0192;0.0032
0000061544;5.9520;-16.1920;1.7789;-0.0565;0.0260;0.0084
0000061552;5.7772;-16.2830;1.8172;-0.0585;0.0300;0.0103
0000061564;5.8993;-16.2375;1.8364;-0.0506;0.0237;0.0043
0000061572;6.0430;-15.9286;1.9010;-0.0532;0.0330;0.0083
0000061580;6.0430;-16.0100;1.8435;-0.0526;0.0276;0.0019
0000061591;5.9424;-16.0052;1.8938;-0.0528;0.0288;0.0077
0000061599;5.8514;-16.0507;1.8555;-0.0494;0.0250;0.0015
0000061611;5.7197;-16.1130;1.9632;-0.0506;0.0220;0.0013
0000061619;5.7604;-16.0986;1.9130;-0.0450;0.0184;-0.0023
0000061630;5.8395;-16.0914;1.9201;-0.0486;0.0123;-0.0007
0000061638;5.8323;-16.0268;1.8052;-0.0529;0.0117;0.0040
0000061650;5.9280;-16.0842;1.8555;-0.0460;0.0063;-0.0088
0000061658;5.8802;-16.2135;1.8818;-0.0377;0.0017;-0.0103
0000061666;5.7820;-16.2997;1.9537;-0.0354;-0.0016;-0.0096
0000061733;6.0047;-15.9981;1.7717;-0.0024;0.0027;-0.0049
0000061741;5.8873;-16.1417;1.7142;-0.0055;0.0104;-0.0063
0000061753;5.9783;-15.9502;1.7741;-0.0027;0.0052;-0.0104
0000061761;5.9209;-16.0196;1.8435;-0.0068;0.0068;-0.0049
0000061772;5.8778;-16.0172;1.8435;-0.0016;0.0037;-0.0125
0000061780;5.8945;-16.0866;1.7933;-0.0023;0.0048;-0.0163
0000061792;5.7509;-16.1633;1.8794;0.0047;-0.0072;-0.0199
0000061800;5.7988;-16.0866;1.8268;0.0051;-0.0069;-0.0176
0000061811;5.7030;-16.0603;1.8818;0.0149;-0.0163;-0.0261
0000061819;5.8012;-16.1034;1.9106;0.0176;-0.0278;-0.0286
0000061827;5.6575;-16.1561;1.9178;0.0201;-0.0289;-0.0244
0000061839;5.7700;-16.0723;1.8627;0.0184;-0.0333;-0.0180
0000061847;5.7892;-16.1393;1.8507;0.0160;-0.0328;-0.0148
0000061858;5.8610;-15.9741;1.8004;0.0155;-0.0377;-0.0189
0000061866;5.8107;-16.1249;1.8603;0.0168;-0.0434;-0.0177
0000061878;5.9520;-16.0100;1.8220;0.0087;-0.0365;-0.0101
0000061886;5.8969;-16.2016;1.8220;0.0155;-0.0354;-0.0129
0000061897;5.8921;-16.1968;1.8172;0.0132;-0.0285;-0.0063
0000061905;5.8921;-16.2255;1.8914;0.0192;-0.0334;-0.0092
0000061917;5.9017;-16.1609;1.9034;0.0293;-0.0384;-0.0097
0000061925;5.8873;-16.2375;1.7526;0.0272;-0.0321;-0.0087
0000061933;5.6336;-16.2159;1.8028;0.0369;-0.0328;-0.0109
0000062000;5.8706;-16.1297;1.7549;0.0485;-0.0245;-0.0308
0000062008;5.9185;-16.1249;1.8100;0.0550;-0.0238;-0.0318
0000062020;5.9568;-16.1968;1.7837;0.0580;-0.0172;-0.0334
0000062028;6.0166;-15.9909;1.6951;0.0648;-0.0197;-0.0370
0000062039;5.9376;-16.0340;1.8100;0.0648;-0.0089;-0.0400
0000062047;5.8778;-16.1010;1.7621;0.0702;-0.0103;-0.0344
0000062059;5.8562;-16.0579;1.7789;0.0762;-0.0083;-0.0369
0000062067;6.0023;-15.8544;1.6352;0.0681;-0.0081;-0.0380
0000062078;5.6647;-16.1106;1.7454;0.0710;-0.0103;-0.0437
0000062086;5.9831;-15.8496;1.8196;0.0601;-0.0107;-0.0401
0000062094;6.0166;-15.9741;1.7478;0.0580;-0.0093;-0.0429
0000062106;5.8227;-16.1178;1.8100;0.0502;-0.0051;-0.0442
0000062114;5.7916;-16.0842;1.8507;0.0436;-0.0115;-0.0458
0000062125;6.0094;-15.8544;1.7621;0.0358;-0.0107;-0.0429
0000062133;5.8155;-16.0507;1.8603;0.0306;-0.0177;-0.0410
0000062145;5.7581;-16.0388;1.8699;0.0264;-0.0262;-0.0414
0000062153;5.6767;-16.1944;1.7526;0.0200;-0.0324;-0.0357
0000062164;5.7772;-16.0723;1.8627;0.0165;-0.0317;-0.0237
0000062172;5.7676;-16.0005;1.7382;0.0280;-0.0440;-0.0272
0000062184;5.8490;-15.9478;1.8100;0.0294;-0.0410;-0.0155
0000062192;5.6575;-16.2614;1.7980;0.0281;-0.0460;-0.0116
0000062200;5.8203;-16.1633;1.9010;0.0325;-0.0494;-0.0147
0000062267;5.8179;-16.0986;1.8603;0.0298;-0.0766;0.0001
0000062275;5.8873;-15.8999;1.8627;0.0276;-0.0815;-0.0055
0000062287;5.7916;-16.1010;1.8172;0.0246;-0.0853;-0.0037
0000062295;5.8754;-16.0555;1.8052;0.0224;-0.0893;-0.0001
0000062306;5.8873;-15.9837;1.8914;0.0203;-0.0889;0.0019
0000062314;5.8849;-16.0148;1.9082;0.0143;-0.0805;0.0045
0000062326;5.9831;-15.8760;1.8794;0.0104;-0.0886;0.0052
0000062334;5.8682;-16.0771;1.9249;0.0044;-0.0877;0.0039
0000062342;5.9520;-15.9334;1.7813;0.0033;-0.0897;-0.0007
0000062353;6.0501;-15.9190;1.8842;-0.0041;-0.0923;-0.0049
0000062361;5.9424;-16.1010;1.8244;-0.0067;-0.0938;-0.0016
0000062373;5.9376;-16.1082;1.8435;-0.0133;-0.0894;-0.0053
0000062381;5.8347;-16.2327;1.9489;-0.0119;-0.0882;-0.0088
0000062392;5.8897;-16.1058;1.8747;-0.0132;-0.0842;-0.0091
0000062400;5.8993;-16.1226;1.9872;-0.0089;-0.0829;-0.0132
0000062412;6.0932;-16.1297;1.9010;0.0007;-0.0865;-0.0128
0000062420;5.9831;-16.1585;1.9130;-0.0003;-0.0875;-0.0159
0000062431;6.0238;-16.1226;1.9106;0.0052;-0.0873;-0.0155
0000062439;5.7174;-16.2566;1.9537;0.0031;-0.0835;-0.0117
0000062447;5.8490;-16.0364;1.9968;0.0032;-0.0842;-0.0196
0000062459;5.8754;-16.0986;1.9752;-0.0027;-0.0794;-0.0119
0000062467;5.8155;-16.0723;1.8890;-0.0051;-0.0817;-0.0143
0000062534;5.8802;-16.1489;1.9321;-0.0079;-0.0652;-0.0061
0000062542;6.0980;-16.1752;1.9896;-0.0040;-0.0650;-0.0076
0000062554;6.0789;-16.0388;1.9752;-0.0028;-0.0588;-0.0111
0000062562;6.1076;-15.9502;1.9297;-0.0019;-0.0553;-0.0131
0000062573;5.9927;-16.1010;1.9561;-0.0037;-0.0477;-0.0215
0000062581;6.1723;-16.0124;2.0375;-0.0055;-0.0400;-0.0238
0000062593;6.1411;-15.8616;1.9680;-0.0187;-0.0280;-0.0236
0000062601;6.2632;-15.7467;1.9297;-0.0258;-0.0264;-0.0260
0000062612;6.0118;-15.8975;1.9321;-0.0341;-0.0215;-0.0258
0000062620;6.0382;-15.8352;2.0183;-0.0318;-0.0248;-0.0301
0000062628;6.1914;-15.8329;1.9656;-0.0377;-0.0176;-0.0262
0000062640;5.8849;-16.0148;2.0183;-0.0364;-0.0211;-0.0308
0000062648;5.9472;-16.1441;2.0327;-0.0365;-0.0181;-0.0217
0000062659;6.0717;-16.0842;2.0997;-0.0270;-0.0201;-0.0232
0000062667;6.0454;-16.0723;2.0423;-0.0208;-0.0143;-0.0254
0000062679;5.9256;-16.2566;2.0662;-0.0133;-0.0127;-0.0220
0000062687;6.0214;-16.1752;2.0662;-0.0084;-0.0057;-0.0156
0000062698;5.9209;-16.1944;2.0016;-0.0009;-0.0085;-0.0201
0000062706;5.9304;-16.1776;1.9920;0.0003;-0.0052;-0.0191
0000062718;5.8155;-16.1297;2.0399;0.0011;-0.0076;-0.0171
0000062726;5.9209;-16.1609;2.0423;0.0065;-0.0131;-0.0252
0000062793;5.8299;-15.8831;2.0494;0.0100;-0.0200;-0.0238
0000062801;5.8586;-16.0675;2.1620;0.0012;-0.0124;-0.0244
0000062809;5.8921;-16.0244;2.0255;0.0033;-0.0160;-0.0280
0000062821;5.9855;-16.0100;2.1213;-0.0033;-0.0175;-0.0236
0000062829;6.0549;-16.0412;2.1045;-0.0011;-0.0143;-0.0173
0000062840;5.7844;-16.1968;2.1189;-0.0005;-0.0172;-0.0085
0000062848;5.9352;-15.9933;2.1117;0.0039;-0.0188;-0.0116
0000062860;5.9280;-16.0148;2.1404;0.0099;-0.0152;-0.0131
0000062868;5.9472;-16.0986;2.1644;0.0179;-0.0258;-0.0163
0000062880;5.9783;-16.0316;2.1332;0.0125;-0.0205;-0.0168
0000062888;6.0118;-15.9909;2.1835;0.0242;-0.0253;-0.0250
0000062899;6.0023;-15.9693;2.0111;0.0111;-0.0171;-0.0196
0000062907;6.0190;-15.8640;2.0590;0.0135;-0.0191;-0.0195
0000062915;5.8131;-15.9717;2.1021;0.0100;-0.0176;-0.0193
0000062927;5.8131;-15.9669;2.2027;0.0044;-0.0215;-0.0207
0000062935;5.9089;-15.9454;2.1763;-0.0021;-0.0191;-0.0149
0000062946;5.8514;-15.9765;2.0327;-0.0040;-0.0215;-0.0161
0000062954;5.8131;-15.9047;2.1476;-0.0057;-0.0296;-0.0183
0000062966;5.7150;-16.0124;2.1739;-0.0168;-0.0278;-0.0123
0000062974;5.8466;-16.0124;2.1955;-0.0105;-0.0334;-0.0176
0000063038;5.9376;-16.2159;2.1141;-0.0060;-0.0272;-0.0205
0000063046;5.8562;-16.1776;2.0782;-0.0084;-0.0248;-0.0236
0000063058;5.9855;-16.0459;2.1596;-0.0048;-0.0268;-0.0213
0000063066;5.8706;-15.9597;2.0159;-0.0067;-0.0304;-0.0229
0000063074;5.9759;-15.8736;2.1452;-0.0059;-0.0322;-0.0229
0000063085;6.0023;-15.9957;2.0877;-0.0120;-0.0324;-0.0208
0000063093;5.9855;-15.9119;2.0782;-0.0156;-0.0326;-0.0238
0000063105;5.8227;-15.9358;2.0446;-0.0181;-0.0354;-0.0245
0000063113;5.9041;-16.0124;2.0231;-0.0221;-0.0285;-0.0226
0000063124;5.9927;-15.9597;2.0782;-0.0238;-0.0296;-0.0216
0000063132;6.0214;-16.0771;2.1093;-0.0242;-0.0338;-0.0278
0000063144;5.9256;-16.1226;2.0710;-0.0230;-0.0330;-0.0252
0000063152;6.0358;-16.1369;2.0614;-0.0163;-0.0324;-0.0226
0000063163;5.8323;-16.1489;1.9704;-0.0132;-0.0261;-0.0272
0000063171;5.9568;-16.1345;2.0806;-0.0047;-0.0265;-0.0253
0000063183;5.8012;-16.1417;2.0638;-0.0065;-0.0244;-0.0285
0000063191;6.0286;-16.0268;2.0662;-0.0033;-0.0264;-0.0318
0000063199;5.8203;-15.9502;2.0087;-0.0076;-0.0203;-0.0270
0000063210;5.8993;-16.0220;2.1524;-0.0048;-0.0245;-0.0309
0000063218;5.8754;-15.9981;2.0303;-0.0135;-0.0220;-0.0262
0000063230;5.9879;-15.8329;2.0399;-0.0193;-0.0199;-0.0232
0000063238;5.8035;-16.0316;2.0375;-0.0175;-0.0257;-0.0312
0000063301;5.7676;-16.2614;1.9537;-0.0071;-0.0238;-0.0204
0000063309;6.0023;-16.2327;2.0423;-0.0037;-0.0211;-0.0177
0000063321;5.8826;-16.1848;2.0806;0.0041;-0.0184;-0.0165
0000063329;5.9161;-16.1776;2.0901;0.0131;-0.0222;-0.0203
0000063340;5.9664;-16.1130;2.0159;0.0188;-0.0225;-0.0218
0000063348;5.8730;-16.0747;2.0111;0.0173;-0.0203;-0.0216
0000063360;5.8778;-16.0675;2.0159;0.0164;-0.0250;-0.0284
0000063368;6.1866;-15.9645;2.0279;0.0199;-0.0225;-0.0282
0000063376;5.9496;-15.9334;1.9872;0.0132;-0.0215;-0.0257
0000063387;5.7413;-16.0842;1.9441;0.0128;-0.0224;-0.0298
0000063395;5.9089;-15.9526;2.1021;0.0159;-0.0233;-0.0293
0000063407;5.9137;-15.9454;2.1428;0.0176;-0.0314;-0.0314
0000063415;6.0358;-15.9454;2.0566;0.0155;-0.0285;-0.0284
0000063426;5.9664;-16.0627;2.0853;0.0119;-0.0224;-0.0266
0000063434;6.0525;-15.9454;2.1141;0.0151;-0.0270;-0.0281
0000063446;5.9831;-15.9143;2.0470;0.0083;-0.0226;-0.0216
0000063454;6.0047;-15.9310;2.0662;0.0073;-0.0184;-0.0193
0000063465;6.0406;-15.9837;2.1500;0.0133;-0.0262;-0.0224
0000063473;5.7988;-16.1130;2.0734;0.0087;-0.0192;-0.0175
0000063481;5.8802;-16.0340;2.0375;0.0049;-0.0207;-0.0152
0000063493;5.9831;-16.0100;2.0758;0.0028;-0.0213;-0.0159
0000063501;5.9568;-15.9981;2.0207;-0.0016;-0.0177;-0.0192
0000063564;6.1124;-15.9837;2.0183;0.0069;-0.0266;-0.0164
0000063572;5.9616;-16.1058;2.0375;0.0109;-0.0282;-0.0209
0000063584;6.2249;-15.7898;2.0279;0.0104;-0.0249;-0.0252
0000063592;6.1076;-15.8951;2.1189;0.0005;-0.0155;-0.0196
0000063603;5.9328;-16.0340;2.1141;0.0007;-0.0189;-0.0230
0000063611;6.0501;-15.9597;1.9872;-0.0084;-0.0221;-0.0205
0000063623;5.8873;-15.9861;2.0853;-0.0091;-0.0221;-0.0221
0000063631;5.9352;-15.9693;2.1476;-0.0015;-0.0211;-0.0253
0000063639;6.0406;-15.9526;2.0853;-0.0071;-0.0209;-0.0167
0000063650;6.1818;-15.8305;2.0087;-0.0061;-0.0237;-0.0124
0000063658;6.0908;-16.0531;2.0949;-0.0107;-0.0184;-0.0071
0000063670;5.9400;-16.0914;2.1811;-0.0047;-0.0183;-0.0073
0000063678;6.0118;-16.0124;2.0662;-0.0049;-0.0177;-0.0108
0000063689;5.9280;-16.0914;2.1093;0.0037;-0.0217;-0.0097
0000063697;6.0980;-16.0076;2.0303;0.0039;-0.0261;-0.0153
0000063709;5.9735;-15.9023;2.1069;0.0135;-0.0265;-0.0156
0000063717;5.9328;-15.9047;2.1524;0.0064;-0.0254;-0.0121
0000063728;5.8873;-15.9478;2.0590;0.0072;-0.0293;-0.0092
0000063736;5.8538;-15.9933;2.0782;-0.0013;-0.0244;-0.0072
0000063744;6.0789;-15.7826;2.0542;-0.0077;-0.0254;-0.0039
0000063756;5.9664;-16.0459;2.0877;-0.0136;-0.0282;-0.0029
0000063764;6.0478;-15.9933;2.1069;-0.0137;-0.0284;-0.0057
0000063827;5.8586;-16.0292;2.1356;-0.0135;-0.0405;-0.0052
0000063835;5.8107;-16.1058;2.1308;-0.0169;-0.0409;-0.0016
0000063847;5.9759;-15.9957;2.1548;-0.0113;-0.0440;-0.0045
0000063855;5.8993;-15.9406;2.0830;-0.0057;-0.0542;-0.0048
0000063866;5.8251;-16.0028;2.1691;-0.0060;-0.0497;-0.0047
0000063874;5.8993;-16.0627;2.1907;-0.0117;-0.0493;0.0001
0000063886;5.8969;-16.0028;2.0758;-0.0112;-0.0454;-0.0005
0000063894;6.1220;-15.9238;2.1620;-0.0112;-0.0497;-0.0052
0000063905;6.1004;-15.8161;2.1955;-0.0127;-0.0450;-0.0024
0000063913;5.9975;-15.9861;2.1907;-0.0180;-0.0453;-0.0025
0000063921;5.9065;-16.0459;2.1811;-0.0135;-0.0481;-0.0001
0000063933;5.9233;-15.9310;2.1931;-0.0152;-0.0505;0.0023
0000063941;5.7748;-16.0747;2.1213;-0.0149;-0.0497;0.0095
0000063952;5.9209;-16.0364;2.1931;-0.0159;-0.0533;0.0092
0000063960;5.8730;-15.9262;2.2673;-0.0181;-0.0522;0.0096
0000063972;5.8538;-15.9214;2.2338;-0.0181;-0.0516;0.0159
0000063980;5.9448;-16.0340;2.2003;-0.0245;-0.0480;0.0113
0000063991;5.9065;-16.0699;2.2601;-0.0228;-0.0489;0.0084
0000063999;6.0382;-15.8712;2.2170;-0.0285;-0.0470;0.0107
0000064011;5.9520;-15.9957;2.1117;-0.0296;-0.0486;0.0061
0000064019;6.0023;-15.9909;2.1931;-0.0240;-0.0546;0.0047
0000064027;5.9328;-16.0938;2.0518;-0.0237;-0.0545;0.0085
0000064090;5.7700;-16.1058;2.1213;0.0181;-0.0849;-0.0053
0000064098;5.9041;-15.9406;2.1859;0.0176;-0.0817;-0.0037
0000064110;5.8490;-16.0028;2.2194;0.0131;-0.0810;-0.0092
0000064118;6.0094;-15.9262;2.1620;0.0049;-0.0735;-0.0011
0000064129;5.8634;-16.0795;2.2386;0.0084;-0.0741;-0.0056
0000064137;5.9544;-15.8783;2.1524;0.0027;-0.0753;-0.0045
0000064149;6.0813;-15.8496;2.0734;0.0053;-0.0721;-0.0089
0000064157;6.0286;-15.8281;2.1572;0.0037;-0.0721;-0.0143
0000064168;5.9376;-15.8927;2.1955;-0.0036;-0.0644;-0.0065
0000064176;5.9831;-15.8376;2.2242;-0.0017;-0.0699;-0.0100
0000064184;5.9352;-15.9382;2.2122;0.0015;-0.0699;-0.0080
0000064196;5.8634;-15.9621;2.2027;-0.0032;-0.0757;-0.0093
0000064204;5.8442;-15.9334;2.1668;-0.0091;-0.0697;0.0005
0000064216;5.7604;-16.0914;2.1237;-0.0151;-0.0641;-0.0021
0000064224;5.7700;-16.1417;2.2553;-0.0104;-0.0694;-0.0064
0000064235;5.7820;-16.1609;2.1691;-0.0105;-0.0646;-0.0009
0000064243;5.7269;-16.1226;2.1763;-0.0071;-0.0699;-0.0029
0000064255;6.0549;-16.0196;2.2122;-0.0044;-0.0730;-0.0099
0000064263;6.0406;-15.9574;2.1955;-0.0011;-0.0699;-0.0063
0000064275;5.9352;-15.9119;2.2051;-0.0057;-0.0556;-0.0015
0000064283;5.8419;-15.9526;2.0949;0.0023;-0.0617;-0.0079
0000064291;5.8993;-16.0435;2.1691;-0.0027;-0.0574;-0.0051
0000064357;5.9640;-15.9310;2.2338;-0.0001;-0.0516;-0.0037
0000064365;5.8179;-16.0052;2.2338;-0.0015;-0.0529;-0.0025
0000064376;5.9328;-15.8999;2.2793;-0.0015;-0.0510;-0.0047
0000064384;5.9400;-15.9454;2.1979;-0.0024;-0.0465;-0.0095
0000064396;5.8969;-15.9143;2.2242;-0.0036;-0.0437;-0.0061
0000064404;5.9376;-16.0292;2.2673;-0.0107;-0.0433;-0.0079
0000064415;5.9759;-16.0196;2.1572;-0.0079;-0.0486;-0.0076
0000064423;5.9568;-15.9406;2.1979;-0.0109;-0.0472;-0.0108
0000064435;5.8802;-16.0699;2.1596;-0.0127;-0.0426;-0.0127
0000064443;6.0861;-16.0005;2.1500;-0.0037;-0.0480;-0.0191
0000064454;5.7628;-16.0531;2.1739;-0.0075;-0.0436;-0.0172
0000064462;6.0238;-15.9861;2.1691;-0.0051;-0.0444;-0.0188
0000064470;6.0118;-15.9645;2.2051;0.0025;-0.0456;-0.0191
0000064482;5.9137;-15.9454;2.2003;-0.0048;-0.0441;-0.0163
0000064490;5.8131;-15.9334;2.2170;-0.0049;-0.0464;-0.0161
0000064501;5.8490;-15.9550;2.1835;-0.0068;-0.0388;-0.0204
0000064509;5.8371;-16.0052;2.2505;-0.0115;-0.0385;-0.0165
0000064521;6.0693;-15.9143;2.2051;-0.0164;-0.0376;-0.0153
0000064529;5.8682;-16.1513;2.2290;-0.0087;-0.0380;-0.0188
0000064541;5.8969;-16.0196;2.2673;-0.0097;-0.0334;-0.0165
0000064549;5.9185;-16.0268;2.1739;-0.0123;-0.0318;-0.0147
0000064615;5.7126;-16.0842;2.2410;-0.0215;-0.0297;-0.0195
0000064623;5.7940;-15.9454;2.1739;-0.0168;-0.0270;-0.0215
0000064634;6.0382;-15.8616;2.1763;-0.0177;-0.0250;-0.0153
0000064642;6.0693;-15.8161;2.1859;-0.0189;-0.0284;-0.0184
0000064650;5.7868;-16.0244;2.1907;-0.0252;-0.0224;-0.0148
0000064662;5.9903;-15.8736;2.1284;-0.0294;-0.0195;-0.0092
0000064670;5.9400;-15.9478;2.1548;-0.0296;-0.0260;-0.0160
0000064681;5.9711;-16.0507;2.1715;-0.0316;-0.0218;-0.0072
0000064689;5.9376;-16.0196;2.2170;-0.0246;-0.0261;-0.0071
0000064701;5.8873;-16.0340;2.1117;-0.0288;-0.0252;-0.0113
0000064709;5.9304;-16.1249;2.0590;-0.0297;-0.0226;-0.0027
0000064720;5.9807;-16.0723;2.1691;-0.0209;-0.0205;-0.0069
0000064728;5.9137;-15.9693;2.1476;-0.0176;-0.0196;-0.0113
0000064740;5.8873;-16.1417;2.2290;-0.0163;-0.0185;-0.0105
0000064748;6.0861;-15.9119;2.0853;-0.0108;-0.0136;-0.0169
0000064759;5.9376;-15.9813;2.1572;-0.0071;-0.0145;-0.0209
0000064767;6.0478;-15.9143;2.2003;-0.0061;-0.0099;-0.0203
0000064775;5.9041;-15.9119;2.1979;-0.0116;-0.0056;-0.0161
0000064787;5.9831;-15.8329;2.1332;-0.0075;-0.0087;-0.0224
0000064795;6.0190;-15.9167;2.1356;-0.0092;-0.0028;-0.0152
0000064807;5.9065;-15.9047;2.0973;-0.0177;0.0091;-0.0124
0000064815;5.9927;-15.8329;2.0327;-0.0212;0.0080;-0.0075
0000064881;5.9975;-15.9526;2.0494;-0.0124;0.0035;-0.0019
0000064889;5.7748;-16.0747;2.0853;-0.0080;-0.0001;-0.0063
0000064900;5.7341;-16.1154;2.0231;-0.0001;-0.0072;-0.0073
0000064908;5.7437;-16.1249;2.0159;0.0116;-0.0184;-0.0127
0000064920;5.7221;-16.1609;1.9465;0.0163;-0.0232;-0.0096
0000064928;5.7102;-16.0028;2.0758;0.0237;-0.0288;-0.0083
0000064936;5.9280;-15.8903;1.9393;0.0208;-0.0264;0.0001
0000064947;5.9616;-15.9071;1.8938;0.0226;-0.0265;0.0084
0000064955;5.8275;-15.9143;1.9824;0.0298;-0.0277;0.0073
0000064967;5.8945;-16.0795;2.1093;0.0342;-0.0241;0.0071
0000064975;6.0238;-16.1441;2.0949;0.0434;-0.0348;-0.0004
0000064986;6.0071;-16.0196;2.0039;0.0401;-0.0250;0.0045
0000064994;5.6862;-16.1393;2.0111;0.0518;-0.0270;0.0071
0000065006;5.8586;-16.1297;2.1021;0.0577;-0.0346;-0.0008
0000065014;5.8371;-16.0100;2.1332;0.0608;-0.0296;0.0071
0000065022;5.6814;-16.2878;2.0806;0.0605;-0.0332;0.0109
0000065033;5.8730;-16.0914;2.0710;0.0596;-0.0294;0.0159
0000065041;5.8466;-15.9957;2.0853;0.0542;-0.0305;0.0140
0000065053;5.8586;-16.0148;2.1021;0.0480;-0.0370;0.0143
0000065061;5.8227;-16.0771;2.0423;0.0444;-0.0474;0.0140
0000065073;5.8826;-16.1441;2.0231;0.0485;-0.0673;0.0108
0000065081;5.7964;-16.4218;2.0901;0.0600;-0.0823;0.0052
0000065149;5.8131;-15.6844;1.7741;0.1434;-0.2434;-0.0145
0000065157;6.1914;-15.4474;1.5251;0.1227;-0.2290;0.0155
0000065168;6.3853;-15.2080;1.4293;0.1081;-0.2036;0.0437
0000065176;6.6535;-15.2008;1.2067;0.0845;-0.1679;0.0674
0000065184;6.7852;-15.1433;1.2306;0.0683;-0.1258;0.0902
0000065196;6.8881;-15.4857;1.2641;0.0598;-0.0654;0.1062
0000065204;6.8307;-15.5695;1.4485;0.0648;-0.0238;0.1120
0000065215;6.5553;-16.0459;1.6544;0.0835;0.0041;0.0981
0000065223;6.2920;-16.1273;1.6400;0.1035;0.0273;0.0901
0000065235;6.0406;-16.2590;1.7645;0.1278;0.0469;0.0878
0000065243;5.6575;-16.5511;1.7669;0.1454;0.0512;0.0814
0000065251;5.6599;-16.4338;1.8244;0.1657;0.0397;0.0742
0000065262;5.1834;-16.5176;1.8603;0.1775;0.0256;0.0767
0000065270;5.0302;-16.3644;1.8196;0.1860;0.0052;0.0755
0000065282;5.1906;-16.1202;1.8292;0.1949;-0.0344;0.0810
0000065290;4.9943;-16.3955;1.8076;0.2029;-0.0629;0.0802
0000065301;5.3989;-16.2375;1.8196;0.2266;-0.0991;0.0891
0000065309;5.4731;-16.1656;1.8364;0.2352;-0.1118;0.0942
0000065321;5.5138;-16.2854;1.9130;0.2543;-0.1276;0.1001
0000065329;5.9089;-16.0866;1.7980;0.2594;-0.1320;0.0993
0000065337;6.0094;-16.1321;1.8914;0.2589;-0.1358;0.1013
0000065349;6.2944;-15.8209;1.9824;0.2619;-0.1264;0.1037
0000065357;6.3853;-15.8712;1.8100;0.2519;-0.1110;0.1090
0000065425;5.3965;-15.4761;1.6568;0.2354;-0.1077;0.0600
0000065433;5.1930;-15.6317;1.5874;0.2421;-0.1370;0.0445
0000065444;5.1212;-15.5719;1.5802;0.2501;-0.1861;0.0306
0000065452;5.2385;-15.5360;1.5610;0.2621;-0.2252;0.0248
0000065464;5.1164;-15.6293;1.5874;0.2761;-0.2846;0.0301
0000065472;5.2098;-15.6461;1.6712;0.2773;-0.3176;0.0458
0000065480;5.3630;-15.5886;1.6305;0.2878;-0.3484;0.0542
0000065491;5.5689;-15.7706;1.7071;0.3015;-0.3797;0.0801
0000065499;5.6647;-15.8281;1.7454;0.3111;-0.4002;0.0954
0000065511;5.8610;-15.8975;1.9297;0.3405;-0.4263;0.1081
0000065519;5.8897;-15.9717;2.0399;0.3532;-0.4357;0.1230
0000065531;5.9185;-15.7227;2.1428;0.3885;-0.4627;0.1332
0000065539;5.9783;-15.4570;2.0614;0.4187;-0.4738;0.1424
0000065551;5.8706;-15.1505;2.0853;0.4529;-0.4840;0.1752
0000065559;5.8658;-15.1457;2.0925;0.4848;-0.4810;0.2094
0000065567;5.6216;-15.1792;2.2960;0.5281;-0.4784;0.2438
0000065579;6.0262;-15.0356;2.4876;0.6286;-0.4525;0.3002
0000065587;6.0334;-15.3636;2.6695;0.7341;-0.4345;0.3235
0000065598;6.3614;-15.5456;2.6935;0.9038;-0.3946;0.3505
0000065606;6.6272;-15.3899;2.5283;1.0481;-0.3844;0.3444
0000065618;6.9264;-14.6142;2.1021;1.2497;-0.3857;0.2900
0000065626;6.7157;-14.0827;1.9489;1.3745;-0.3806;0.2280
0000065694;6.5314;-7.2137;2.8108;2.1626;-0.2145;0.1661
0000065702;7.0102;-6.3877;2.0494;1.9613;-0.1522;0.1799
0000065710;7.6303;-6.0190;1.7621;1.7211;-0.0766;0.2030
0000065722;7.6567;-7.2113;2.0470;1.4949;0.0496;0.2674
0000065730;7.2137;-8.6024;2.4876;1.3937;0.1403;0.3367
0000065742;6.7828;-10.7380;3.1747;1.1922;0.2384;0.4391
0000065750;6.6343;-12.1913;3.6272;1.0335;0.3019;0.4920
0000065762;6.3446;-14.6334;3.8954;0.8254;0.3360;0.5025
0000065770;6.0549;-16.5391;3.8188;0.7689;0.3295;0.4395
0000065782;5.8419;-18.4784;3.5195;0.7586;0.3016;0.2641
0000065790;5.9975;-19.1057;3.1819;0.8119;0.2860;0.1268
0000065798;5.9041;-19.0698;3.0023;0.9093;0.2683;-0.0187
0000065810;5.6144;-17.6884;2.8515;1.0768;0.2381;-0.1809
0000065818;5.2888;-16.3787;2.6528;1.1447;0.1847;-0.2423
0000065829;5.0877;-14.5448;2.4277;1.1029;0.1051;-0.2959
0000065837;5.0039;-13.3094;2.6073;0.9938;0.0474;-0.3163
0000065849;4.9775;-11.9016;2.7940;0.7593;-0.0609;-0.3184
0000065857;5.2960;-11.1187;2.6815;0.5614;-0.1292;-0.3167
0000065869;5.8083;-10.1993;2.5714;0.2470;-0.2058;-0.2952
0000065877;6.2728;-9.8019;2.5570;0.0826;-0.2368;-0.2739
0000065885;6.5529;-9.7420;2.6073;-0.0469;-0.2502;-0.2360
0000065897;6.7636;-9.8809;2.8635;-0.1390;-0.2125;-0.1771
0000065905;6.8474;-9.6391;3.0837;-0.1707;-0.1635;-0.1262
0000065972;7.0916;-8.9974;1.1205;-0.6045;0.6360;-0.1691
0000065980;7.4460;-9.1794;-0.9457;-0.8707;0.6518;-0.2463
0000065992;8.5808;-9.9120;0.7829;-0.8707;0.6500;-0.3507
0000066000;9.9264;-11.3126;8.8777;-0.0910;0.6130;-0.4226
0000066012;9.4116;-18.9094;35.6928;2.6653;0.5181;-0.3685
0000066020;0.3160;-35.9705;45.3701;4.2026;0.0576;-0.2562
0000066028;-29.4726;-44.4292;38.5443;2.7612;0.6651;0.5056
0000066040;-25.5150;-26.4894;17.8895;2.9841;-0.4076;1.1215
0000066048;-21.2533;-17.8129;14.6789;4.0653;-1.2259;1.6359
0000066060;3.6966;-10.0006;15.7275;3.6231;-1.3943;2.6095
0000066068;11.2791;-8.2815;12.7635;2.6220;-1.3167;2.6047
0000066080;17.8009;-10.8840;5.3702;1.6883;-1.5418;1.9065
0000066088;19.4577;-14.0540;3.7757;1.5426;-1.5865;1.3394
0000066100;15.2056;-20.5494;7.7069;1.7604;-1.1163;0.8629
0000066108;8.8585;-26.4009;11.3485;2.2002;-0.5935;0.6932
0000066120;0.3903;-31.0672;14.9685;3.5312;0.0777;0.5804
0000066128;-2.0016;-30.8804;17.2239;4.3656;0.2253;0.5810
0000066139;-0.4621;-25.7329;16.4913;4.3656;0.0092;0.6324
0000066147;2.5618;-21.4808;13.6254;4.3656;-0.2773;0.6303
0000066155;5.6527;-18.1457;11.4778;4.3656;-0.4660;0.5299
0000066167;5.8897;-15.8855;8.0828;4.3656;-0.6255;0.3639
0000066175;4.4891;-14.4586;6.9815;4.3656;-0.6626;0.4555
0000066242;9.1794;-3.9002;6.6798;3.6279;-0.6214;0.5828
0000066250;8.2097;-2.7270;7.2784;3.4933;-0.5363;0.6222
0000066262;6.5601;-0.8164;7.5202;3.2005;-0.4648;0.5833
0000066270;5.4731;1.2067;7.7141;3.0454;-0.4963;0.5373
0000066281;3.8427;2.7222;7.0246;2.6970;-0.5790;0.3493
0000066289;3.1005;3.9217;6.8690;2.4377;-0.6755;0.2110
0000066297;2.5235;4.1946;6.4715;2.1510;-0.7913;0.0719
0000066309;2.2769;4.2210;5.6934;1.7649;-1.0102;-0.0080
0000066317;3.3806;4.4293;5.4636;1.5422;-1.1295;-0.0741
0000066329;6.0430;4.4101;5.7988;1.2199;-1.2241;-0.2490
0000066337;7.0988;4.6759;5.8395;0.9794;-1.2083;-0.2809
0000066349;9.4739;4.0654;5.9496;0.5704;-1.0281;-0.2326
0000066357;10.7284;3.4907;5.7700;0.3315;-0.8420;-0.1796
0000066365;11.6095;2.8276;5.8395;0.1098;-0.6045;-0.0774
0000066376;11.8920;2.1404;5.8826;-0.1676;-0.2798;0.0346
0000066384;11.9926;2.1572;6.0071;-0.3949;-0.0592;0.0809
0000066396;11.2719;1.3743;6.0789;-0.6843;0.1913;0.0667
0000066404;10.7524;0.9313;6.4093;-0.8268;0.3267;0.0298
0000066416;9.2751;-0.1724;6.9168;-0.9990;0.4533;-0.0650
0000066424;8.4779;-1.0822;6.7181;-1.0848;0.5025;-0.1607
0000066436;7.4508;-2.3296;7.2880;-1.1896;0.5259;-0.2779
0000066444;6.5697;-3.5793;7.7955;-1.2442;0.5157;-0.3277
0000066452;6.3614;-4.6735;8.4635;-1.2646;0.5192;-0.3513
0000066521;5.6910;-7.2449;10.6422;-0.2862;0.0229;-0.2487
0000066530;5.7245;-7.0605;10.1586;-0.1944;0.0068;-0.2265
0000066543;6.4715;-6.6535;9.8330;-0.0791;-0.0091;-0.2165
0000066552;6.4212;-6.7157;9.7420;0.0043;-0.0048;-0.2168
0000066565;6.5553;-6.6008;9.6606;0.1251;0.0478;-0.1994
0000066574;6.3303;-6.0214;9.5481;0.1523;0.0342;-0.2196
0000066587;6.2991;-5.4253;9.1291;0.2033;0.0341;-0.2046
0000066596;6.1220;-4.9728;9.0549;0.2049;0.0384;-0.1960
0000066605;5.8682;-4.4772;8.9328;0.1709;0.0473;-0.1740
0000066618;5.8035;-4.1755;8.6814;0.1025;0.0517;-0.1520
0000066627;5.8538;-3.9624;8.8298;0.0265;0.0588;-0.1311
0000066640;5.8347;-3.7757;8.9519;-0.1162;0.0544;-0.1147
0000066649;5.7796;-3.9073;8.9950;-0.2136;0.0689;-0.1178
0000066662;5.9687;-4.4269;9.3446;-0.3408;0.0762;-0.1098
0000066671;5.9711;-4.9344;9.6103;-0.4034;0.0978;-0.0963
0000066684;5.9927;-5.5713;9.9072;-0.4361;0.1403;-0.0683
0000066693;6.2082;-5.6790;9.9383;-0.4321;0.1628;-0.0517
0000066702;5.9328;-5.9400;10.0389;-0.3974;0.2002;-0.0364
0000066714;5.7245;-6.3805;10.3621;-0.3685;0.2281;-0.0147
0000066723;5.6551;-6.5793;10.4651;-0.3130;0.2450;-0.0073
0000066736;5.4803;-6.5314;10.4483;-0.2330;0.2639;-0.0033
0000066745;5.3606;-6.2345;10.2855;-0.1745;0.2721;0.0045
0000066814;4.6567;-5.3510;9.5241;-0.0075;0.2321;0.0514
0000066823;4.5394;-5.5689;9.4978;-0.0089;0.2005;0.0581
0000066836;4.5825;-5.3870;9.3182;-0.0221;0.1759;0.0818
0000066845;4.8339;-5.2170;9.1530;-0.0301;0.1527;0.0870
0000066854;4.8076;-5.2888;9.2249;-0.0421;0.1506;0.1021
0000066867;5.0350;-4.9057;9.0309;-0.0701;0.1427;0.1088
0000066876;4.6495;-5.1763;9.1267;-0.0866;0.1358;0.1033
0000066889;4.6855;-5.2098;9.1291;-0.1077;0.1259;0.0979
0000066898;4.6759;-5.2720;9.2584;-0.1126;0.1067;0.0783
0000066911;4.9344;-5.2289;9.3230;-0.1243;0.0858;0.0634
0000066920;4.8147;-5.4923;9.3470;-0.1266;0.0734;0.0454
0000066929;4.7692;-5.5282;9.4116;-0.1162;0.0636;0.0378
0000066942;4.8171;-5.5043;9.5002;-0.1079;0.0473;0.0184
0000066951;4.9608;-5.3989;9.5768;-0.0983;0.0438;0.0143
0000066967;4.6471;-5.7078;9.6941;-0.0758;0.0277;0.0044
0000066976;4.7501;-5.5857;9.6486;-0.0649;0.0176;0.0084
0000066989;4.6807;-5.6407;9.5984;-0.0445;0.0063;0.0109
0000066998;4.6328;-5.5857;9.5816;-0.0330;-0.0053;0.0105
0000067067;5.1475;-5.2265;9.2440;-0.0302;-0.0807;-0.0007
0000067076;5.1427;-5.2313;9.3158;-0.0332;-0.0803;-0.0105
0000067085;5.1595;-5.2864;9.3134;-0.0446;-0.0790;-0.0125
0000067098;4.9799;-5.4612;9.3398;-0.0521;-0.0854;-0.0116
0000067107;5.0063;-5.4564;9.3733;-0.0584;-0.0901;-0.0205
0000067119;5.1427;-5.2385;9.4332;-0.0633;-0.0965;-0.0217
0000067128;5.0374;-5.4229;9.4643;-0.0686;-0.0978;-0.0242
0000067141;5.0877;-5.3870;9.4523;-0.0682;-0.1009;-0.0173
0000067150;5.0470;-5.5019;9.4308;-0.0714;-0.0959;-0.0207
0000067162;5.1260;-5.4899;9.4882;-0.0711;-0.0910;-0.0175
0000067171;5.1523;-5.5138;9.4715;-0.0773;-0.0895;-0.0145
0000067184;5.2098;-5.7030;9.5361;-0.0564;-0.0706;0.0047
0000067193;5.0949;-5.3798;9.4715;-0.0386;-0.0745;-0.0043
0000067202;5.2218;-5.3917;9.3853;-0.0642;-0.0735;-0.0027
0000067214;5.0853;-5.5019;9.4140;-0.0568;-0.0838;-0.0068
0000067223;5.1523;-5.5857;9.4739;-0.0504;-0.0905;-0.0004
0000067236;5.0901;-5.6767;9.4547;-0.0408;-0.0857;-0.0024
0000067245;5.2505;-5.3893;9.5193;-0.0438;-0.0846;-0.0031
0000067257;5.2481;-5.3079;9.4092;-0.0524;-0.0821;0.0029
0000067266;5.2840;-5.4013;9.4499;-0.0554;-0.0953;-0.0081
0000067279;5.2505;-5.3056;9.6127;-0.0605;-0.0985;-0.0039
0000067288;5.2720;-5.4444;9.5600;-0.0777;-0.0967;0.0020
0000067297;5.1212;-5.5952;9.4978;-0.0817;-0.1006;-0.0024
0000067366;5.3870;-5.6886;9.5146;-0.0729;-0.1248;-0.0378
0000067375;5.4564;-5.6024;9.5696;-0.0659;-0.1198;-0.0404
0000067388;5.4037;-5.6336;9.4858;-0.0577;-0.1119;-0.0418
0000067397;5.4803;-5.7293;9.5337;-0.0612;-0.0983;-0.0338
0000067409;5.6695;-5.5593;9.5696;-0.0594;-0.0953;-0.0321
0000067418;5.5354;-5.6048;9.5696;-0.0637;-0.0766;-0.0250
0000067431;5.4995;-5.7102;9.5265;-0.0673;-0.0648;-0.0161
0000067440;5.5354;-5.6192;9.3350;-0.0687;-0.0584;-0.0137
0000067452;5.4157;-5.7676;9.4427;-0.0641;-0.0458;-0.0120
0000067461;5.4899;-5.5976;9.4284;-0.0625;-0.0434;-0.0109
0000067470;5.6886;-5.4468;9.4523;-0.0629;-0.0345;-0.0117
0000067483;5.3223;-5.5737;9.5050;-0.0663;-0.0282;-0.0071
0000067492;5.5665;-5.5043;9.5170;-0.0745;-0.0184;-0.0073
0000067504;5.6407;-5.6000;9.5193;-0.0765;-0.0169;-0.0208
0000067513;5.4827;-5.5617;9.4260;-0.0811;-0.0127;-0.0180
0000067526;5.3989;-5.6360;9.5217;-0.0805;-0.0155;-0.0316
0000067535;5.2385;-5.6719;9.5481;-0.0829;-0.0125;-0.0304
0000067547;5.2218;-5.6862;9.4810;-0.0765;-0.0256;-0.0322
0000067556;5.2601;-5.7413;9.5217;-0.0715;-0.0329;-0.0258
0000067569;5.1284;-5.7628;9.4691;-0.0637;-0.0386;-0.0207
0000067578;5.2984;-5.6599;9.5170;-0.0538;-0.0442;-0.0144
0000067587;5.2122;-5.8371;9.5768;-0.0476;-0.0469;-0.0168
0000067655;5.3415;-5.8203;9.4930;-0.0512;-0.0492;-0.0185
0000067664;5.3343;-5.8658;9.3853;-0.0522;-0.0496;-0.0133
0000067677;5.3079;-5.8203;9.3996;-0.0458;-0.0504;-0.0041
0000067686;5.4324;-5.7892;9.4667;-0.0437;-0.0604;-0.0148
0000067698;5.4324;-5.6743;9.6079;-0.0514;-0.0465;-0.0104
0000067707;5.5258;-5.7221;9.6534;-0.0465;-0.0456;-0.0037
0000067720;5.6192;-5.6383;9.5289;-0.0472;-0.0418;-0.0095
0000067729;5.4061;-5.7700;9.4978;-0.0392;-0.0425;-0.0128
0000067741;5.5234;-5.7269;9.6582;-0.0406;-0.0381;-0.0187
0000067750;5.6743;-5.7006;9.5816;-0.0464;-0.0289;-0.0213
0000067759;5.3295;-5.9209;9.5217;-0.0417;-0.0333;-0.0309
0000067772;5.3271;-5.7150;9.5648;-0.0477;-0.0266;-0.0328
0000067781;5.3846;-5.8849;9.5696;-0.0482;-0.0325;-0.0352
0000067793;5.4516;-5.7509;9.5385;-0.0498;-0.0334;-0.0393
0000067802;5.3989;-5.7676;9.4379;-0.0553;-0.0288;-0.0298
0000067815;5.5115;-5.7174;9.4739;-0.0518;-0.0285;-0.0301
0000067824;5.3415;-5.7772;9.5026;-0.0497;-0.0350;-0.0394
0000067836;5.3008;-5.8395;9.4667;-0.0516;-0.0278;-0.0389
0000067845;5.3510;-5.8251;9.5505;-0.0529;-0.0316;-0.0366
0000067858;5.3534;-5.8012;9.4571;-0.0492;-0.0376;-0.0392
0000067867;5.3582;-5.7700;9.4715;-0.0608;-0.0284;-0.0378
0000067876;5.4277;-5.8107;9.4355;-0.0546;-0.0410;-0.0440
0000067944;5.3127;-5.8562;9.4523;-0.0468;-0.0385;-0.0416
0000067953;5.3534;-5.7604;9.4715;-0.0472;-0.0461;-0.0513
0000067966;5.3463;-5.7006;9.4810;-0.0501;-0.0444;-0.0608
0000067975;5.4468;-5.7150;9.5696;-0.0540;-0.0489;-0.0589
0000067987;5.3151;-5.7461;9.5337;-0.0544;-0.0549;-0.0642
0000067996;5.3558;-5.7772;9.5936;-0.0586;-0.0572;-0.0717
0000068009;5.3008;-5.7820;9.5864;-0.0528;-0.0561;-0.0667
0000068018;5.4157;-5.7964;9.5816;-0.0541;-0.0568;-0.0682
0000068030;5.2625;-5.8754;9.5600;-0.0496;-0.0482;-0.0638
0000068039;5.3846;-5.9185;9.5696;-0.0513;-0.0433;-0.0628
0000068048;5.3319;-6.0406;9.5289;-0.0473;-0.0441;-0.0685
0000068061;5.3965;-5.8083;9.5457;-0.0409;-0.0377;-0.0621
0000068070;5.1643;-5.9927;9.5816;-0.0410;-0.0365;-0.0584
0000068082;5.3558;-5.7964;9.5026;-0.0436;-0.0385;-0.0572
0000068091;5.3199;-5.9568;9.4188;-0.0489;-0.0281;-0.0548
0000068104;5.2505;-6.0118;9.4786;-0.0422;-0.0257;-0.0498
0000068113;5.2744;-6.0669;9.4260;-0.0384;-0.0245;-0.0446
0000068125;5.2840;-5.8442;9.4619;-0.0416;-0.0199;-0.0392
0000068134;5.3079;-6.0741;9.4930;-0.0389;-0.0240;-0.0408
0000068143;5.2218;-5.9975;9.4499;-0.0397;-0.0203;-0.0332
0000068156;5.3151;-5.7868;9.4954;-0.0449;-0.0159;-0.0268
0000068165;5.1930;-5.8921;9.5241;-0.0476;-0.0203;-0.0288
0000068232;5.1380;-6.0094;9.5313;-0.0412;-0.0276;-0.0139
0000068241;5.0350;-6.1723;9.6031;-0.0408;-0.0317;-0.0129
0000068254;5.2768;-5.9448;9.4739;-0.0385;-0.0310;-0.0087
0000068263;5.2577;-5.9640;9.5600;-0.0417;-0.0277;-0.0089
0000068275;5.2816;-5.8921;9.4643;-0.0458;-0.0293;-0.0096
0000068284;5.1571;-5.9496;9.4499;-0.0445;-0.0257;-0.0076
0000068297;5.2792;-5.8251;9.4332;-0.0436;-0.0306;-0.0107
0000068306;5.3486;-5.9089;9.4882;-0.0473;-0.0282;-0.0084
0000068315;4.9752;-5.9256;9.5624;-0.0429;-0.0370;-0.0115
0000068327;5.0039;-6.0094;9.5361;-0.0470;-0.0342;-0.0076
0000068336;5.1188;-5.9304;9.4332;-0.0458;-0.0378;-0.0105
0000068349;5.3127;-5.9616;9.5074;-0.0456;-0.0394;-0.0088
0000068358;5.3343;-5.9640;9.5313;-0.0477;-0.0410;-0.0049
0000068370;5.3726;-5.9017;9.5170;-0.0457;-0.0421;-0.0049
0000068379;5.2002;-6.1052;9.4571;-0.0392;-0.0437;-0.0056
0000068392;5.3391;-5.9472;9.6367;-0.0368;-0.0460;-0.0079
0000068401;5.1858;-5.9735;9.4547;-0.0425;-0.0392;-0.0024
0000068412;5.1260;-6.0094;9.5577;-0.0397;-0.0440;-0.0073
0000068421;5.2337;-5.9879;9.5768;-0.0390;-0.0496;-0.0140
0000068430;5.2648;-6.0094;9.5074;-0.0322;-0.0538;-0.0145
0000068444;5.3893;-5.9256;9.6367;-0.0270;-0.0494;-0.0092
0000068453;5.3056;-6.0382;9.5385;-0.0308;-0.0426;-0.0053
0000068520;5.1715;-5.9831;9.5888;-0.0191;-0.0446;-0.0096
0000068529;5.1787;-5.9544;9.5672;-0.0171;-0.0490;-0.0055
0000068541;5.2672;-6.0717;9.5002;-0.0216;-0.0540;-0.0133
0000068550;5.3582;-5.9233;9.4763;-0.0266;-0.0477;-0.0088
0000068563;5.3103;-5.9855;9.5098;-0.0345;-0.0504;-0.0079
0000068572;5.3032;-6.0741;9.4858;-0.0365;-0.0465;-0.0067
0000068584;5.3415;-6.1651;9.4786;-0.0354;-0.0478;-0.0069
0000068593;5.5713;-5.9544;9.6845;-0.0326;-0.0513;-0.0064
0000068602;5.2960;-6.2249;9.6606;-0.0320;-0.0500;-0.0147
0000068615;5.4085;-5.9472;9.5720;-0.0314;-0.0509;-0.0141
0000068624;5.4157;-5.9807;9.5696;-0.0309;-0.0469;-0.0121
0000068636;5.5306;-5.9640;9.6558;-0.0306;-0.0412;-0.0116
0000068645;5.5282;-5.9927;9.6031;-0.0290;-0.0413;-0.0112
0000068658;5.2146;-6.0932;9.6391;-0.0228;-0.0406;-0.0121
0000068667;5.3726;-6.0238;9.5002;-0.0143;-0.0409;-0.0149
0000068679;5.4875;-5.8442;9.5864;-0.0157;-0.0405;-0.0131
0000068688;5.6000;-5.9185;9.5409;-0.0157;-0.0428;-0.0128
0000068701;5.4636;-5.9520;9.5193;-0.0163;-0.0434;-0.0104
0000068710;5.3630;-5.9592;9.5624;-0.0135;-0.0464;-0.0125
0000068719;5.6264;-5.7748;9.5505;-0.0234;-0.0417;-0.0083
0000068731;5.3750;-5.9687;9.4786;-0.0258;-0.0393;-0.0067
0000068740;5.4109;-6.0406;9.4786;-0.0200;-0.0457;-0.0181
0000068807;5.3343;-6.0501;9.4691;-0.0288;-0.0293;-0.0084
0000068816;5.2744;-6.0190;9.4547;-0.0246;-0.0278;-0.0072
0000068828;5.4181;-6.0190;9.3446;-0.0244;-0.0260;-0.0119
0000068837;5.2864;-5.9664;9.4044;-0.0298;-0.0168;-0.0068
0000068850;5.3870;-5.9161;9.5768;-0.0308;-0.0176;-0.0073
0000068859;5.3295;-5.8993;9.4475;-0.0262;-0.0264;-0.0113
0000068871;5.3822;-5.7988;9.5002;-0.0318;-0.0302;-0.0128
0000068880;5.1978;-5.9664;9.5840;-0.0354;-0.0244;-0.0020
0000068889;5.2265;-6.0525;9.5768;-0.0377;-0.0317;0.0005
0000068902;5.3750;-5.8299;9.6510;-0.0377;-0.0334;-0.0012
0000068911;5.2505;-6.0621;9.5385;-0.0325;-0.0340;-0.0047
0000068923;5.3726;-5.9304;9.5792;-0.0341;-0.0338;-0.0029
0000068932;5.4827;-5.8754;9.6103;-0.0317;-0.0338;-0.0059
0000068945;5.4779;-6.1172;9.5864;-0.0328;-0.0270;-0.0049
0000068954;5.6599;-5.9520;9.5241;-0.0349;-0.0272;-0.0056
0000068966;5.4564;-6.0047;9.5146;-0.0336;-0.0232;-0.0116
0000068975;5.3678;-6.0908;9.5433;-0.0392;-0.0109;-0.0073
0000068984;5.4564;-5.9209;9.4403;-0.0345;-0.0133;-0.0149
0000068997;5.4827;-5.9304;9.4882;-0.0318;-0.0077;-0.0069
0000069006;5.2672;-6.0214;9.5529;-0.0286;-0.0124;-0.0131
0000069018;5.1834;-6.1411;9.5648;-0.0329;-0.0124;-0.0077
0000069027;5.2912;-6.1052;9.5600;-0.0320;-0.0156;-0.0111
0000069094;5.4372;-6.0214;9.5840;-0.0241;-0.0222;-0.0163
0000069103;5.3989;-6.0525;9.5960;-0.0241;-0.0232;-0.0121
0000069115;5.3606;-5.9616;9.5170;-0.0221;-0.0268;-0.0181
0000069124;5.2744;-6.0118;9.5241;-0.0321;-0.0225;-0.0104
0000069137;5.3079;-6.0382;9.6007;-0.0314;-0.0191;-0.0127
0000069146;5.2720;-6.0071;9.5098;-0.0284;-0.0204;-0.0105
0000069155;5.1427;-6.0789;9.6247;-0.0297;-0.0192;-0.0112
0000069167;5.2720;-6.0286;9.5026;-0.0268;-0.0252;-0.0153
0000069176;5.1667;-6.1627;9.4882;-0.0250;-0.0201;-0.0072
0000069189;5.1164;-5.9568;9.5433;-0.0233;-0.0274;-0.0119
0000069198;5.0925;-6.2034;9.4954;-0.0253;-0.0280;-0.0105
0000069210;5.2744;-6.0549;9.5289;-0.0187;-0.0398;-0.0153
0000069219;5.3846;-5.9999;9.4834;-0.0300;-0.0333;-0.0087
0000069232;5.3271;-6.0741;9.4571;-0.0241;-0.0325;-0.0095
0000069241;5.2936;-6.0813;9.5098;-0.0209;-0.0377;-0.0149
0000069253;5.2074;-6.1746;9.4379;-0.0171;-0.0344;-0.0059
0000069262;5.3510;-6.0358;9.5074;-0.0152;-0.0356;-0.0117
0000069271;5.2888;-6.0669;9.4715;-0.0121;-0.0273;-0.0031
0000069284;5.2888;-5.9472;9.4858;-0.0220;-0.0218;0.0000
0000069293;5.3151;-5.9233;9.5026;-0.0196;-0.0233;0.0001
0000069305;5.2241;-6.0597;9.4954;-0.0236;-0.0203;0.0047
0000069314;5.2768;-6.0047;9.6845;-0.0328;-0.0207;0.0063
0000069381;5.1834;-6.0621;9.5098;-0.0163;-0.0389;-0.0079
0000069390;5.3127;-6.0286;9.4379;-0.0256;-0.0346;-0.0045
0000069402;5.2146;-5.9879;9.5457;-0.0185;-0.0412;-0.0076
0000069411;5.2241;-6.1052;9.5122;-0.0189;-0.0425;-0.0137
0000069420;5.2984;-6.0980;9.6055;-0.0177;-0.0521;-0.0153
0000069433;5.3367;-5.9903;9.5457;-0.0129;-0.0482;-0.0188
0000069442;5.3175;-6.1651;9.4930;-0.0129;-0.0470;-0.0115
0000069454;5.2744;-6.0549;9.4978;-0.0152;-0.0417;-0.0157
0000069463;5.3582;-6.0382;9.5122;-0.0073;-0.0460;-0.0151
0000069476;5.2002;-5.9711;9.5696;-0.0121;-0.0376;-0.0172
0000069485;5.1715;-6.1866;9.5457;-0.0196;-0.0294;-0.0105
0000069497;5.1978;-6.1076;9.5816;-0.0248;-0.0320;-0.0044
0000069506;5.2625;-6.0908;9.6510;-0.0175;-0.0426;-0.0155
0000069519;5.2385;-6.0358;9.6079;-0.0201;-0.0466;-0.0136
0000069528;5.1595;-6.0765;9.5457;-0.0232;-0.0428;-0.0135
0000069537;5.1787;-6.0166;9.5624;-0.0250;-0.0489;-0.0151
0000069549;5.2074;-6.1339;9.5457;-0.0250;-0.0442;-0.0103
0000069558;5.3439;-6.0645;9.5624;-0.0233;-0.0506;-0.0149
0000069571;5.3870;-6.1579;9.5074;-0.0163;-0.0477;-0.0159
0000069580;5.4660;-6.1124;9.5409;-0.0199;-0.0445;-0.0135
0000069592;5.3367;-6.1699;9.5361;-0.0108;-0.0429;-0.0132
0000069601;5.4779;-6.0525;9.5217;-0.0180;-0.0349;-0.0076
0000069668;5.2098;-6.0717;9.5289;-0.0241;-0.0428;-0.0125
0000069677;5.3798;-6.0885;9.6367;-0.0260;-0.0398;-0.0136
0000069689;5.2481;-6.0932;9.5696;-0.0172;-0.0386;-0.0160
0000069698;5.3941;-6.0669;9.5720;-0.0109;-0.0412;-0.0120
0000069707;5.3917;-6.1076;9.5577;-0.0234;-0.0326;-0.0133
0000069720;5.5019;-5.9472;9.5624;-0.0199;-0.0364;-0.0197
0000069729;5.3870;-6.0813;9.6151;-0.0272;-0.0284;-0.0121
0000069741;5.3439;-6.0980;9.5505;-0.0225;-0.0240;-0.0109
0000069750;5.3343;-6.1124;9.5816;-0.0218;-0.0272;-0.0163
0000069763;5.2218;-6.0837;9.5864;-0.0167;-0.0301;-0.0165
0000069772;5.2577;-6.1339;9.5074;-0.0224;-0.0236;-0.0119
0000069784;5.2313;-6.1196;9.5744;-0.0181;-0.0290;-0.0171
0000069793;5.1547;-6.2297;9.5672;-0.0167;-0.0270;-0.0175
0000069806;5.2050;-6.1172;9.5433;-0.0153;-0.0277;-0.0193
0000069815;5.1930;-6.1076;9.4954;-0.0216;-0.0215;-0.0145
0000069824;5.2361;-6.1699;9.5744;-0.0196;-0.0226;-0.0201
0000069836;5.3726;-6.0262;9.5600;-0.0226;-0.0249;-0.0124
0000069845;5.3271;-6.0310;9.4810;-0.0197;-0.0250;-0.0163
0000069859;5.1475;-6.1387;9.5050;-0.0236;-0.0204;-0.0096
0000069868;5.2816;-6.1387;9.5313;-0.0187;-0.0249;-0.0075
0000069937;5.2289;-6.0885;9.5313;-0.0124;-0.0357;-0.0073
0000069946;5.1188;-6.2082;9.4643;-0.0209;-0.0348;-0.0031
0000069958;5.1858;-6.0932;9.5600;-0.0215;-0.0402;-0.0109
0000069967;5.2912;-6.0214;9.5624;-0.0232;-0.0372;-0.0072
0000069980;5.0996;-6.1770;9.5217;-0.0188;-0.0422;-0.0080
0000069989;5.2194;-6.0861;9.5696;-0.0209;-0.0393;-0.0124
0000069998;5.0159;-6.2465;9.5457;-0.0189;-0.0417;-0.0117
0000070010;5.2361;-5.9424;9.5193;-0.0183;-0.0465;-0.0161
0000070019;5.2840;-6.1794;9.4786;-0.0246;-0.0362;-0.0127
0000070032;5.3367;-6.1148;9.5553;-0.0221;-0.0353;-0.0125
0000070041;5.3965;-6.1052;9.4763;-0.0183;-0.0356;-0.0124
0000070053;5.2960;-6.1268;9.5313;-0.0201;-0.0250;-0.0135
0000070062;5.2840;-6.0549;9.4715;-0.0230;-0.0184;-0.0115
0000070075;5.2553;-6.1316;9.4882;-0.0171;-0.0183;-0.0171
0000070084;5.4540;-6.0334;9.5648;-0.0191;-0.0088;-0.0127
0000070096;5.0206;-6.2584;9.5457;-0.0180;-0.0076;-0.0100
0000070105;5.2170;-6.0525;9.4978;-0.0258;-0.0015;-0.0056
0000070114;5.0182;-6.2369;9.5744;-0.0244;-0.0067;-0.0104
0000070127;5.0278;-6.0334;9.6079;-0.0344;-0.0033;-0.0029
0000070136;5.1858;-6.0190;9.5217;-0.0254;-0.0128;-0.0013
0000070148;5.1356;-6.1316;9.5816;-0.0266;-0.0120;-0.0013
0000070157;5.2744;-6.0382;9.5505;-0.0285;-0.0135;0.0065
0000070226;5.2098;-6.1220;9.5672;-0.0171;-0.0477;-0.0044
0000070235;5.0015;-6.2513;9.5170;-0.0217;-0.0358;0.0019
0000070247;5.2457;-6.0190;9.5122;-0.0234;-0.0412;-0.0040
0000070256;5.2194;-6.0956;9.5289;-0.0161;-0.0510;-0.0072
0000070265;5.2337;-6.0071;9.5337;-0.0233;-0.0470;-0.0052
0000070278;5.0853;-6.2297;9.4547;-0.0308;-0.0460;-0.0057
0000070287;5.2265;-6.1723;9.4260;-0.0213;-0.0514;-0.0108
0000070299;5.2241;-6.1770;9.5098;-0.0155;-0.0549;-0.0104
0000070308;5.0805;-6.2130;9.5529;-0.0204;-0.0492;-0.0081
0000070321;5.2170;-6.2058;9.5816;-0.0191;-0.0504;-0.0083
0000070328;5.3798;-6.1411;9.5816;-0.0217;-0.0504;-0.0128
0000070339;5.3726;-6.0525;9.6534;-0.0244;-0.0524;-0.0207
0000070347;5.4253;-6.1028;9.6223;-0.0224;-0.0509;-0.0205
0000070359;5.2194;-6.1651;9.6199;-0.0296;-0.0465;-0.0179
0000070367;5.4205;-6.1004;9.6127;-0.0258;-0.0449;-0.0193
0000070375;5.3343;-6.1172;9.6223;-0.0242;-0.0433;-0.0188
0000070386;5.3391;-6.1435;9.5816;-0.0216;-0.0428;-0.0197
0000070394;5.1739;-6.2800;9.6271;-0.0204;-0.0393;-0.0187
0000070406;5.2672;-6.2201;9.5265;-0.0205;-0.0433;-0.0221
0000070414;5.3846;-6.3901;9.5840;-0.0301;-0.0420;-0.0040
0000070425;5.3678;-6.3375;9.6582;0.0020;-0.0389;-0.0180
0000070433;5.2936;-6.1890;9.5337;0.0005;-0.0356;-0.0120
0000070501;5.2457;-6.1699;9.5050;-0.0163;-0.0340;-0.0097
0000070509;5.1715;-6.1794;9.6486;-0.0177;-0.0309;-0.0052
0000070520;5.3750;-5.9783;9.4882;-0.0155;-0.0350;-0.0077
0000070528;5.3032;-6.0573;9.5816;-0.0180;-0.0258;-0.0068
0000070536;5.2265;-6.1770;9.5265;-0.0253;-0.0269;-0.0041
0000070548;5.2122;-6.2010;9.5265;-0.0260;-0.0249;-0.0067
0000070556;5.3295;-6.0693;9.5912;-0.0217;-0.0228;-0.0044
0000070567;5.3415;-6.1746;9.5529;-0.0261;-0.0211;-0.0028
0000070575;5.2409;-5.9999;9.5672;-0.0240;-0.0140;0.0032
0000070587;5.3702;-5.8945;9.5864;-0.0294;-0.0080;0.0024
0000070595;5.2218;-6.1914;9.6486;-0.0258;-0.0101;-0.0015
