time;acc_x;acc_y;acc_z;gyro_x;gyro_y;gyro_z
0000587213;5.6790;-16.0483;1.0175;-0.1216;-0.1262;-0.0369
0000587222;5.7700;-16.0866;1.0774;-0.1255;-0.1144;-0.0386
0000587229;5.7604;-16.1680;0.9816;-0.1320;-0.1058;-0.0362
0000587237;5.9544;-16.1537;0.9433;-0.1267;-0.1035;-0.0394
0000587246;5.9400;-16.2111;0.8595;-0.1247;-0.0902;-0.0410
0000587254;5.9903;-16.2231;0.9673;-0.1202;-0.0806;-0.0425
0000587266;6.0669;-16.2423;0.9290;-0.1150;-0.0624;-0.0377
0000587274;5.9664;-16.4051;0.9529;-0.1075;-0.0557;-0.0416
0000587341;5.6599;-16.3596;0.7278;-0.0236;-0.0310;-0.0274
0000587349;5.5569;-16.4266;0.8356;-0.0163;-0.0370;-0.0276
0000587357;5.5952;-16.4075;0.8188;-0.0071;-0.0526;-0.0305
0000587369;5.5091;-16.4194;0.7733;0.0009;-0.0644;-0.0268
0000587377;5.6934;-16.3739;0.7901;0.0037;-0.0657;-0.0205
0000587388;5.6862;-16.2255;0.7949;0.0169;-0.0841;-0.0246
0000587396;5.6551;-16.2901;0.8140;0.0123;-0.0811;-0.0185
0000587408;5.7102;-16.1202;0.8882;0.0147;-0.0882;-0.0119
0000587416;5.7533;-16.0699;0.8787;0.0107;-0.0958;-0.0168
0000587427;5.8083;-16.0723;0.8499;0.0012;-0.0990;-0.0161
0000587435;5.6264;-15.9957;0.8475;-0.0056;-0.1042;-0.0165
0000587447;5.6336;-16.1273;0.8835;-0.0125;-0.1104;-0.0120
0000587455;5.7054;-16.1178;0.8045;-0.0232;-0.1130;-0.0080
0000587463;5.7437;-15.9789;0.9194;-0.0286;-0.1212;-0.0084
0000587474;5.9017;-15.9190;0.7973;-0.0364;-0.1155;-0.0037
0000587482;5.7676;-16.1896;0.8284;-0.0333;-0.1226;-0.0076
0000587494;5.8107;-16.1345;0.9146;-0.0352;-0.1095;-0.0035
0000587502;5.8347;-16.2279;0.8499;-0.0348;-0.1075;-0.0065
0000587513;5.8251;-16.1656;0.8092;-0.0321;-0.0935;-0.0076
0000587521;6.0094;-16.1704;0.9553;-0.0361;-0.0826;-0.0113
0000587533;5.8586;-16.2399;0.8164;-0.0288;-0.0727;-0.0172
0000587541;5.9903;-16.3237;0.8643;-0.0272;-0.0629;-0.0151
0000587609;5.7964;-16.2447;0.6369;-0.0208;-0.0068;-0.0211
0000587617;5.8107;-16.1393;0.7302;-0.0253;0.0043;-0.0155
0000587629;5.7628;-16.1944;0.8068;-0.0201;0.0043;-0.0171
0000587637;5.8299;-16.1609;0.7805;-0.0188;0.0084;-0.0132
0000587645;5.8730;-16.0651;0.6728;-0.0161;0.0071;-0.0159
0000587656;5.8227;-16.2183;0.7302;-0.0084;0.0095;-0.0133
0000587664;5.8969;-16.1680;0.8116;-0.0056;0.0081;-0.0149
0000587676;5.6934;-16.1728;0.7949;-0.0095;0.0169;-0.0088
0000587684;5.7868;-16.2638;0.7709;-0.0088;0.0181;-0.0096
0000587695;5.7557;-16.1944;0.7853;-0.0091;0.0168;-0.0085
0000587703;5.8490;-16.0076;0.8499;-0.0163;0.0211;-0.0115
0000587716;5.7940;-16.1178;0.8045;-0.0075;0.0211;-0.0143
0000587723;5.7317;-16.1609;0.8523;-0.0121;0.0248;-0.0113
0000587734;5.6503;-16.3141;0.8715;-0.0120;0.0258;-0.0156
0000587742;5.7724;-16.0627;0.7518;-0.0067;0.0191;-0.0236
0000587750;5.5498;-16.2662;0.8595;-0.0024;0.0179;-0.0160
0000587762;5.6719;-16.2040;0.7111;0.0005;0.0148;-0.0183
0000587770;5.6743;-16.2159;0.8188;0.0009;0.0185;-0.0128
0000587782;5.7509;-16.2662;0.8045;0.0007;0.0183;-0.0129
0000587789;5.7796;-16.2973;0.7709;0.0067;0.0093;-0.0167
0000587801;5.7820;-16.1704;0.8475;0.0049;0.0173;-0.0116
0000587809;5.5809;-16.1130;0.7781;0.0104;0.0107;-0.0156
0000587877;5.5641;-16.2016;0.8116;-0.0081;-0.0117;-0.0152
0000587885;5.7341;-16.2494;0.8380;-0.0109;-0.0109;-0.0155
0000587893;5.6479;-16.2518;0.8140;-0.0020;-0.0161;-0.0181
0000587905;5.7389;-16.1609;0.9290;-0.0044;-0.0189;-0.0108
0000587913;5.8251;-16.0986;0.7805;-0.0092;-0.0164;-0.0159
0000587924;5.7868;-16.0914;0.8571;-0.0039;-0.0204;-0.0101
0000587932;5.5067;-16.3787;0.8188;0.0007;-0.0224;-0.0173
0000587944;5.7964;-16.0938;0.8308;0.0023;-0.0250;-0.0205
0000587952;5.7700;-16.2375;0.8619;0.0077;-0.0248;-0.0111
0000587963;5.8059;-16.1345;0.8308;0.0053;-0.0234;-0.0145
0000587971;5.7533;-16.2351;0.8116;0.0112;-0.0215;-0.0115
0000587983;5.6910;-16.2734;0.8667;0.0104;-0.0220;-0.0107
0000587991;5.5522;-16.2710;0.8595;0.0089;-0.0277;-0.0180
0000587999;5.6431;-16.0890;0.8954;0.0073;-0.0253;-0.0112
0000588010;5.8490;-16.1321;0.8739;0.0124;-0.0273;-0.0191
0000588018;5.6886;-16.2064;0.9481;0.0088;-0.0238;-0.0211
0000588030;5.7126;-16.1824;0.9385;0.0124;-0.0252;-0.0218
0000588038;5.7461;-16.2183;0.9002;0.0057;-0.0218;-0.0181
0000588049;5.6719;-16.1465;0.8859;0.0093;-0.0213;-0.0172
0000588057;5.7054;-16.1321;0.8068;0.0031;-0.0193;-0.0195
0000588069;5.6192;-16.1633;0.9098;-0.0055;-0.0215;-0.0149
0000588077;5.6264;-16.1226;0.9409;-0.0040;-0.0250;-0.0207
0000588144;5.6599;-16.3668;0.8356;0.0005;-0.0386;-0.0136
0000588152;5.7940;-16.2734;0.7877;0.0032;-0.0450;-0.0129
0000588160;5.7820;-16.2949;0.8763;0.0039;-0.0346;-0.0119
0000588172;5.8227;-16.1249;0.8475;0.0145;-0.0421;-0.0169
0000588180;5.8179;-16.3356;0.9385;0.0123;-0.0341;-0.0191
0000588191;5.7581;-16.0986;0.9146;0.0075;-0.0301;-0.0165
0000588199;5.7940;-16.1489;0.8547;0.0059;-0.0245;-0.0133
0000588211;5.7772;-16.1656;0.9242;0.0109;-0.0218;-0.0161
0000588219;5.7461;-16.1345;0.9792;0.0076;-0.0242;-0.0164
0000588230;5.7533;-16.1202;0.9697;0.0007;-0.0185;-0.0201
0000588238;5.7269;-16.2542;0.9720;0.0041;-0.0229;-0.0216
0000588250;5.7557;-16.1345;0.9002;-0.0008;-0.0221;-0.0197
0000588258;5.5881;-16.2447;0.9792;-0.0047;-0.0157;-0.0125
0000588266;5.6120;-16.3069;0.9170;-0.0037;-0.0159;-0.0147
0000588277;5.6575;-16.1441;0.9337;0.0005;-0.0157;-0.0224
0000588285;5.7772;-16.0675;0.8906;-0.0044;-0.0177;-0.0179
0000588297;5.7102;-16.1130;0.9577;-0.0011;-0.0205;-0.0196
0000588305;5.7293;-16.1345;0.8715;-0.0067;-0.0147;-0.0137
0000588316;5.7006;-16.2111;0.9122;-0.0019;-0.0153;-0.0188
0000588324;5.8203;-16.1034;0.9457;-0.0056;-0.0111;-0.0112
0000588337;6.0454;-15.9023;0.8978;-0.0067;-0.0089;-0.0132
0000588344;5.6431;-16.1202;1.0678;-0.0081;-0.0089;-0.0171
0000588412;5.7485;-16.1920;0.9266;-0.0060;-0.0136;-0.0192
0000588420;5.6623;-16.2399;0.9170;-0.0089;-0.0097;-0.0159
0000588433;5.8083;-16.2542;1.0582;-0.0072;-0.0151;-0.0149
0000588440;5.7461;-16.1872;0.9337;-0.0108;-0.0100;-0.0101
0000588448;5.7365;-16.0938;0.8428;-0.0129;-0.0111;-0.0140
0000588459;5.8634;-16.0627;0.9002;-0.0144;-0.0123;-0.0161
0000588467;5.8179;-16.0986;0.9433;-0.0093;-0.0171;-0.0181
0000588479;5.8634;-15.9550;0.9768;-0.0120;-0.0139;-0.0181
0000588487;5.5809;-16.2303;0.9529;-0.0208;-0.0115;-0.0132
0000588498;5.8395;-16.0579;0.9385;-0.0212;-0.0120;-0.0157
0000588506;5.7676;-16.1058;0.9290;-0.0165;-0.0196;-0.0199
0000588518;5.5976;-16.1393;0.9697;-0.0238;-0.0171;-0.0173
0000588526;5.5952;-16.1537;0.8906;-0.0203;-0.0211;-0.0159
0000588537;5.5019;-16.2303;0.9242;-0.0232;-0.0197;-0.0156
0000588545;5.6000;-16.1537;0.9361;-0.0211;-0.0242;-0.0200
0000588557;5.6120;-16.2351;0.9170;-0.0217;-0.0268;-0.0183
0000588565;5.7413;-16.0866;0.9002;-0.0249;-0.0273;-0.0119
0000588573;5.6599;-16.1704;0.9026;-0.0229;-0.0312;-0.0165
0000588585;5.5881;-16.1393;0.8811;-0.0246;-0.0317;-0.0152
0000588593;5.6982;-16.2925;0.9409;-0.0168;-0.0386;-0.0207
0000588661;5.6719;-16.1968;0.9625;-0.0254;-0.0541;-0.0155
0000588669;5.6790;-16.1872;0.9385;-0.0302;-0.0513;-0.0105
0000588681;5.7197;-16.0531;0.9720;-0.0328;-0.0504;-0.0103
0000588689;5.7245;-16.1776;0.8643;-0.0302;-0.0537;-0.0115
0000588700;5.7509;-16.0986;0.9457;-0.0280;-0.0562;-0.0160
0000588708;5.7174;-16.2040;0.8523;-0.0254;-0.0500;-0.0091
0000588720;5.6671;-16.2327;0.8978;-0.0224;-0.0502;-0.0147
0000588728;5.7700;-16.2878;0.8475;-0.0236;-0.0393;-0.0075
0000588740;5.7700;-16.3045;0.8691;-0.0120;-0.0340;-0.0121
0000588747;5.8155;-16.2710;0.9744;-0.0123;-0.0272;-0.0111
0000588755;5.9448;-16.1537;0.9074;-0.0060;-0.0305;-0.0183
0000588767;5.9304;-16.1417;0.9194;-0.0088;-0.0157;-0.0107
0000588775;5.7365;-16.3021;0.9290;-0.0185;-0.0069;-0.0135
0000588786;5.7365;-16.1848;0.8859;-0.0201;-0.0053;-0.0200
0000588794;5.7317;-16.1465;0.8643;-0.0241;0.0032;-0.0157
0000588806;5.4708;-16.1896;0.8571;-0.0296;-0.0036;-0.0242
0000588814;5.6096;-16.1633;0.9026;-0.0278;-0.0107;-0.0265
0000588825;5.6695;-16.1585;0.8882;-0.0266;-0.0137;-0.0286
0000588833;5.5857;-16.2159;0.8643;-0.0282;-0.0148;-0.0292
0000588845;5.6000;-16.2686;0.8284;-0.0189;-0.0270;-0.0322
0000588853;5.7102;-16.2518;0.8643;-0.0111;-0.0297;-0.0326
0000588921;5.7245;-16.1154;0.8954;-0.0012;-0.0578;-0.0209
0000588929;5.8155;-16.1034;0.9529;-0.0069;-0.0564;-0.0209
0000588937;5.6790;-16.1704;0.8404;0.0024;-0.0605;-0.0159
0000588949;5.7724;-16.1609;0.8643;-0.0004;-0.0576;-0.0173
0000588957;5.8035;-16.0819;0.8954;-0.0015;-0.0600;-0.0141
0000588968;5.5737;-16.3021;0.9481;-0.0019;-0.0556;-0.0129
0000588976;5.7604;-16.1441;0.8763;0.0057;-0.0589;-0.0191
0000588988;5.6695;-16.3165;0.9577;0.0036;-0.0576;-0.0171
0000588996;5.7341;-16.1513;0.9242;0.0005;-0.0544;-0.0148
0000589007;5.6240;-16.2111;0.8404;0.0019;-0.0538;-0.0217
0000589015;5.8442;-16.0507;0.9122;0.0095;-0.0570;-0.0269
0000589027;5.7317;-16.1585;0.8978;0.0071;-0.0556;-0.0218
0000589035;5.8634;-16.1656;0.9218;0.0059;-0.0526;-0.0171
0000589043;5.7126;-16.0938;0.9050;0.0024;-0.0493;-0.0169
0000589054;5.7892;-16.0819;0.9744;0.0033;-0.0469;-0.0172
0000589062;5.6910;-16.2135;0.8715;0.0084;-0.0494;-0.0218
0000589074;5.7437;-16.1106;0.8930;0.0051;-0.0429;-0.0204
0000589082;5.8347;-15.9717;0.9098;0.0083;-0.0517;-0.0249
0000589093;5.6431;-16.1369;0.8787;0.0036;-0.0448;-0.0196
0000589101;5.9448;-16.0172;0.8978;0.0104;-0.0489;-0.0260
0000589113;5.6719;-16.1896;0.8691;0.0105;-0.0469;-0.0236
0000589121;5.7078;-16.1704;0.8547;0.0004;-0.0430;-0.0161
0000589189;5.7485;-16.1417;0.7973;-0.0008;-0.0538;-0.0123
0000589197;5.9113;-16.0412;0.9625;0.0025;-0.0556;-0.0141
0000589205;5.8012;-16.1034;0.9074;0.0027;-0.0508;-0.0111
0000589217;5.7150;-16.1848;0.9361;0.0011;-0.0476;-0.0108
0000589225;5.8107;-16.1154;0.9553;0.0035;-0.0497;-0.0108
0000589236;5.8754;-16.1273;0.8571;-0.0001;-0.0477;-0.0088
0000589244;5.8538;-16.1297;0.8308;0.0053;-0.0438;-0.0083
0000589256;5.8347;-16.2064;0.9194;0.0049;-0.0449;-0.0101
0000589264;5.8754;-15.9238;0.9194;0.0019;-0.0341;-0.0023
0000589275;5.6743;-16.1561;0.8475;0.0080;-0.0370;-0.0073
0000589283;5.7988;-16.1154;0.9194;-0.0015;-0.0332;-0.0044
0000589295;5.8155;-15.9933;0.9553;-0.0057;-0.0282;-0.0069
0000589303;5.7126;-16.0052;0.9170;-0.0043;-0.0236;-0.0004
0000589311;5.6455;-16.1585;0.9194;-0.0072;-0.0254;-0.0043
0000589322;5.5833;-16.1776;0.9050;-0.0083;-0.0285;-0.0041
0000589330;5.7006;-16.0914;0.8643;-0.0117;-0.0326;-0.0168
0000589342;5.6599;-16.2040;0.8380;-0.0112;-0.0261;-0.0079
0000589350;5.7772;-16.1178;0.8667;-0.0085;-0.0326;-0.0100
0000589361;5.6312;-16.3213;0.8859;-0.0065;-0.0344;-0.0115
0000589369;5.9400;-16.1513;0.8452;0.0003;-0.0313;-0.0067
0000589381;5.7748;-16.1249;0.9146;-0.0053;-0.0293;-0.0072
0000589389;5.8466;-15.9406;0.8882;-0.0051;-0.0193;-0.0065
0000589457;5.9233;-16.2087;0.8475;0.0298;0.0205;-0.0320
0000589465;5.8466;-16.1513;0.9864;0.0298;0.0248;-0.0268
0000589473;5.8706;-15.9813;1.0008;0.0228;0.0318;-0.0305
0000589485;5.9089;-15.9693;1.0295;0.0233;0.0276;-0.0364
0000589493;5.7437;-15.9957;0.9744;0.0155;0.0334;-0.0309
0000589504;5.8371;-15.8855;1.0654;0.0060;0.0328;-0.0358
0000589512;5.6551;-16.0028;1.0463;-0.0021;0.0298;-0.0338
0000589524;5.6216;-15.9574;1.0678;-0.0195;0.0334;-0.0322
0000589532;5.6192;-15.9574;1.0319;-0.0226;0.0294;-0.0305
0000589543;5.7317;-16.0268;0.9720;-0.0260;0.0234;-0.0226
0000589551;5.7006;-16.0723;1.0247;-0.0309;0.0264;-0.0196
0000589563;5.5785;-16.2375;0.9984;-0.0314;0.0179;-0.0200
0000589571;5.4803;-16.2231;1.0032;-0.0256;0.0129;-0.0246
0000589579;5.4708;-16.2327;0.9936;-0.0326;0.0173;-0.0137
0000589590;5.7030;-16.2806;0.9194;-0.0318;0.0069;-0.0116
0000589598;5.7485;-16.0866;0.9505;-0.0257;-0.0001;-0.0144
0000589610;5.7126;-16.1752;0.9313;-0.0282;0.0029;-0.0097
0000589618;5.7844;-16.0866;0.9625;-0.0294;-0.0033;-0.0080
0000589629;5.6934;-16.2351;0.9361;-0.0301;-0.0063;-0.0061
0000589637;5.7054;-16.2566;0.9960;-0.0201;-0.0156;-0.0071
0000589649;5.5115;-16.3237;0.9050;-0.0175;-0.0195;-0.0092
0000589657;5.6814;-16.2231;0.9290;-0.0076;-0.0253;-0.0060
0000589725;5.6767;-16.2064;0.9505;0.0326;-0.0380;-0.0061
0000589733;5.7341;-16.0723;0.9625;0.0218;-0.0277;-0.0044
0000589741;5.8514;-16.0771;1.0247;0.0268;-0.0296;-0.0123
0000589753;5.6623;-16.1513;1.0463;0.0254;-0.0258;-0.0081
0000589761;5.7054;-16.1369;1.0439;0.0264;-0.0256;-0.0111
0000589772;5.8610;-15.9909;0.9673;0.0258;-0.0294;-0.0188
0000589780;5.6767;-16.1944;1.1157;0.0326;-0.0344;-0.0224
0000589792;5.5617;-16.1824;1.1085;0.0262;-0.0353;-0.0185
0000589800;5.9400;-15.9765;1.1564;0.0277;-0.0269;-0.0113
0000589811;5.7102;-16.1297;1.1109;0.0282;-0.0312;-0.0159
0000589819;5.7269;-16.1728;1.1277;0.0292;-0.0272;-0.0123
0000589831;5.7988;-15.9023;1.0463;0.0183;-0.0222;-0.0131
0000589839;5.7461;-15.9981;1.0463;0.0135;-0.0216;-0.0087
0000589847;5.7820;-15.9741;1.0223;0.0049;-0.0244;-0.0112
0000589858;5.7604;-16.0364;1.0582;-0.0021;-0.0168;-0.0132
0000589866;5.7485;-16.2303;0.9840;-0.0023;-0.0155;-0.0133
0000589878;5.6024;-16.3165;1.0846;-0.0061;-0.0133;-0.0107
0000589886;5.6862;-16.0771;0.9864;0.0009;-0.0224;-0.0179
0000589897;5.6216;-16.2207;1.0223;-0.0044;-0.0244;-0.0140
0000589905;5.5450;-16.1896;1.0726;0.0012;-0.0297;-0.0181
0000589917;5.6814;-16.0866;1.0678;0.0003;-0.0309;-0.0152
0000589925;5.6886;-16.0388;1.0295;-0.0063;-0.0342;-0.0125
0000589993;5.9280;-16.0076;1.0678;-0.0115;-0.0366;-0.0033
0000590001;5.7197;-16.1106;1.1133;-0.0053;-0.0392;-0.0115
0000590012;5.7102;-16.1417;1.1109;-0.0065;-0.0374;-0.0127
0000590020;5.5761;-16.2471;1.0367;-0.0137;-0.0338;-0.0097
0000590028;5.6336;-16.2423;1.0774;-0.0097;-0.0352;-0.0136
0000590040;5.6072;-16.1034;1.0127;-0.0143;-0.0289;-0.0108
0000590048;5.5617;-16.2087;1.0822;-0.0131;-0.0338;-0.0107
0000590060;5.6862;-16.1082;1.0271;-0.0159;-0.0289;-0.0088
0000590068;5.7509;-16.1800;1.1277;-0.0104;-0.0304;-0.0084
0000590080;5.6216;-16.1872;1.0343;-0.0080;-0.0332;-0.0128
0000590088;5.5210;-16.3141;1.0463;0.0007;-0.0429;-0.0112
0000590099;5.6072;-16.2423;0.9936;-0.0043;-0.0350;-0.0109
0000590107;5.6886;-16.1513;1.1540;-0.0053;-0.0348;-0.0067
0000590119;5.6479;-16.3189;1.0511;0.0073;-0.0361;-0.0060
0000590127;5.6982;-16.2447;0.9649;0.0097;-0.0372;-0.0039
0000590135;5.7054;-16.2590;0.9433;0.0144;-0.0340;-0.0049
0000590146;5.7413;-16.1321;0.9768;0.0224;-0.0324;-0.0064
0000590154;5.6695;-16.2542;1.0511;0.0234;-0.0326;-0.0117
0000590166;5.7988;-16.1249;0.9697;0.0288;-0.0241;-0.0092
0000590174;5.6982;-16.2255;1.1133;0.0240;-0.0199;-0.0107
0000590186;5.7437;-16.1992;1.1875;0.0253;-0.0155;-0.0152
0000590194;5.6431;-16.2518;1.1564;0.0242;-0.0147;-0.0155
0000590262;5.7581;-15.9502;1.1133;-0.0067;-0.0111;-0.0173
0000590270;5.8395;-16.0723;1.1660;-0.0085;-0.0091;-0.0187
0000590281;5.7078;-16.0747;1.1253;-0.0057;-0.0137;-0.0191
0000590289;5.7533;-16.1034;1.0942;-0.0103;-0.0064;-0.0160
0000590297;5.6383;-16.1680;1.0870;-0.0147;-0.0084;-0.0175
0000590309;5.8083;-16.0459;1.1253;-0.0204;-0.0013;-0.0103
0000590317;5.6527;-16.1202;1.1133;-0.0215;-0.0021;-0.0121
0000590328;5.6982;-16.1226;1.0870;-0.0248;-0.0032;-0.0096
0000590336;5.5689;-16.2255;1.0846;-0.0296;0.0017;-0.0083
0000590348;5.7844;-15.9358;1.0223;-0.0317;-0.0012;-0.0111
0000590356;5.5402;-16.3045;0.9936;-0.0338;-0.0039;-0.0151
0000590367;5.5258;-16.3141;0.9098;-0.0342;-0.0163;-0.0176
0000590375;5.5689;-16.2782;0.9146;-0.0278;-0.0177;-0.0200
0000590387;5.6719;-16.1800;0.9529;-0.0217;-0.0252;-0.0216
0000590395;5.7030;-16.2351;0.8092;-0.0282;-0.0192;-0.0140
0000590406;5.7054;-16.2279;0.8284;-0.0254;-0.0220;-0.0133
0000590414;5.6360;-16.3261;0.9433;-0.0196;-0.0264;-0.0148
0000590422;5.7293;-16.1178;0.8835;-0.0168;-0.0213;-0.0091
0000590434;5.7509;-16.1704;0.9601;-0.0217;-0.0215;-0.0145
0000590442;5.7700;-16.0914;0.9792;-0.0211;-0.0245;-0.0145
0000590454;5.8802;-16.0555;0.9385;-0.0297;-0.0199;-0.0156
0000590462;5.8299;-16.0723;0.8763;-0.0337;-0.0125;-0.0222
0000590530;5.9017;-16.4769;0.7925;-0.0389;0.0806;-0.0069
0000590538;6.1339;-16.3141;0.6967;-0.0410;0.0986;0.0060
0000590549;6.0262;-16.4458;0.5818;-0.0302;0.1228;0.0192
0000590557;5.9376;-16.5822;0.4669;-0.0177;0.1280;0.0203
0000590569;5.9711;-16.3165;0.2083;0.0113;0.1356;0.0277
0000590577;5.7772;-16.4003;0.2035;0.0245;0.1438;0.0314
0000590585;5.6910;-16.1704;-0.1006;0.0362;0.1371;0.0234
0000590597;5.4516;-16.2064;-0.0742;0.0707;0.1166;0.0073
0000590605;5.1691;-16.1944;-0.1365;0.0985;0.0847;0.0000
0000590617;5.0853;-16.0316;-0.0694;0.1232;0.0290;-0.0072
0000590625;4.7357;-15.9717;-0.1484;0.1340;-0.0119;-0.0115
0000590636;4.7884;-15.9669;-0.1197;0.1360;-0.0761;-0.0188
0000590644;4.7764;-16.0483;0.0239;0.1274;-0.1124;-0.0083
0000590656;5.0853;-16.1321;-0.0527;0.1350;-0.1748;-0.0019
0000590664;5.1140;-16.3213;0.0886;0.1400;-0.2013;0.0132
0000590675;5.6431;-16.3955;0.1365;0.1697;-0.2216;0.0268
0000590683;5.5761;-16.8408;0.2586;0.1981;-0.2189;0.0400
0000590691;6.0071;-16.8672;0.3663;0.2385;-0.2156;0.0388
0000590703;6.2896;-16.8959;0.5219;0.3012;-0.1821;0.0382
0000590711;6.4835;-16.8743;0.5243;0.3513;-0.1604;0.0284
0000590723;6.5003;-16.4793;0.5914;0.4133;-0.1192;-0.0048
0000590731;6.6750;-15.9454;0.5052;0.4391;-0.0863;-0.0256
0000590799;5.2577;-15.8951;0.3041;0.4417;-0.0513;-0.1784
0000590807;5.2265;-16.1704;0.2346;0.4602;-0.0747;-0.1788
0000590819;5.2289;-16.3572;0.2801;0.5085;-0.1247;-0.1679
0000590827;5.2768;-16.4865;0.3926;0.5407;-0.1514;-0.1573
0000590835;5.1667;-16.4099;0.3950;0.5685;-0.1857;-0.1322
0000590847;5.3630;-16.2830;0.3711;0.5808;-0.2089;-0.0787
0000590855;5.6790;-16.0364;0.2298;0.5903;-0.2269;-0.0424
0000590867;6.0142;-15.9909;0.0431;0.6181;-0.2542;0.0059
0000590875;6.2106;-15.7515;-0.0096;0.6354;-0.2535;0.0398
0000590887;6.1890;-15.6581;-0.0072;0.6690;-0.2535;0.0754
0000590895;6.0789;-15.5432;0.0168;0.6908;-0.2461;0.0803
0000590907;6.3590;-15.2415;-0.0479;0.7059;-0.2152;0.0799
0000590915;6.5912;-15.2678;0.0096;0.7252;-0.1948;0.0610
0000590927;6.3015;-15.5049;0.0910;0.7703;-0.1605;0.0256
0000590935;6.1794;-15.2654;0.1413;0.8120;-0.1467;0.0012
0000590943;6.2130;-15.2750;0.0239;0.8403;-0.1182;-0.0101
0000590954;6.2896;-14.7315;0.1293;0.8827;-0.0914;-0.0217
0000590962;6.0286;-14.5879;0.1796;0.9012;-0.0694;-0.0217
0000590974;6.0717;-14.1593;0.2155;0.9253;-0.0408;-0.0183
0000590982;6.1483;-14.0061;0.3424;0.9362;-0.0274;-0.0073
0000590994;6.0501;-14.0252;0.3974;0.9697;-0.0041;-0.0057
0000591002;6.2513;-14.0133;0.5890;0.9908;0.0048;-0.0089
0000591070;7.1658;-11.4060;1.4820;1.3050;-0.0001;0.2563
0000591078;7.2520;-11.5257;1.5251;1.2929;0.0273;0.2867
0000591086;7.6974;-11.5855;1.7238;1.2970;0.0638;0.3039
0000591097;7.9847;-12.0692;1.8340;1.2709;0.1403;0.3289
0000591105;8.2193;-12.4858;2.2003;1.2678;0.2232;0.3400
0000591117;8.3342;-12.9263;2.3272;1.2630;0.3603;0.3456
0000591125;8.3103;-12.9311;2.4397;1.2545;0.4522;0.3269
0000591137;8.0062;-12.6127;2.2146;1.2048;0.5872;0.2887
0000591145;7.5729;-12.4882;2.1117;1.1607;0.6556;0.2373
0000591157;6.9959;-12.4690;1.4365;1.0520;0.7500;0.1443
0000591165;6.6008;-12.6198;0.9242;0.9599;0.7821;0.0622
0000591173;6.3662;-13.2519;0.6512;0.8462;0.8066;-0.0282
0000591184;6.1986;-14.3149;0.6225;0.7310;0.8112;-0.1635
0000591192;6.2513;-15.1242;0.8428;0.6344;0.8002;-0.2272
0000591204;6.4021;-15.6581;0.9505;0.5215;0.7380;-0.2376
0000591212;6.4643;-15.8807;1.2282;0.4515;0.6764;-0.1699
0000591224;6.2297;-15.5168;1.4246;0.3890;0.5490;-0.0436
0000591232;5.6455;-15.4857;1.5826;0.3437;0.4716;0.0500
0000591240;5.5952;-15.0380;2.1931;0.2990;0.4278;0.1358
0000591252;5.5306;-14.7076;3.2417;0.2678;0.4030;0.2342
0000591260;5.8802;-14.2096;3.6512;0.2312;0.4162;0.2637
0000591272;6.6798;-14.0995;4.4796;0.1704;0.5092;0.2793
0000591280;7.3574;-13.6613;5.3319;0.1499;0.6133;0.2466
0000591348;9.0692;-9.6367;3.2872;0.4947;1.9505;-0.2320
0000591356;9.6510;-9.4116;2.2673;0.5373;2.1188;-0.3159
0000591368;9.7348;-9.8330;1.0511;0.6348;2.3667;-0.4463
0000591376;9.3829;-10.1466;1.6640;0.7747;2.5602;-0.5233
0000591384;9.3733;-10.8529;4.3407;1.0008;2.7847;-0.5468
0000591396;6.2106;-14.9087;15.5743;1.7064;3.1908;-0.3645
0000591404;4.5179;-25.1966;37.0694;2.8264;3.2992;-0.0549
0000591416;-8.0804;-47.4459;33.0567;3.2865;2.5471;0.2368
0000591424;-17.2263;-47.1131;8.7173;4.0390;2.6609;0.8508
0000591436;-26.1758;-38.9728;10.2687;4.3656;1.5327;1.5965
0000591444;-28.0146;-28.5125;7.1299;4.3656;0.4546;1.8294
0000591456;-25.7879;-16.9126;3.9409;4.3656;-1.1062;2.2138
0000591464;-19.3380;-12.1099;1.8052;4.3656;-2.0808;2.3000
0000591476;-10.3525;-10.0868;-3.1005;4.3656;-3.4204;2.7985
0000591484;-5.7317;-10.6901;-3.5171;3.9691;-4.0245;3.2711
0000591492;-3.2801;-11.0540;-2.3655;3.2422;-4.3657;3.7671
0000591505;0.3759;-14.4466;2.8587;2.3720;-4.3657;3.8423
0000591512;3.5602;-19.6348;6.9216;1.4142;-4.3657;2.9792
0000591524;7.0485;-29.6091;5.2864;1.4111;-4.0981;1.4890
0000591532;11.1929;-35.3935;3.6081;2.8533;-3.5934;1.1366
0000591544;13.2926;-32.4606;1.4653;4.3656;-2.8280;1.3139
0000591552;13.9486;-26.4440;1.7621;4.3656;-2.3944;1.1902
0000591618;9.1985;-2.4277;2.6791;4.3656;0.5637;0.4682
0000591626;7.7428;-1.7190;2.8180;4.3656;0.6740;0.7857
0000591634;6.5098;-1.3767;1.9273;4.3656;0.6797;1.1107
0000591646;3.7421;-1.2019;1.9632;4.3656;0.4624;1.4414
0000591654;2.5331;-1.5634;1.4724;4.0426;0.1879;1.5729
0000591666;1.1085;-2.3583;0.0718;3.6038;-0.2942;1.6944
0000591674;-0.1053;-2.6600;-0.2634;3.5598;-0.5955;1.7107
0000591686;-1.2354;-1.2905;-0.4980;3.8251;-0.9999;1.6834
0000591694;-1.5874;-0.0982;0.7470;4.0063;-1.3418;1.6483
0000591706;-1.4772;4.0294;2.8252;3.9432;-1.8927;1.4733
0000591714;0.1006;5.4468;3.9600;3.7114;-2.2002;1.2669
0000591722;2.2458;6.4811;2.6288;3.3011;-2.3800;1.1294
0000591734;5.2816;8.1451;1.8675;2.6817;-2.3791;1.0229
0000591742;6.8019;9.6007;2.5019;2.4002;-2.2419;1.0864
0000591754;9.5122;14.0516;3.8595;1.9937;-1.8659;1.4321
0000591762;13.2591;17.8440;3.4596;1.7372;-1.5001;1.8185
0000591774;15.8592;20.1951;3.3854;0.8234;-0.8755;2.3297
0000591782;17.5064;21.5143;4.2976;0.2663;-0.4323;2.5907
0000591790;18.6891;21.3084;4.9033;-0.4427;-0.0566;2.7259
0000591802;18.9597;17.2071;5.4708;-1.8756;0.3391;2.1682
0000591810;18.5072;12.9047;5.3486;-2.5135;0.4141;1.5733
0000591822;17.1545;7.2999;6.7900;-2.8842;0.3327;0.6635
0000591830;15.4713;3.9983;7.9320;-2.8998;0.2674;0.1424
0000591898;4.9081;-5.0374;6.3686;-0.5593;0.6666;-0.2765
0000591906;4.1587;-4.0725;6.4691;-0.3284;0.4975;-0.1545
0000591919;3.4524;-2.7773;6.4859;0.0077;0.1900;0.0250
0000591926;3.3998;-1.5083;6.3279;0.1779;-0.0357;0.1482
0000591934;3.7996;-0.2682;5.8538;0.2830;-0.2493;0.2821
0000591946;4.8459;1.1995;5.1499;0.3449;-0.5279;0.5128
0000591954;5.6312;1.9561;4.7669;0.2922;-0.6791;0.6594
0000591966;6.7493;2.4205;3.9552;0.1242;-0.8653;0.7397
0000591974;7.6662;2.3870;3.8403;0.0008;-0.9775;0.6927
0000591986;9.0070;2.2793;4.1875;-0.1969;-1.0645;0.5658
0000591994;9.9168;1.9656;4.4604;-0.2943;-1.0495;0.4700
0000592002;10.7524;1.5155;4.4819;-0.3459;-1.0106;0.3765
0000592014;11.4946;0.6297;5.2409;-0.3611;-0.8479;0.2586
0000592022;12.1171;0.0622;5.4085;-0.3265;-0.7116;0.2145
0000592034;12.2655;-0.5986;5.6360;-0.2129;-0.4754;0.2022
0000592042;11.9734;-0.9074;6.0214;-0.1045;-0.3170;0.1917
0000592054;11.3150;-1.0104;6.7636;0.0522;-0.0737;0.1851
0000592062;11.0277;-0.5842;7.0557;0.1491;0.0600;0.1773
0000592074;10.6135;-0.0287;7.4148;0.2366;0.1984;0.1648
0000592082;10.1873;0.1437;7.5298;0.2505;0.2555;0.1531
0000592090;10.0293;0.4046;7.6064;0.2361;0.2871;0.1307
0000592102;9.8019;0.6823;7.7021;0.1897;0.2967;0.0841
0000592110;9.3470;0.5267;7.5441;0.1701;0.2771;0.0472
0000592178;7.4220;-1.8196;8.4467;0.0602;0.0188;-0.0867
0000592186;7.5106;-2.2386;8.4851;0.1043;-0.0165;-0.0878
0000592198;7.4675;-2.6288;8.5665;0.1749;-0.0703;-0.0837
0000592207;7.6064;-2.6480;8.5617;0.2266;-0.0897;-0.0726
0000592218;7.7428;-2.7174;8.6742;0.2940;-0.1199;-0.0524
0000592227;8.2863;-2.4995;8.5617;0.3400;-0.1216;-0.0436
0000592236;8.6981;-2.1931;8.8466;0.3603;-0.1186;-0.0376
0000592249;9.2751;-1.6089;9.0692;0.3729;-0.0958;-0.0155
0000592258;9.4212;-1.3623;9.0740;0.3689;-0.0735;-0.0083
0000592271;9.3206;-0.9505;9.0884;0.3523;-0.0626;-0.0253
0000592280;9.1123;-0.7302;8.9232;0.3112;-0.0553;-0.0520
0000592293;8.8418;-0.5531;8.4252;0.2533;-0.0514;-0.0937
0000592302;8.8107;-0.4812;8.2648;0.1828;-0.0232;-0.0913
0000592315;8.6766;-0.8475;8.1930;0.0770;-0.0017;-0.0909
0000592324;8.8490;-0.9074;8.1642;0.0112;0.0115;-0.0966
0000592333;8.6526;-1.3336;8.1475;-0.0428;0.0430;-0.0991
0000592346;8.7293;-1.7430;8.0469;-0.0958;0.0782;-0.1086
0000592355;8.6383;-2.0183;7.8937;-0.1162;0.0923;-0.1251
0000592368;8.4228;-2.1500;7.7548;-0.1303;0.1191;-0.1304
0000592377;8.3366;-2.3774;7.7859;-0.1308;0.1154;-0.1468
0000592390;8.0493;-2.4900;7.7452;-0.1186;0.1210;-0.1354
0000592399;7.6614;-2.6767;7.6351;-0.0970;0.1006;-0.1367
0000592468;7.7596;-1.8747;7.5705;0.0497;-0.1238;-0.0564
0000592477;7.7261;-1.7980;7.6926;0.0598;-0.1490;-0.0486
0000592486;8.1259;-1.4222;7.7333;0.0763;-0.1723;-0.0416
0000592499;8.2456;-1.3096;7.7620;0.0889;-0.1851;-0.0189
0000592508;8.3318;-1.0989;7.8003;0.1027;-0.1973;-0.0116
0000592521;8.5281;-0.7183;7.7955;0.1059;-0.1915;0.0092
0000592530;8.7412;-0.5650;7.7165;0.1053;-0.1909;0.0124
0000592543;8.6431;-0.5195;7.7668;0.0705;-0.1772;0.0187
0000592552;8.9519;-0.1293;7.8482;0.0430;-0.1440;0.0265
0000592565;8.9902;-0.1604;7.6327;0.0096;-0.1143;0.0115
0000592574;8.9759;-0.1604;7.6495;-0.0148;-0.0801;0.0043
0000592583;9.0094;-0.1532;7.7524;-0.0382;-0.0525;-0.0023
0000592596;8.8945;-0.4238;7.8530;-0.0617;-0.0109;-0.0176
0000592605;8.6694;-0.5794;7.9607;-0.0825;0.0157;-0.0209
0000592618;8.6886;-0.5866;8.0086;-0.0882;0.0409;-0.0344
0000592627;8.5425;-0.8571;7.8769;-0.0823;0.0600;-0.0328
0000592640;8.4587;-0.9768;7.6519;-0.0593;0.0581;-0.0366
0000592649;8.2887;-1.2258;7.5657;-0.0421;0.0420;-0.0446
0000592662;8.0780;-1.2091;7.5226;-0.0360;0.0281;-0.0528
0000592671;8.0565;-1.0894;7.5513;-0.0320;0.0207;-0.0582
0000592680;7.9487;-1.2498;7.4627;-0.0388;0.0191;-0.0574
0000592693;7.9487;-1.2905;7.4579;-0.0430;0.0027;-0.0698
0000592702;7.8219;-1.5179;7.4795;-0.0402;-0.0230;-0.0734
0000592774;8.2959;-1.7358;7.7333;0.0192;-0.1006;-0.0425
0000592783;8.5832;-1.2522;7.8362;0.0159;-0.0961;-0.0336
0000592796;8.6479;-1.1851;7.9296;0.0160;-0.0942;-0.0197
0000592805;8.7340;-1.1181;7.8889;0.0107;-0.0897;-0.0043
0000592817;8.8849;-0.7254;7.9440;0.0157;-0.0863;0.0067
0000592826;8.9376;-0.6057;7.9942;0.0025;-0.0650;0.0226
0000592835;8.8083;-0.6153;8.0278;-0.0079;-0.0606;0.0211
0000592848;8.7340;-0.4405;7.7428;-0.0254;-0.0504;0.0129
0000592857;8.5305;-0.7015;7.5920;-0.0486;-0.0340;0.0101
0000592869;8.5832;-0.6776;7.4508;-0.0707;-0.0163;0.0028
0000592878;8.5449;-0.9673;7.3263;-0.0863;0.0033;0.0016
0000592891;8.4851;-1.1301;7.2808;-0.0887;0.0029;-0.0286
0000592900;8.1594;-1.4820;7.4675;-0.0898;-0.0024;-0.0412
0000592912;8.0972;-1.4246;7.7835;-0.0879;-0.0281;-0.0673
0000592921;8.0182;-1.5634;7.9033;-0.0889;-0.0310;-0.0689
0000592930;7.9440;-1.6903;7.8386;-0.0706;-0.0486;-0.0783
0000592943;7.8219;-1.6305;7.7716;-0.0334;-0.0573;-0.0634
0000592952;7.7979;-1.8052;7.8554;-0.0107;-0.0738;-0.0625
0000593021;8.6718;-0.9984;7.3933;0.0045;-0.0222;-0.0758
0000593030;8.5258;-1.0367;7.4053;-0.0246;-0.0135;-0.0850
0000593043;8.4491;-1.0367;7.6495;-0.0565;-0.0172;-0.0930
0000593052;8.4922;-0.9744;7.8913;-0.0807;-0.0209;-0.0863
0000593064;8.1163;-1.4629;7.9057;-0.0829;-0.0437;-0.0879
0000593073;8.3270;-1.4222;7.9152;-0.0667;-0.0478;-0.0767
0000593086;8.0038;-1.6041;7.9272;-0.0372;-0.0686;-0.0538
0000593095;8.3031;-1.3599;7.6543;-0.0087;-0.0770;-0.0330
0000593104;8.0972;-1.4413;7.5657;0.0145;-0.0814;-0.0188
0000593116;8.1331;-1.2809;7.5609;0.0179;-0.0687;0.0000
0000593125;8.3893;-1.1923;7.5776;0.0253;-0.0641;0.0040
0000593138;8.6287;-1.2258;7.3957;0.0071;-0.0526;0.0145
0000593147;8.7077;-1.1756;7.4364;-0.0169;-0.0448;0.0045
0000593159;8.3989;-1.1923;7.8602;-0.0537;-0.0377;-0.0052
0000593168;8.3414;-1.3815;8.0732;-0.0846;-0.0372;-0.0009
0000593181;8.3438;-1.4964;8.0685;-0.0765;-0.0553;-0.0080
0000593190;8.2265;-1.4868;7.8578;-0.0456;-0.0679;-0.0061
0000593199;8.0661;-1.6688;7.7788;-0.0157;-0.0697;-0.0012
0000593211;8.0086;-1.2761;7.6327;0.0225;-0.0755;0.0117
0000593220;8.0613;-1.1971;7.5298;0.0313;-0.0613;0.0272
0000593233;8.2001;-1.0415;7.4388;0.0486;-0.0465;0.0256
0000593242;8.3390;-0.9720;7.2472;0.0517;-0.0306;0.0264
0000593311;8.3294;-1.5131;7.8697;-0.0195;-0.0533;-0.0574
0000593320;8.2289;-1.5562;7.7644;0.0095;-0.0610;-0.0440
0000593333;8.2432;-1.5012;7.5513;0.0472;-0.0698;-0.0398
0000593342;8.1618;-1.4581;7.4795;0.0687;-0.0670;-0.0208
0000593351;8.2528;-1.2785;7.5058;0.0822;-0.0654;-0.0180
0000593363;8.4994;-1.0511;7.5202;0.0775;-0.0534;-0.0105
0000593372;8.4396;-0.9098;7.5298;0.0614;-0.0329;-0.0049
0000593385;8.4372;-1.0223;7.6160;0.0250;-0.0117;-0.0093
0000593394;8.6048;-0.8882;7.7285;0.0037;-0.0137;-0.0180
0000593406;8.4420;-1.1301;7.8003;-0.0179;-0.0273;-0.0316
0000593415;8.5593;-1.2210;7.7548;-0.0240;-0.0277;-0.0328
0000593428;8.3917;-1.2737;7.7668;-0.0045;-0.0530;-0.0440
0000593437;8.4276;-1.2977;7.7596;0.0009;-0.0508;-0.0329
0000593446;8.3103;-1.1732;7.8003;0.0185;-0.0589;-0.0366
0000593458;8.2935;-1.1420;7.7620;0.0224;-0.0497;-0.0301
0000593467;8.3869;-1.0511;7.7093;0.0224;-0.0496;-0.0314
0000593480;8.3055;-0.8571;7.8961;0.0073;-0.0370;-0.0221
0000593489;8.4443;-0.8787;7.9823;-0.0076;-0.0428;-0.0226
0000593501;8.5521;-0.8691;7.7500;-0.0240;-0.0420;-0.0211
0000593510;8.3342;-1.0343;7.6279;-0.0266;-0.0430;-0.0274
0000593523;8.3965;-1.0726;7.6782;-0.0452;-0.0424;-0.0368
0000593532;8.4013;-1.1205;7.6447;-0.0605;-0.0362;-0.0374
0000593602;8.3342;-1.1684;7.6902;-0.0128;-0.0268;-0.0282
0000593611;8.2456;-1.0247;7.7189;-0.0095;-0.0261;-0.0326
0000593620;8.2361;-0.8954;7.6327;-0.0059;-0.0281;-0.0401
0000593633;8.2791;-0.8475;7.6710;-0.0290;-0.0312;-0.0429
0000593642;8.3941;-0.6225;7.8865;-0.0560;-0.0254;-0.0478
0000593654;8.5952;-0.6393;7.9679;-0.0930;-0.0188;-0.0510
0000593663;8.6646;-0.8284;7.9631;-0.1041;-0.0192;-0.0569
0000593676;8.4731;-1.0774;7.8482;-0.1063;-0.0164;-0.0534
0000593685;8.4443;-1.2665;7.7045;-0.0966;-0.0193;-0.0514
0000593697;8.4635;-1.3408;7.7237;-0.0874;-0.0193;-0.0486
0000593706;8.2384;-1.4246;7.5753;-0.0758;-0.0155;-0.0373
0000593715;8.1930;-1.3551;7.5322;-0.0777;-0.0053;-0.0314
0000593728;8.2456;-1.4126;7.3310;-0.0729;-0.0116;-0.0289
0000593737;8.2768;-1.3815;7.3957;-0.0823;-0.0064;-0.0236
0000593749;8.3175;-1.3623;7.4891;-0.0823;-0.0115;-0.0254
0000593758;8.2983;-1.2737;7.4220;-0.0829;-0.0234;-0.0320
0000593771;8.2696;-1.5897;7.4819;-0.0798;-0.0346;-0.0356
0000593780;8.2672;-1.6616;7.6519;-0.0806;-0.0384;-0.0273
0000593792;8.3151;-1.5634;7.6255;-0.0620;-0.0498;-0.0281
0000593801;8.3414;-1.5251;7.6423;-0.0520;-0.0602;-0.0220
0000593814;8.3653;-1.5012;7.6399;-0.0141;-0.0617;-0.0230
0000593823;8.2744;-1.6640;7.7692;-0.0059;-0.0488;-0.0164
0000593832;8.3246;-1.3336;7.9009;-0.0060;-0.0469;-0.0101
0000593902;8.4539;-0.9481;7.5417;-0.0341;-0.0626;0.0008
0000593911;8.2384;-1.2378;7.6519;-0.0488;-0.0510;0.0104
0000593924;8.4970;-1.0558;7.6160;-0.0618;-0.0561;-0.0028
0000593933;8.4084;-1.0894;7.6351;-0.0921;-0.0593;-0.0043
0000593945;8.3486;-1.3288;7.6974;-0.1194;-0.0570;-0.0096
0000593954;8.3246;-1.5107;7.7907;-0.1243;-0.0638;-0.0172
0000593967;8.2456;-1.5850;7.6926;-0.1179;-0.0569;-0.0203
0000593976;8.1810;-1.5227;7.8458;-0.0986;-0.0597;-0.0273
0000593988;8.1403;-1.5562;7.8530;-0.0763;-0.0558;-0.0289
0000593997;8.0278;-1.6712;7.8985;-0.0565;-0.0620;-0.0260
0000594006;8.2001;-1.7334;7.9009;-0.0309;-0.0618;-0.0285
0000594019;8.1762;-1.4772;7.7955;-0.0085;-0.0588;-0.0236
0000594028;8.3845;-1.2594;7.8219;0.0001;-0.0566;-0.0266
0000594040;8.4922;-1.2210;7.7931;-0.0053;-0.0460;-0.0256
0000594049;8.6263;-1.0247;7.7381;-0.0071;-0.0345;-0.0221
0000594062;8.5186;-1.0534;7.6543;-0.0238;-0.0230;-0.0237
0000594071;8.4348;-1.3001;7.7788;-0.0412;-0.0183;-0.0341
0000594083;8.5114;-1.2210;7.8051;-0.0730;-0.0268;-0.0354
0000594092;8.3103;-1.3048;7.8578;-0.0877;-0.0284;-0.0313
0000594105;8.4994;-1.1636;7.8961;-0.0863;-0.0346;-0.0260
0000594114;8.4635;-1.4269;7.8434;-0.0777;-0.0405;-0.0240
0000594123;8.3079;-1.4150;7.8219;-0.0770;-0.0494;-0.0171
0000594192;8.3222;-1.4437;7.5537;-0.0518;-0.0372;-0.0406
0000594201;8.1594;-1.5443;7.6112;-0.0670;-0.0376;-0.0502
0000594214;8.4084;-1.4198;7.7764;-0.0845;-0.0357;-0.0530
0000594223;8.4348;-1.5203;7.9511;-0.0810;-0.0298;-0.0501
0000594234;8.2456;-1.6544;7.9320;-0.0723;-0.0284;-0.0430
0000594243;8.3055;-1.5993;7.8865;-0.0675;-0.0348;-0.0457
0000594257;8.2289;-1.4461;7.7907;-0.0450;-0.0509;-0.0409
0000594266;8.3821;-1.2953;7.7428;-0.0238;-0.0654;-0.0433
0000594279;8.0996;-1.3910;7.6998;-0.0007;-0.0717;-0.0465
0000594288;8.0445;-1.4126;7.6591;0.0109;-0.0678;-0.0386
0000594297;8.1403;-1.2809;7.7333;0.0099;-0.0525;-0.0213
0000594309;8.2552;-1.1947;7.6184;-0.0004;-0.0481;-0.0213
0000594318;8.3606;-1.2282;7.6686;-0.0302;-0.0434;-0.0192
0000594331;8.4803;-1.3048;7.7261;-0.0685;-0.0473;-0.0316
0000594340;8.4731;-1.5443;8.0852;-0.0874;-0.0582;-0.0430
0000594352;8.2121;-1.7573;8.1475;-0.0683;-0.0729;-0.0468
0000594361;8.5281;-1.8076;8.3055;-0.0484;-0.0743;-0.0412
0000594374;8.3079;-1.6257;8.0972;-0.0088;-0.0765;-0.0168
0000594383;8.2815;-1.3958;8.0948;0.0033;-0.0817;-0.0125
0000594392;8.3989;-1.3264;8.1355;0.0089;-0.0770;-0.0101
0000594404;8.3366;-1.0199;7.9703;0.0109;-0.0841;-0.0127
0000594413;8.3989;-0.8308;7.8482;0.0089;-0.0741;-0.0187
0000594481;8.1570;-2.0303;7.7740;-0.1079;-0.0023;-0.0823
0000594490;8.1714;-2.0949;7.9033;-0.1003;-0.0051;-0.0793
0000594502;8.0804;-2.1117;7.8793;-0.0673;-0.0242;-0.0630
0000594511;8.1523;-1.9944;7.9224;-0.0181;-0.0484;-0.0510
0000594524;7.9535;-1.8842;7.9033;0.0131;-0.0634;-0.0091
0000594533;8.0709;-1.5730;8.0182;0.0336;-0.0799;0.0088
0000594542;8.0254;-1.3575;7.9679;0.0425;-0.0982;0.0145
0000594554;8.3653;-1.0558;7.9655;0.0453;-0.1049;0.0180
0000594563;8.3558;-1.0750;7.8985;0.0440;-0.0993;0.0155
0000594576;8.5329;-0.8164;7.6758;0.0377;-0.0893;0.0052
0000594585;8.7700;-0.7973;7.6231;0.0226;-0.0757;0.0009
0000594597;8.6718;-1.0223;7.4627;0.0000;-0.0655;-0.0240
0000594606;8.7580;-1.1684;7.4077;-0.0261;-0.0424;-0.0382
0000594619;8.8442;-1.3815;7.6614;-0.0549;-0.0309;-0.0592
0000594628;8.8131;-1.5730;7.7165;-0.0811;-0.0155;-0.0589
0000594637;8.4539;-1.8747;7.8147;-0.0870;-0.0140;-0.0682
0000594649;8.1403;-1.9968;7.9248;-0.0834;-0.0237;-0.0604
0000594658;8.3438;-1.8747;8.1930;-0.0600;-0.0452;-0.0452
0000594671;8.0780;-1.8914;8.2959;-0.0280;-0.0593;-0.0105
0000594680;7.8769;-1.9872;8.2384;-0.0069;-0.0549;0.0211
0000594692;8.1570;-1.4629;8.1738;0.0268;-0.0749;0.0310
0000594701;8.2528;-1.2019;8.0972;0.0388;-0.0814;0.0272
0000594770;8.4922;-1.3982;7.6160;-0.1440;-0.0264;-0.0508
0000594779;8.3749;-1.7023;7.6902;-0.1567;-0.0270;-0.0608
0000594791;8.1834;-2.0039;7.7644;-0.1555;-0.0189;-0.0602
0000594800;8.2193;-2.0494;7.7500;-0.1271;-0.0136;-0.0556
0000594809;8.2408;-2.1955;7.8099;-0.0815;-0.0188;-0.0394
0000594822;8.0637;-2.2386;8.0254;-0.0238;-0.0193;-0.0135
0000594831;8.3246;-1.8387;7.9990;0.0083;-0.0318;-0.0075
0000594843;8.4204;-1.5083;8.0804;0.0342;-0.0478;-0.0052
0000594852;8.3342;-1.3743;8.1068;0.0269;-0.0529;0.0035
0000594865;8.2097;-1.0750;7.9871;0.0111;-0.0730;-0.0041
0000594874;8.2983;-0.9601;7.9511;0.0099;-0.0843;-0.0116
0000594886;8.3175;-0.9361;7.8410;0.0012;-0.0771;-0.0067
0000594895;8.2456;-0.9864;7.7381;-0.0037;-0.0797;-0.0037
0000594904;8.4252;-0.9744;7.7979;-0.0329;-0.0671;-0.0012
0000594917;8.3989;-1.0870;7.7189;-0.0675;-0.0650;-0.0140
0000594926;8.6095;-1.2402;7.7524;-0.0895;-0.0586;-0.0183
0000594938;8.6766;-1.3360;7.8554;-0.1015;-0.0601;-0.0221
0000594947;8.5569;-1.7286;7.6327;-0.0933;-0.0602;-0.0342
0000594960;8.5329;-1.8316;7.7285;-0.0729;-0.0472;-0.0308
0000594969;8.6431;-1.9896;7.8865;-0.0695;-0.0374;-0.0322
0000594981;8.5305;-1.9561;8.0206;-0.0525;-0.0286;-0.0261
0000594990;8.5641;-1.8220;8.0206;-0.0445;-0.0099;-0.0139
0000595059;8.2791;-1.2905;7.8027;-0.0268;-0.0408;-0.0333
0000595068;8.4084;-1.3096;7.7668;-0.0434;-0.0374;-0.0282
0000595077;8.5617;-1.3599;7.6351;-0.0593;-0.0282;-0.0242
0000595089;8.5545;-1.7142;7.4986;-0.0655;-0.0324;-0.0232
0000595098;8.5569;-1.7047;7.5753;-0.0654;-0.0338;-0.0270
0000595111;8.4467;-1.9082;7.6806;-0.0666;-0.0330;-0.0240
0000595120;8.4731;-1.9345;7.7381;-0.0480;-0.0392;-0.0294
0000595132;8.3222;-1.8531;7.7692;-0.0350;-0.0480;-0.0163
0000595141;8.2408;-2.0063;7.8673;-0.0241;-0.0497;-0.0028
0000595154;8.0302;-2.0375;7.9703;0.0075;-0.0580;-0.0047
0000595163;8.3246;-1.7023;7.9080;0.0222;-0.0573;0.0085
0000595172;8.1379;-1.6831;8.0038;0.0358;-0.0697;0.0113
0000595184;8.4803;-1.3144;7.8961;0.0444;-0.0737;0.0201
0000595193;8.4467;-1.3671;7.9128;0.0465;-0.0771;0.0193
0000595206;8.5353;-1.2043;8.0038;0.0200;-0.0626;0.0099
0000595215;8.6000;-1.0199;7.8961;0.0000;-0.0553;-0.0013
0000595227;8.4587;-1.3120;7.8721;-0.0232;-0.0516;-0.0152
0000595236;8.4467;-1.2378;7.9392;-0.0366;-0.0554;-0.0285
0000595249;8.3390;-1.4437;7.8865;-0.0454;-0.0592;-0.0374
0000595258;8.3366;-1.5347;7.9176;-0.0465;-0.0538;-0.0418
0000595270;8.2768;-1.5083;7.8578;-0.0330;-0.0584;-0.0442
0000595279;8.2648;-1.5921;7.9033;-0.0242;-0.0697;-0.0418
0000595288;8.4587;-1.6017;7.9320;-0.0165;-0.0742;-0.0410
0000595358;8.5665;-1.4796;7.9871;-0.0617;-0.0225;-0.0324
0000595367;8.7532;-1.3455;7.8721;-0.0602;-0.0250;-0.0389
0000595379;8.4539;-1.6568;7.8961;-0.0492;-0.0272;-0.0396
0000595388;8.4491;-1.7334;7.7668;-0.0453;-0.0163;-0.0345
0000595401;8.2959;-1.6927;7.7620;-0.0328;-0.0163;-0.0300
0000595410;8.4707;-1.6161;7.7333;-0.0328;-0.0132;-0.0264
0000595422;8.2480;-1.5993;7.8841;-0.0448;-0.0137;-0.0252
0000595431;8.4755;-1.6879;7.9320;-0.0546;-0.0109;-0.0175
0000595440;8.3797;-1.5921;7.9152;-0.0502;-0.0187;-0.0105
0000595453;8.5353;-1.7286;7.8195;-0.0440;-0.0277;0.0053
0000595462;8.3653;-1.7741;7.8075;-0.0250;-0.0400;0.0059
0000595474;8.2696;-1.7430;7.7740;-0.0089;-0.0468;0.0131
0000595483;8.3917;-1.5969;7.6926;-0.0011;-0.0472;0.0208
0000595496;8.2552;-1.5395;7.7237;0.0060;-0.0466;0.0281
0000595505;8.3653;-1.4988;7.6950;0.0061;-0.0529;0.0232
0000595517;8.4228;-1.3695;7.7764;-0.0001;-0.0500;0.0161
0000595526;8.2863;-1.3719;7.8123;-0.0149;-0.0400;0.0187
0000595535;8.3151;-1.5251;7.7955;-0.0211;-0.0456;0.0065
0000595548;8.4491;-1.5275;8.0110;-0.0312;-0.0438;-0.0003
0000595557;8.5329;-1.5299;8.0828;-0.0388;-0.0400;0.0009
0000595569;8.4467;-1.5371;8.1211;-0.0288;-0.0337;0.0000
0000595578;8.4803;-1.7262;8.1139;0.0001;-0.0364;-0.0039
0000595647;8.2887;-1.4820;7.9104;-0.0361;-0.0123;0.0005
0000595656;8.4156;-1.4030;7.9392;-0.0402;-0.0187;-0.0100
0000595668;8.4898;-1.5562;8.0421;-0.0556;-0.0171;-0.0109
0000595677;8.5377;-1.5945;8.0254;-0.0550;-0.0196;-0.0196
0000595691;8.1954;-1.8866;8.0182;-0.0450;-0.0188;-0.0153
0000595700;8.3414;-1.8148;8.0756;-0.0478;-0.0145;0.0004
0000595709;8.5688;-1.7980;8.0014;-0.0386;-0.0095;0.0071
0000595722;8.4611;-1.7621;7.8099;-0.0195;-0.0060;0.0163
0000595731;8.4587;-1.6616;7.7333;-0.0072;-0.0045;0.0193
0000595743;8.4300;-1.5802;7.8913;-0.0003;0.0027;0.0143
0000595752;8.6383;-1.3838;7.9080;-0.0069;0.0113;0.0173
0000595765;8.4013;-1.5586;8.0158;-0.0056;0.0236;0.0183
0000595774;8.6143;-1.4198;7.8075;-0.0020;0.0288;0.0193
0000595786;8.4827;-1.6664;7.6782;0.0025;0.0320;0.0139
0000595795;8.6119;-1.4413;7.6614;-0.0052;0.0380;0.0123
0000595804;8.6095;-1.6376;7.5274;0.0007;0.0329;-0.0008
0000595817;8.4132;-1.5945;7.6184;-0.0063;0.0404;-0.0012
0000595826;8.3175;-1.5658;7.8243;-0.0112;0.0433;0.0008
0000595838;8.2145;-1.4461;7.8027;-0.0218;0.0372;0.0045
0000595847;8.0517;-1.5634;8.0804;-0.0269;0.0294;0.0072
0000595916;8.4491;-1.4102;8.0158;0.0357;-0.0341;0.0277
0000595925;8.3342;-1.4653;7.8530;0.0222;-0.0273;0.0325
0000595934;8.3917;-1.4269;7.9751;0.0043;-0.0269;0.0242
0000595946;8.5688;-1.1540;7.9320;-0.0320;-0.0238;0.0156
0000595955;8.6574;-1.1971;7.9152;-0.0544;-0.0246;0.0072
0000595968;8.5521;-1.4365;8.0445;-0.0765;-0.0230;-0.0017
0000595975;8.3917;-1.6712;7.9918;-0.0809;-0.0192;-0.0039
0000595986;8.3941;-1.7549;7.8266;-0.0737;-0.0088;0.0036
0000595994;8.4827;-1.7549;7.8865;-0.0598;-0.0157;0.0015
0000596006;8.3701;-1.7741;7.8099;-0.0353;-0.0151;0.0024
0000596014;8.4515;-1.8004;7.8386;-0.0246;-0.0117;0.0069
0000596022;8.3725;-1.8124;7.9320;-0.0107;-0.0136;0.0123
0000596033;8.5736;-1.5658;7.8841;-0.0155;0.0003;0.0207
0000596041;8.4874;-1.6496;7.8219;-0.0147;-0.0032;0.0197
