time;acc_x;acc_y;acc_z;gyro_x;gyro_y;gyro_z
0000622372;3.9720;2.7557;1.1325;-0.2607;0.0815;0.1318
0000622381;4.1108;2.9185;1.1325;-0.2723;0.0827;0.1290
0000622388;4.0582;2.8563;1.2115;-0.2936;0.0689;0.1228
0000622396;3.8547;2.6432;1.2186;-0.3031;0.0592;0.1098
0000622407;3.7757;2.5450;1.2737;-0.3204;0.0377;0.0939
0000622415;3.9097;2.6815;1.3527;-0.3250;0.0229;0.0849
0000622423;3.7350;2.6480;1.0630;-0.3283;-0.0059;0.0805
0000622491;3.2609;4.5370;2.0207;-0.6087;-0.3020;-0.1054
0000622499;3.2489;4.5274;1.7597;-0.6769;-0.3625;-0.0949
0000622510;3.7302;3.7781;1.3072;-0.7791;-0.4318;-0.0616
0000622518;4.0630;3.2346;1.0104;-0.8222;-0.4794;-0.0614
0000622530;4.7860;2.4301;0.7063;-0.8358;-0.5147;-0.0436
0000622538;4.9321;2.2505;0.8954;-0.8304;-0.5139;-0.0296
0000622549;5.0542;2.8491;1.6759;-0.8132;-0.4668;0.0294
0000622557;4.7549;3.4189;2.1931;-0.8136;-0.4190;0.0731
0000622565;4.6040;4.0031;2.4277;-0.8651;-0.3448;0.1045
0000622577;3.9911;4.8435;2.8299;-0.9474;-0.2762;0.1504
0000622585;3.5817;5.8538;3.4572;-0.9701;-0.2526;0.2224
0000622596;3.3184;7.3981;4.0965;-1.0539;-0.2150;0.3509
0000622604;3.5267;8.6383;4.1994;-1.2164;-0.1399;0.4037
0000622616;2.9616;9.5912;4.4963;-1.5099;0.0056;0.3718
0000622624;2.5402;10.3789;4.7118;-1.6971;0.0211;0.3877
0000622632;2.4373;9.5265;4.8483;-1.8195;-0.0763;0.4858
0000622643;2.7078;9.8497;5.9687;-1.7998;-0.2316;0.5462
0000622651;3.1340;10.3789;6.5434;-1.7537;-0.3521;0.4814
0000622663;2.3439;11.6023;6.7540;-1.7027;-0.5617;0.3171
0000622671;2.5043;11.0684;6.3207;-1.7724;-0.6984;0.1903
0000622682;1.3479;9.8881;5.7916;-1.9084;-0.8813;0.0402
0000622690;1.3647;7.9080;4.8866;-2.0419;-1.0103;-0.1118
0000622758;9.3781;2.5331;2.5738;-1.5339;-1.0160;-0.3978
0000622766;9.7779;1.8268;2.0758;-1.5274;-0.8817;-0.2943
0000622774;9.9264;0.9050;1.8627;-1.5315;-0.7282;-0.2154
0000622785;9.6486;-0.0431;2.2170;-1.5187;-0.5325;-0.1202
0000622793;8.8921;-1.0032;2.5498;-1.4789;-0.4069;-0.0213
0000622805;7.8027;-1.2354;3.0335;-1.2590;-0.2497;0.0735
0000622813;6.6774;-0.6560;3.3160;-1.0190;-0.1927;0.1246
0000622824;5.9233;0.4812;3.6440;-0.7510;-0.1359;0.2001
0000622832;5.8419;1.3312;3.9456;-0.6362;-0.1108;0.2288
0000622844;5.5091;2.0375;3.9840;-0.6069;-0.0801;0.2196
0000622852;5.6719;2.1261;4.0821;-0.6371;-0.0614;0.1755
0000622860;6.0358;1.8459;3.8906;-0.6496;-0.0358;0.1199
0000622871;6.4763;1.0558;3.9241;-0.6699;-0.0232;0.0561
0000622879;6.6846;0.6129;3.8786;-0.6508;-0.0183;0.0269
0000622891;6.8761;-0.0622;3.8475;-0.5798;0.0021;0.0064
0000622899;7.0174;-0.1149;4.0510;-0.5211;0.0145;0.0000
0000622910;6.6726;0.0431;4.7429;-0.4387;0.0546;-0.0047
0000622918;5.9017;0.1508;5.2888;-0.3757;0.0822;-0.0056
0000622930;5.4660;0.8619;5.4827;-0.2899;0.1140;0.0024
0000622938;5.0206;1.1660;5.6336;-0.2397;0.1092;0.0272
0000622946;5.0087;1.4198;5.5330;-0.2301;0.1018;0.0743
0000622957;5.0350;1.6281;5.5593;-0.2425;0.0677;0.1462
0000622965;5.2050;1.5945;5.4013;-0.2491;0.0382;0.1873
0000623033;5.8538;0.6584;5.5737;-0.2154;0.0500;0.1684
0000623041;5.8658;0.5076;5.4109;-0.1775;0.0500;0.1921
0000623052;5.6910;0.2394;5.2648;-0.1299;0.0678;0.2304
0000623060;5.9879;0.1341;5.1260;-0.0917;0.0616;0.2638
0000623068;5.9256;0.0838;5.1882;-0.0564;0.0581;0.2891
0000623080;5.6551;-0.0192;5.0613;-0.0159;0.0496;0.3228
0000623088;5.5761;-0.0168;5.1212;0.0041;0.0394;0.3345
0000623099;5.7102;0.5243;5.0853;0.0273;0.0333;0.3677
0000623107;5.6000;0.7446;5.0566;0.0414;0.0249;0.3765
0000623119;5.6790;1.0032;4.8698;0.0361;0.0171;0.3841
0000623127;5.7461;0.9840;4.6639;0.0370;0.0100;0.3876
0000623135;6.1028;0.8188;4.5059;0.0332;0.0123;0.3940
0000623146;6.4524;0.3543;4.4077;0.0401;0.0224;0.4000
0000623154;6.5888;-0.0694;4.3048;0.0580;0.0328;0.3980
0000623166;6.8283;-0.5291;4.2904;0.0977;0.0698;0.4118
0000623174;6.9671;-0.6632;4.3718;0.1274;0.0921;0.4074
0000623182;6.7445;-0.9146;4.2928;0.1595;0.1196;0.4155
0000623193;6.5290;-0.9888;4.3000;0.2148;0.1451;0.4491
0000623201;6.4500;-1.0151;4.1827;0.2586;0.1613;0.4776
0000623213;6.4572;-0.9601;4.0534;0.3166;0.1887;0.5040
0000623221;6.2656;-1.1229;3.8044;0.3431;0.2014;0.5161
0000623233;6.2106;-0.9912;3.7685;0.3704;0.2316;0.5351
0000623241;6.2177;-0.8715;3.7469;0.3821;0.2486;0.5268
0000623309;5.6120;-0.2227;3.6679;0.4758;0.1800;0.3734
0000623317;5.6479;-0.3424;3.6583;0.4690;0.1500;0.3353
0000623325;5.9185;-0.4070;3.7445;0.4568;0.1351;0.3000
0000623336;5.6120;-0.5387;3.7637;0.4676;0.1086;0.2611
0000623344;5.8083;-0.5555;3.8427;0.4939;0.0878;0.2392
0000623356;5.8107;-0.6321;3.6799;0.5073;0.0557;0.2088
0000623364;5.8682;-0.5794;3.6775;0.5044;0.0468;0.1949
0000623375;5.9640;-0.2849;3.7541;0.5083;0.0329;0.1927
0000623383;6.0741;-0.1077;3.7230;0.4996;0.0205;0.1925
0000623391;6.1507;-0.0431;3.8068;0.4924;0.0080;0.1943
0000623403;6.3327;-0.0455;3.8930;0.4850;-0.0153;0.1920
0000623411;6.4979;0.2251;3.8523;0.4843;-0.0272;0.1993
0000623422;6.4428;0.0886;4.0247;0.4835;-0.0181;0.1936
0000623430;6.5481;0.1796;3.9385;0.4898;-0.0085;0.1836
0000623442;6.4643;0.2514;4.0318;0.4832;0.0127;0.1643
0000623450;6.6080;0.4573;3.9217;0.4743;0.0184;0.1748
0000623458;6.8642;0.7494;3.9768;0.4333;0.0274;0.1863
0000623469;6.9911;0.9170;4.1156;0.4108;0.0325;0.2006
0000623477;6.7732;0.7709;4.1420;0.3756;0.0444;0.2057
0000623489;6.6750;0.6991;4.0845;0.3535;0.0544;0.1993
0000623497;6.3710;0.5890;4.1037;0.3465;0.0674;0.2040
0000623505;6.4117;0.6033;4.1683;0.3581;0.0777;0.2057
0000623517;6.2513;0.2466;4.0462;0.3840;0.0810;0.1973
0000623525;6.0310;0.3879;4.0007;0.3724;0.0709;0.1881
0000623593;5.4205;1.8651;4.5059;0.3405;-0.1454;0.0789
0000623601;5.5186;1.7813;4.4532;0.3323;-0.1787;0.0500
0000623612;5.6719;1.8699;4.2904;0.3276;-0.2326;-0.0048
0000623620;5.5258;1.7621;4.2521;0.3198;-0.2730;-0.0337
0000623628;5.3750;1.3096;4.2617;0.3155;-0.3163;-0.0737
0000623640;5.4085;1.3719;4.2090;0.2891;-0.3832;-0.1398
0000623648;5.2337;1.3503;4.1300;0.2769;-0.4291;-0.1839
0000623659;5.3367;1.7071;4.0917;0.2397;-0.4847;-0.2278
0000623667;5.2792;1.4174;4.1970;0.2157;-0.5296;-0.2719
0000623679;5.2170;1.5155;4.1396;0.2064;-0.5866;-0.3115
0000623687;5.3367;1.4629;4.1013;0.1903;-0.6347;-0.3488
0000623698;5.3893;1.5203;4.0893;0.1844;-0.6839;-0.3828
0000623706;5.5306;1.4892;4.1396;0.1699;-0.7101;-0.3992
0000623714;5.5857;1.6783;3.9959;0.1514;-0.7450;-0.4090
0000623726;5.8993;2.0542;4.0797;0.1251;-0.8042;-0.4253
0000623734;6.0071;2.1069;4.2234;0.1066;-0.8347;-0.4241
0000623745;6.2177;2.2170;4.2473;0.0751;-0.8653;-0.4159
0000623753;6.2704;2.3128;4.3359;0.0604;-0.8813;-0.4065
0000623765;6.5649;2.3128;4.3287;0.0466;-0.8809;-0.3780
0000623773;6.8450;2.7677;4.2066;0.0570;-0.8772;-0.3729
0000623781;6.9719;2.7629;4.1970;0.0653;-0.8601;-0.3627
0000623793;7.1658;2.6791;4.1132;0.0686;-0.8183;-0.3210
0000623801;7.0964;2.5594;4.1515;0.0921;-0.8054;-0.2899
0000623869;7.6734;2.0877;3.3878;0.1402;-0.5023;-0.0721
0000623877;7.7381;1.8411;3.3471;0.1250;-0.4590;-0.0328
0000623889;7.7931;1.8387;3.4716;0.1171;-0.4126;0.0290
0000623897;7.8290;1.7334;3.4046;0.1150;-0.3797;0.0646
0000623908;7.9392;1.5012;3.3734;0.1271;-0.3425;0.1051
0000623916;7.8003;1.3192;3.5841;0.1358;-0.3032;0.1143
0000623924;7.9128;1.4102;3.4500;0.1492;-0.2765;0.1112
0000623936;8.1427;1.5131;3.4429;0.1616;-0.1997;0.1045
0000623944;8.0876;1.7597;3.3208;0.1588;-0.1348;0.1057
0000623955;7.9583;1.9609;3.5003;0.1604;-0.0521;0.1029
0000623963;7.8865;2.1093;3.7302;0.1693;0.0137;0.1026
0000623975;7.7524;2.4948;3.8906;0.1793;0.1059;0.1266
0000623983;7.7333;2.6025;3.8571;0.1824;0.1559;0.1498
0000623991;7.5561;2.7988;3.8211;0.1887;0.2040;0.1843
0000624002;7.5417;2.8850;3.8164;0.2204;0.2386;0.2268
0000624010;7.4053;2.7557;3.6679;0.2421;0.2609;0.2606
0000624022;7.1347;2.6887;3.5338;0.2605;0.2836;0.2976
0000624030;7.1204;2.6264;3.4860;0.2666;0.2903;0.3131
0000624038;7.2520;2.6121;3.3399;0.2617;0.3032;0.3210
0000624049;7.2568;2.5977;3.2394;0.2597;0.3022;0.3072
0000624057;7.1778;2.3846;3.2609;0.2511;0.3082;0.2886
0000624069;7.1635;2.4397;3.1029;0.2357;0.2962;0.2467
0000624077;7.0677;2.4612;3.1915;0.2154;0.2859;0.2126
0000624145;6.2944;2.1165;3.1316;0.1184;-0.0017;0.0087
0000624153;6.3087;2.0734;3.0933;0.1378;-0.0406;-0.0192
0000624161;6.5170;2.2936;3.1029;0.1423;-0.0659;-0.0384
0000624173;6.7516;2.1093;3.0263;0.1631;-0.0969;-0.0687
0000624181;6.9121;2.2362;3.0526;0.1739;-0.1053;-0.0834
0000624192;6.9839;2.2889;2.9736;0.1720;-0.1118;-0.1051
0000624200;7.0509;2.3272;2.9832;0.1799;-0.1152;-0.1142
0000624212;7.1539;2.4565;2.9185;0.1680;-0.1159;-0.1158
0000624220;7.0126;2.2865;2.9712;0.1644;-0.1175;-0.1096
0000624231;6.9001;2.3415;3.0981;0.1607;-0.1320;-0.1085
0000624239;6.7756;2.2218;3.1867;0.1661;-0.1368;-0.1066
0000624247;6.8354;2.3798;3.0837;0.1651;-0.1623;-0.1083
0000624259;6.7157;2.4421;3.1173;0.1672;-0.1852;-0.1051
0000624267;6.8546;2.5139;3.1819;0.1591;-0.2005;-0.1015
0000624278;6.6726;2.4229;3.2154;0.1528;-0.2242;-0.1164
0000624286;6.6583;2.3703;3.1340;0.1480;-0.2369;-0.1268
0000624298;6.8067;2.6025;3.0550;0.1246;-0.2419;-0.1459
0000624306;6.9288;2.4660;2.9904;0.1176;-0.2515;-0.1589
0000624314;6.9983;2.4804;2.9760;0.1115;-0.2571;-0.1669
0000624325;7.0366;2.5402;2.8706;0.0989;-0.2566;-0.1713
0000624333;7.1970;2.6360;3.0167;0.0851;-0.2550;-0.1732
0000624345;7.1036;2.5618;2.9736;0.0661;-0.2478;-0.1697
0000624353;7.1682;2.6025;2.8994;0.0577;-0.2426;-0.1704
0000624421;7.2329;2.3152;2.7198;0.0289;-0.1669;-0.1258
0000624429;7.4005;2.2577;2.8443;0.0322;-0.1568;-0.1146
0000624441;7.3239;2.2266;2.8156;0.0360;-0.1378;-0.0861
0000624449;7.2305;2.1117;2.9473;0.0432;-0.1322;-0.0706
0000624457;7.3789;2.3367;2.9209;0.0404;-0.1132;-0.0488
0000624468;7.2113;2.2697;2.9353;0.0413;-0.0951;-0.0330
0000624476;7.4364;2.3176;2.8850;0.0412;-0.0897;-0.0234
0000624488;7.2784;2.3128;2.8706;0.0416;-0.0734;-0.0101
0000624496;7.4148;2.3631;2.8850;0.0425;-0.0703;-0.0060
0000624507;7.1850;2.2865;2.9042;0.0349;-0.0636;-0.0037
0000624515;7.1299;2.2338;2.9425;0.0346;-0.0594;-0.0115
0000624523;7.1754;2.2482;3.0358;0.0336;-0.0472;-0.0191
0000624535;7.1730;2.3128;2.8946;0.0282;-0.0308;-0.0177
0000624543;7.1587;2.2889;2.9784;0.0234;-0.0217;-0.0165
0000624554;7.1922;2.3176;3.0191;0.0392;-0.0232;-0.0169
0000624562;6.9839;2.2027;2.8635;0.0528;-0.0183;-0.0107
0000624574;7.1084;2.1835;2.8826;0.0763;-0.0249;-0.0097
0000624582;6.9983;2.2290;2.9904;0.0829;-0.0197;-0.0079
0000624593;6.9408;2.3966;2.9090;0.0989;-0.0326;-0.0163
0000624601;6.9025;2.4181;2.9401;0.1035;-0.0324;-0.0100
0000624609;6.8785;2.4948;2.8730;0.0865;-0.0316;-0.0083
0000624621;7.0318;2.5905;2.9880;0.0750;-0.0354;-0.0087
0000624629;7.0150;2.4900;2.8443;0.0663;-0.0354;-0.0101
0000624697;7.0054;2.4014;2.8012;0.0809;-0.0326;0.0027
0000624705;6.8426;2.2003;2.7988;0.0687;-0.0203;0.0064
0000624717;6.8091;2.2721;2.9473;0.0806;-0.0280;-0.0039
0000624725;6.8259;2.3224;2.8371;0.0745;-0.0282;0.0017
0000624733;6.7995;2.1955;2.7845;0.0826;-0.0354;-0.0009
0000624744;7.0030;2.3607;2.7390;0.0781;-0.0414;-0.0116
0000624752;6.7516;2.3032;2.8467;0.0777;-0.0476;-0.0209
0000624764;6.8761;2.1404;2.8419;0.0729;-0.0332;-0.0289
0000624772;6.9312;2.2625;2.8970;0.0826;-0.0253;-0.0489
0000624783;7.0294;2.2889;2.8491;0.1027;-0.0172;-0.0644
0000624791;6.9216;2.4062;2.9066;0.1126;-0.0205;-0.0809
0000624799;6.9288;2.3176;2.8922;0.1227;-0.0207;-0.0817
0000624811;7.0437;2.6169;2.7916;0.1292;-0.0117;-0.0757
0000624819;6.8402;2.5522;2.9042;0.1352;-0.0164;-0.0718
0000624830;7.1467;2.9880;2.9233;0.1251;-0.0120;-0.0516
0000624838;6.8378;2.9544;2.9449;0.1182;-0.0108;-0.0358
0000624850;6.9432;3.0023;2.9042;0.0918;-0.0175;-0.0234
0000624858;6.9216;3.0574;2.9281;0.0722;-0.0215;-0.0101
0000624869;6.9719;3.1101;2.9161;0.0422;-0.0305;-0.0052
0000624877;7.0102;3.0406;2.9784;0.0253;-0.0285;-0.0051
0000624885;7.0605;3.1077;2.9497;-0.0051;-0.0192;-0.0037
0000624897;7.2784;2.9999;2.9736;-0.0316;-0.0163;-0.0009
0000624905;7.0006;2.6240;3.0406;-0.0430;-0.0183;0.0000
0000624971;6.9168;2.0039;2.9161;-0.1031;0.0144;-0.0370
0000624979;6.9719;2.0877;2.8084;-0.0965;0.0222;-0.0402
0000624991;6.9025;2.1787;2.7318;-0.0971;0.0356;-0.0341
0000624999;6.7181;2.2218;2.6600;-0.0950;0.0304;-0.0420
0000625010;6.8187;2.3439;2.6743;-0.1146;0.0444;-0.0313
0000625018;6.8187;2.4205;2.6217;-0.1260;0.0450;-0.0292
0000625026;6.8283;2.5091;2.7605;-0.1299;0.0434;-0.0258
0000625038;6.9073;2.6312;2.7126;-0.1332;0.0405;-0.0220
0000625046;6.8307;2.4708;2.6432;-0.1302;0.0378;-0.0204
0000625057;6.7325;2.4110;2.6863;-0.1226;0.0281;-0.0236
0000625065;6.6511;2.2266;2.5809;-0.1172;0.0345;-0.0217
0000625077;6.7109;2.1763;2.5666;-0.1142;0.0444;-0.0173
0000625085;6.8402;2.0806;2.6121;-0.1073;0.0458;-0.0233
0000625093;6.7852;2.0375;2.4948;-0.1098;0.0457;-0.0212
0000625104;6.6942;2.0231;2.5139;-0.1152;0.0589;-0.0067
0000625112;6.7516;1.9609;2.4708;-0.1122;0.0578;-0.0020
0000625124;6.7277;1.8866;2.4277;-0.1071;0.0556;0.0129
0000625132;6.6966;1.9920;2.4134;-0.1062;0.0569;0.0233
0000625143;6.6176;1.8364;2.3559;-0.1090;0.0538;0.0260
0000625151;6.7133;1.8603;2.2529;-0.1011;0.0516;0.0265
0000625159;6.8307;1.9992;2.2218;-0.1077;0.0642;0.0314
0000625171;6.9599;1.8651;2.2769;-0.1148;0.0745;0.0273
0000625179;6.8378;1.8268;2.2482;-0.1216;0.0969;0.0306
0000625247;6.7540;3.1532;2.0782;0.1815;0.1039;-0.0713
0000625255;6.6559;3.5865;2.1691;0.2126;0.0959;-0.0862
0000625266;6.4811;4.0438;2.1763;0.2438;0.0827;-0.0971
0000625274;6.5912;4.2952;2.2745;0.2514;0.0694;-0.0915
0000625282;6.5553;4.3167;2.2697;0.2377;0.0618;-0.0787
0000625294;6.7852;3.9361;2.0207;0.1864;0.0496;-0.0461
0000625302;6.9408;3.6607;1.9106;0.1475;0.0489;-0.0305
0000625313;7.0366;3.0789;2.0470;0.1115;0.0637;-0.0104
0000625321;7.1204;2.6767;1.9992;0.0715;0.0767;0.0016
0000625333;7.1084;2.3008;2.0949;0.0478;0.0886;0.0189
0000625341;7.0150;1.8459;2.0782;0.0377;0.1010;0.0360
0000625349;6.9384;1.6065;2.0542;0.0370;0.1118;0.0456
0000625360;6.9336;1.4174;2.1380;0.0392;0.1338;0.0666
0000625368;6.7301;1.3575;1.9824;0.0533;0.1419;0.0674
0000625380;6.5553;1.6735;2.0231;0.0646;0.1384;0.0510
0000625388;6.5625;1.9249;1.9872;0.0616;0.1327;0.0344
0000625399;6.4883;2.5259;2.0853;0.0737;0.1164;0.0128
0000625407;6.5074;2.8132;2.0446;0.0687;0.1118;0.0153
0000625415;6.4524;2.9640;2.1093;0.0605;0.1098;0.0111
0000625427;6.7971;2.9329;2.1117;0.0480;0.1017;0.0093
0000625435;6.9767;2.9928;2.1524;0.0168;0.1128;0.0249
0000625503;6.8187;0.3519;1.3815;-0.2694;0.2747;0.0634
0000625511;6.8929;0.5722;1.4653;-0.2963;0.3002;0.0533
0000625523;6.5649;0.6512;1.5730;-0.3295;0.3303;0.0477
0000625531;6.5721;0.9194;1.8052;-0.3443;0.3491;0.0470
0000625539;6.4308;0.8835;1.9345;-0.3722;0.3704;0.0497
0000625550;6.5841;1.0175;1.9034;-0.4077;0.3876;0.0334
0000625558;6.5457;0.6967;1.8340;-0.4342;0.3984;0.0222
0000625570;6.5338;0.2897;1.5754;-0.4826;0.4246;-0.0005
0000625578;6.5481;-0.3280;1.4413;-0.5065;0.4310;-0.0192
0000625589;6.8881;-0.5435;1.1756;-0.5356;0.4339;-0.0410
0000625597;6.8187;-0.5890;1.3982;-0.5486;0.4233;-0.0612
0000625605;6.7852;-0.4884;1.7119;-0.5652;0.3981;-0.0452
0000625617;6.5170;0.2849;2.4277;-0.5465;0.3375;-0.0059
0000625625;6.3686;0.6656;2.8012;-0.5377;0.2951;0.0497
0000625636;5.9209;0.9313;3.1556;-0.5213;0.2366;0.1314
0000625644;5.7652;0.9194;3.0885;-0.5233;0.1968;0.1744
0000625656;5.7102;0.6369;2.9592;-0.5478;0.1326;0.1945
0000625664;5.9520;0.3041;2.7557;-0.5660;0.0915;0.1831
0000625675;6.2489;-0.2538;2.5139;-0.5850;0.0520;0.1684
0000625683;6.3255;-0.5459;2.5307;-0.5998;0.0216;0.1383
0000625691;6.3207;-0.9409;2.7438;-0.6335;-0.0037;0.1094
0000625703;6.6415;-1.0654;2.8443;-0.6977;-0.0438;0.0628
0000625711;6.3710;-1.4892;2.6193;-0.7566;-0.0766;0.0316
0000625779;5.2218;-5.2912;1.7789;-0.5040;-0.5669;-0.2886
0000625787;5.3989;-5.3151;1.0654;-0.3135;-0.6650;-0.3489
0000625799;5.5929;-4.4604;-0.7661;-0.0548;-0.7759;-0.4541
0000625807;5.5282;-3.7781;-1.2354;0.0457;-0.8251;-0.5044
0000625818;5.7724;-1.9321;-0.7757;0.1007;-0.8680;-0.5431
0000625826;5.8395;-0.3424;-0.1006;0.0846;-0.8753;-0.5736
0000625834;5.9400;1.3024;0.5866;0.0141;-0.8689;-0.5868
0000625846;6.5601;3.9002;2.2697;-0.2630;-0.7953;-0.5689
0000625854;6.8761;5.1044;3.2322;-0.5287;-0.7265;-0.5363
0000625865;7.6806;5.3870;4.1228;-0.9209;-0.6002;-0.4831
0000625873;7.9966;4.1108;3.9863;-1.1371;-0.5083;-0.4409
0000625885;8.3031;1.4317;3.6536;-1.2287;-0.3651;-0.3631
0000625893;8.7747;0.1269;3.5051;-1.1959;-0.2781;-0.3258
0000625904;8.5904;-1.2474;3.0981;-1.1695;-0.1655;-0.2762
0000625912;8.3294;-1.7358;3.1532;-1.1691;-0.1104;-0.2709
0000625920;7.8410;-2.1117;3.5123;-1.1766;-0.0598;-0.2773
0000625932;6.9671;-2.0566;3.7086;-1.1064;-0.0016;-0.3155
0000625940;6.2584;-1.6185;2.2577;-1.0130;0.0036;-0.3665
0000625951;5.0446;-0.1676;-0.5219;-1.0259;-0.0175;-0.3969
0000625959;4.5490;0.6105;-0.5148;-1.0657;-0.0834;-0.3902
0000625971;4.0558;1.5658;-0.7853;-1.1478;-0.2133;-0.3684
0000625979;3.9456;2.3415;-0.5842;-1.2007;-0.2711;-0.3627
0000626047;5.1619;5.3965;8.4491;-4.0825;-0.7282;-0.5393
0000626055;4.7812;0.1796;11.3749;-3.2237;-0.7273;-0.2324
0000626067;6.0693;7.7668;12.4283;-2.1886;-0.9282;0.3142
0000626075;7.6375;14.8919;15.2295;-2.5456;-0.9561;0.8096
0000626083;7.1730;19.4744;13.7307;-3.2472;-0.8199;1.0377
0000626094;7.2042;20.7242;8.2384;-4.0955;-0.5737;1.1387
0000626102;7.1994;19.2614;5.0829;-4.3657;-0.4349;1.1030
0000626114;7.0605;15.2439;2.0782;-4.3657;-0.4919;0.9237
0000626122;5.2888;11.7723;1.3120;-4.3657;-0.6731;0.9554
0000626133;2.0111;9.1913;1.9201;-4.3657;-0.9573;1.1222
0000626141;2.1165;9.1243;2.3463;-4.3657;-1.1173;1.0620
0000626153;4.5418;8.3845;1.2091;-4.3657;-1.2085;0.8733
0000626161;6.2704;7.4388;-0.1389;-4.3657;-1.1548;0.8719
0000626169;8.0325;6.1627;-0.5076;-4.3657;-1.0225;0.9430
0000626180;9.7300;4.1108;-0.1556;-4.3657;-0.7269;0.9597
0000626188;9.7707;1.9896;1.7813;-4.3657;-0.5053;0.8206
0000626200;9.6989;-1.6712;5.0518;-4.3657;-0.2450;0.4379
0000626208;9.9742;-4.3934;6.7564;-4.3657;-0.0987;0.1755
0000626219;10.9223;-8.0852;5.4492;-4.3657;0.1637;0.0657
0000626227;11.9878;-9.5864;2.6049;-4.3657;0.4486;0.1639
0000626239;13.3716;-14.2192;3.3495;-4.3657;1.0664;0.2817
0000626247;14.6884;-21.2294;7.1826;-4.3657;1.3402;0.1952
0000626255;16.6397;-30.2196;9.1530;-4.3657;1.4862;-0.1336
0000626323;1.8244;-20.0036;-2.4995;2.9580;0.4053;0.5409
0000626331;2.7007;-15.1026;-0.0455;3.8152;0.3942;0.2057
0000626343;4.6663;-9.0860;4.5203;4.2771;0.1805;0.0533
0000626351;5.7581;-5.2098;7.4268;4.0242;0.0883;0.0520
0000626362;7.5513;-0.1580;10.2592;2.9138;-0.0191;0.1140
0000626370;8.2815;2.4229;9.2632;1.7576;-0.0164;0.0846
0000626382;8.6119;3.6296;8.5688;0.1837;0.0111;-0.0368
0000626390;10.0341;3.1627;10.4076;-0.4968;0.0989;-0.1599
0000626398;9.9886;0.5219;7.9152;-1.3306;0.1383;-0.3186
0000626409;10.5584;-5.2577;7.4771;-2.2187;0.2785;-0.3611
0000626417;10.7404;-9.3470;6.5529;-2.3956;0.4078;-0.2828
0000626429;9.9455;-13.6972;4.7836;-2.1950;0.5734;-0.1362
0000626437;9.2201;-15.6796;3.6847;-1.8965;0.6356;0.0360
0000626448;8.3175;-17.6165;3.6272;-1.4985;0.6526;0.2699
0000626456;7.8410;-18.4377;4.1875;-1.2044;0.6623;0.4302
0000626468;6.5817;-19.1153;5.4468;-0.7177;0.6520;0.5604
0000626476;5.9233;-18.6700;5.9568;-0.4054;0.6527;0.5506
0000626484;5.5881;-17.5495;6.4165;-0.1206;0.6331;0.4482
0000626496;5.5689;-15.4594;8.0110;0.1186;0.5769;0.2329
0000626504;5.6288;-13.9199;9.2033;0.1239;0.4848;0.0806
0000626516;5.5545;-12.1362;9.7995;-0.0041;0.3704;-0.0774
0000626524;5.4779;-11.3030;9.7396;-0.1104;0.2789;-0.1394
0000626592;5.9352;-13.0604;7.9918;-0.4249;-0.1531;-0.0835
0000626600;6.0334;-13.5368;7.7668;-0.3681;-0.1612;-0.0516
0000626612;6.4548;-13.9247;7.6902;-0.2341;-0.1557;-0.0191
0000626620;6.7756;-13.7930;7.5609;-0.1442;-0.1371;0.0032
0000626628;6.7636;-13.7379;7.5130;-0.0641;-0.1115;0.0172
0000626640;6.9552;-13.2854;7.4843;0.0374;-0.0558;0.0314
0000626648;6.9097;-13.0173;7.4747;0.0869;-0.0185;0.0422
0000626660;6.8809;-12.4594;7.6375;0.1234;0.0313;0.0675
0000626668;6.9623;-12.2248;7.6758;0.1276;0.0580;0.0915
0000626680;6.5003;-11.9686;7.7907;0.1079;0.0795;0.1339
0000626688;6.2944;-11.7579;7.8195;0.0841;0.0745;0.1525
0000626699;5.9855;-11.8082;8.0541;0.0481;0.0618;0.1747
0000626707;5.8179;-12.0572;8.2648;0.0325;0.0476;0.1776
0000626715;5.6264;-12.0141;8.3677;0.0285;0.0324;0.1749
0000626727;5.5234;-12.1194;8.3366;0.0381;0.0059;0.1575
0000626735;5.3822;-12.1937;8.2025;0.0453;-0.0127;0.1495
0000626747;5.2481;-12.3397;7.8314;0.0516;-0.0642;0.1283
0000626755;5.1906;-12.3756;7.7644;0.0620;-0.0997;0.1175
0000626767;5.1260;-12.6366;7.8123;0.0778;-0.1423;0.1021
0000626775;5.2481;-12.5815;7.6303;0.1021;-0.1720;0.0869
0000626787;5.2122;-12.8449;7.5130;0.1529;-0.2125;0.0666
0000626795;5.3534;-12.6174;7.7428;0.2065;-0.2498;0.0600
0000626803;5.4803;-12.5097;7.7812;0.2543;-0.2694;0.0653
0000626871;6.1890;-11.0708;8.1475;0.3271;-0.3254;0.2000
0000626879;6.0789;-11.1474;8.0373;0.3108;-0.3182;0.2202
0000626890;6.5098;-11.0995;8.0302;0.3171;-0.3095;0.2330
0000626898;6.3997;-11.2192;8.0661;0.3347;-0.2892;0.2466
0000626910;6.5362;-11.2049;8.2361;0.3533;-0.2679;0.2555
0000626918;6.7205;-11.0109;8.1427;0.3556;-0.2459;0.2605
0000626930;6.5793;-11.1187;8.2217;0.3609;-0.2224;0.2493
0000626938;6.6224;-10.8529;8.2552;0.3539;-0.2020;0.2388
0000626946;6.5625;-10.8577;8.3797;0.3537;-0.1897;0.2134
0000626958;6.2680;-10.8721;8.3893;0.3536;-0.1739;0.1859
0000626966;6.4069;-10.6877;8.2361;0.3413;-0.1636;0.1724
0000626978;6.1124;-10.6853;8.1858;0.3320;-0.1676;0.1552
0000626986;6.1986;-10.7332;8.1714;0.3208;-0.1787;0.1575
0000626998;6.1627;-10.7883;8.1379;0.3224;-0.1964;0.1523
0000627006;6.3039;-10.9295;8.2839;0.3258;-0.1955;0.1601
0000627018;6.4596;-10.9774;8.4420;0.3519;-0.1907;0.1621
0000627026;6.6798;-10.8386;8.5018;0.3645;-0.1803;0.1669
0000627034;6.6559;-10.7907;8.5281;0.3786;-0.1739;0.1612
0000627046;6.5912;-10.6135;8.6143;0.3944;-0.1556;0.1522
0000627054;6.7756;-10.5369;8.4874;0.4018;-0.1516;0.1396
0000627066;6.5314;-10.4675;8.6048;0.3928;-0.1475;0.1296
0000627074;6.4404;-10.4651;8.5688;0.3837;-0.1524;0.1116
0000627142;5.9328;-10.2855;8.2480;0.4991;-0.1871;-0.2141
0000627150;6.0789;-10.2951;8.3294;0.5340;-0.1721;-0.2493
0000627162;6.4787;-10.0221;8.4084;0.5845;-0.1319;-0.2771
0000627170;6.8259;-9.8928;8.4779;0.6039;-0.0933;-0.2850
0000627178;7.0030;-9.5481;8.3701;0.6203;-0.0686;-0.2789
0000627190;7.3358;-9.2296;8.5497;0.5998;-0.0105;-0.2362
0000627198;7.1347;-9.2871;8.6838;0.5764;0.0132;-0.2056
0000627210;7.0126;-9.2225;8.8370;0.5309;0.0577;-0.1319
0000627218;6.7900;-9.2009;8.9064;0.5099;0.0590;-0.0918
0000627230;6.4524;-9.4403;8.8969;0.5002;0.0606;-0.0278
0000627238;6.1603;-9.5241;8.9543;0.5133;0.0428;-0.0139
0000627250;5.9089;-9.3494;8.8992;0.5368;0.0084;-0.0200
0000627258;5.7126;-9.3158;8.8394;0.5452;-0.0117;-0.0346
0000627266;5.5043;-9.1387;8.9376;0.5498;-0.0300;-0.0683
0000627278;5.3798;-9.0046;8.9112;0.5602;-0.0798;-0.1427
0000627286;5.4636;-8.7388;8.9735;0.5485;-0.1033;-0.1879
0000627298;5.7533;-8.4874;8.9926;0.5203;-0.1611;-0.2575
0000627306;5.7844;-8.6119;9.1650;0.5052;-0.1956;-0.2952
0000627318;5.9783;-8.8969;9.5672;0.4782;-0.2246;-0.3256
0000627326;6.3135;-8.9615;9.7731;0.4915;-0.2397;-0.3292
0000627338;6.5841;-9.0884;9.6726;0.5301;-0.2208;-0.3158
0000627346;6.8378;-9.2009;9.4236;0.5718;-0.2057;-0.3039
0000627354;7.1299;-9.0812;9.2799;0.6011;-0.1756;-0.2860
0000627423;7.7309;-6.4739;10.0126;0.5648;0.1805;-0.1081
0000627432;7.6279;-6.1962;10.0461;0.4646;0.2226;-0.1120
0000627445;7.1275;-6.5529;10.1370;0.3583;0.2377;-0.1096
0000627454;6.8354;-6.8953;10.0987;0.3182;0.2381;-0.1050
0000627467;6.7708;-6.8977;9.9048;0.3004;0.2173;-0.0947
0000627476;6.4572;-7.1443;9.8976;0.3094;0.1981;-0.0842
0000627489;6.1483;-7.0366;9.8306;0.3433;0.1607;-0.0802
0000627498;6.2225;-6.6415;9.9886;0.3596;0.1288;-0.0757
0000627507;5.9759;-6.5673;10.1059;0.3695;0.0906;-0.0705
0000627520;6.2082;-6.2704;10.3358;0.3569;0.0444;-0.0624
0000627529;6.3207;-5.9616;10.4100;0.3138;0.0249;-0.0521
0000627542;6.4189;-5.8969;10.4339;0.2555;-0.0189;-0.0578
0000627551;6.2800;-6.0023;10.3430;0.1982;-0.0368;-0.0565
0000627564;6.5793;-6.0238;10.2975;0.1524;-0.0556;-0.0641
0000627573;6.5003;-6.1411;10.2472;0.1400;-0.0674;-0.0815
0000627586;6.6176;-6.1723;10.1131;0.1232;-0.0762;-0.0897
0000627595;6.8163;-6.2465;10.0748;0.1152;-0.0757;-0.1041
0000627604;6.9791;-6.0597;9.9790;0.1005;-0.0681;-0.1059
0000627617;7.1084;-6.1818;10.1083;0.0819;-0.0525;-0.1116
0000627626;7.1228;-6.1914;10.0126;0.0713;-0.0390;-0.1200
0000627639;6.8690;-6.3279;10.0604;0.0464;-0.0133;-0.1214
0000627648;7.0054;-6.2584;10.1227;0.0316;0.0008;-0.1226
0000627717;6.7133;-6.5793;10.0820;-0.0549;0.0746;-0.0829
0000627726;6.8618;-6.5242;9.8497;-0.0678;0.0794;-0.0826
0000627739;6.6631;-6.8522;9.7899;-0.0906;0.0969;-0.0671
0000627748;6.7086;-6.8067;9.7133;-0.1115;0.1065;-0.0482
0000627761;6.4787;-6.9552;9.6869;-0.1348;0.1131;-0.0426
0000627770;6.4548;-7.0437;9.6941;-0.1539;0.1148;-0.0354
0000627779;6.2872;-7.1706;9.6774;-0.1625;0.1035;-0.0438
0000627792;6.4284;-7.1323;9.6175;-0.1908;0.1026;-0.0404
0000627801;6.2010;-7.4172;9.7396;-0.2070;0.0966;-0.0560
0000627814;5.9807;-7.6782;9.7540;-0.2292;0.0821;-0.0594
0000627823;5.8586;-7.8458;9.5936;-0.2373;0.0642;-0.0538
0000627836;5.9711;-7.9487;9.3709;-0.2276;0.0341;-0.0261
0000627845;5.9352;-7.9487;9.3254;-0.2104;0.0029;-0.0075
0000627858;5.6455;-8.2720;9.3589;-0.1848;-0.0418;0.0081
0000627867;5.6048;-8.2648;9.2799;-0.1769;-0.0600;0.0200
0000627876;5.8945;-8.0637;9.3182;-0.1560;-0.0823;0.0233
0000627889;5.9352;-8.2959;9.3302;-0.1466;-0.1023;0.0312
0000627898;6.2872;-8.1331;9.2153;-0.1499;-0.1023;0.0428
0000627911;6.1675;-8.3127;9.2895;-0.1571;-0.1146;0.0574
0000627920;6.3758;-8.1977;9.3134;-0.1671;-0.1234;0.0592
0000627933;6.1268;-8.3318;9.2536;-0.1812;-0.1407;0.0610
0000627942;6.1196;-8.3941;9.3039;-0.1792;-0.1527;0.0586
0000628011;6.3327;-8.6095;9.4308;-0.1832;-0.1136;0.0417
0000628020;6.3279;-8.4851;9.4284;-0.1901;-0.1092;0.0534
0000628029;6.0549;-8.7580;9.3470;-0.1913;-0.1130;0.0501
0000628045;6.1124;-8.9639;9.4643;-0.1696;-0.1112;0.0332
0000628054;6.4260;-9.0644;9.4188;-0.1338;-0.1151;0.0107
0000628067;6.4452;-9.1075;9.4355;-0.0861;-0.1160;-0.0136
0000628076;6.5817;-9.1435;9.4786;-0.0606;-0.1147;-0.0184
0000628088;6.4643;-9.0118;9.2536;-0.0188;-0.1267;-0.0304
0000628097;6.3949;-8.9807;9.3015;0.0128;-0.1327;-0.0237
0000628110;6.3782;-8.8801;9.3829;0.0526;-0.1296;-0.0057
0000628119;6.2082;-8.8969;9.3781;0.0758;-0.1202;0.0087
0000628128;6.1268;-8.7891;9.4763;0.0935;-0.1170;0.0195
0000628140;6.1938;-8.6383;9.4355;0.1090;-0.1138;0.0270
0000628149;6.2058;-8.6862;9.5840;0.1200;-0.1178;0.0260
0000628162;6.3877;-8.5688;9.5529;0.1291;-0.1130;0.0241
0000628171;6.5338;-8.3629;9.5696;0.1300;-0.1026;0.0292
0000628183;6.4260;-8.3677;9.5074;0.1302;-0.0951;0.0286
0000628192;6.4715;-8.2313;9.4930;0.1274;-0.0999;0.0164
0000628261;6.7062;-7.7907;9.3877;-0.0161;-0.0490;-0.0743
0000628270;6.6008;-7.9248;9.3015;-0.0281;-0.0462;-0.0855
0000628279;6.6391;-8.0278;9.3805;-0.0268;-0.0442;-0.0985
0000628291;6.7540;-8.0182;9.3302;-0.0232;-0.0262;-0.1029
0000628300;6.7660;-8.0589;9.3422;-0.0191;-0.0152;-0.0978
0000628313;6.9408;-8.0038;9.4140;-0.0036;0.0016;-0.1027
0000628322;6.9192;-8.1570;9.4571;0.0107;0.0084;-0.1081
0000628334;6.9264;-8.0852;9.5553;0.0120;0.0238;-0.1082
0000628343;6.9432;-7.9176;9.5409;0.0193;0.0217;-0.1087
0000628356;6.7684;-8.0445;9.6175;0.0217;0.0416;-0.1061
0000628365;6.7804;-7.9009;9.6343;0.0340;0.0338;-0.1099
0000628374;6.7876;-7.9918;9.7133;0.0350;0.0418;-0.1002
0000628386;6.5841;-7.8602;9.7779;0.0409;0.0402;-0.0947
0000628395;6.4093;-7.9464;9.7564;0.0493;0.0256;-0.0938
0000628408;6.4189;-7.7692;9.7348;0.0493;0.0125;-0.0879
0000628417;6.3782;-7.6495;9.6319;0.0417;0.0039;-0.0819
0000628429;6.2465;-7.6375;9.6103;0.0352;-0.0095;-0.0778
0000628438;6.2130;-7.6255;9.5840;0.0298;-0.0264;-0.0807
0000628451;6.3686;-7.4029;9.5672;0.0143;-0.0488;-0.0774
0000628460;6.4260;-7.5513;9.5936;-0.0035;-0.0586;-0.0638
0000628469;6.2177;-7.6064;9.5888;-0.0165;-0.0747;-0.0560
0000628481;6.4212;-7.3981;9.6079;-0.0157;-0.0926;-0.0568
0000628490;6.4787;-7.5968;9.6702;-0.0329;-0.0887;-0.0544
0000628559;6.5290;-8.0589;9.4379;-0.0445;-0.0608;-0.0266
0000628568;6.4691;-8.1618;9.4810;-0.0249;-0.0665;-0.0262
0000628580;6.5888;-7.9942;9.4619;0.0204;-0.0769;-0.0361
0000628589;6.5146;-8.1786;9.4260;0.0308;-0.0596;-0.0320
0000628602;6.7804;-7.8697;9.5050;0.0454;-0.0585;-0.0473
0000628611;6.8594;-7.8171;9.5672;0.0365;-0.0453;-0.0489
0000628620;6.8809;-7.8602;9.5720;0.0171;-0.0384;-0.0521
0000628632;6.8761;-7.8099;9.6462;-0.0161;-0.0254;-0.0529
0000628641;6.6966;-7.8458;9.6343;-0.0381;-0.0222;-0.0520
0000628654;6.7349;-7.7644;9.6175;-0.0674;-0.0278;-0.0457
0000628663;6.5864;-8.0110;9.5241;-0.0782;-0.0346;-0.0453
0000628675;6.4332;-8.1235;9.5361;-0.0902;-0.0388;-0.0474
0000628684;6.4931;-8.2265;9.4667;-0.0827;-0.0446;-0.0560
0000628697;6.7157;-8.2121;9.4930;-0.0706;-0.0405;-0.0646
0000628706;6.8307;-8.1858;9.3374;-0.0481;-0.0382;-0.0759
0000628718;6.8833;-8.3031;9.3901;-0.0260;-0.0317;-0.0775
0000628727;6.9647;-8.1092;9.3589;-0.0151;-0.0270;-0.0867
0000628736;6.9145;-8.1020;9.4260;-0.0200;-0.0200;-0.0761
0000628749;6.9264;-8.0421;9.3230;-0.0265;-0.0128;-0.0841
0000628758;6.7038;-8.1451;9.3470;-0.0424;-0.0044;-0.0767
0000628770;6.7157;-8.0014;9.4379;-0.0621;-0.0011;-0.0705
0000628779;6.6798;-8.1163;9.4451;-0.0659;-0.0037;-0.0783
0000628848;6.7253;-7.8889;9.3494;-0.0234;-0.0388;-0.0490
0000628857;6.6750;-7.9296;9.3948;-0.0269;-0.0500;-0.0442
0000628869;6.7277;-7.8458;9.4715;-0.0352;-0.0550;-0.0476
0000628878;6.7229;-7.9128;9.5888;-0.0512;-0.0512;-0.0434
0000628891;6.6176;-7.9966;9.5481;-0.0702;-0.0492;-0.0481
0000628900;6.8785;-8.1547;9.5289;-0.0726;-0.0602;-0.0596
0000628909;6.8163;-8.2241;9.5888;-0.0711;-0.0490;-0.0554
0000628921;7.0246;-8.2528;9.5936;-0.0596;-0.0520;-0.0670
0000628930;6.9025;-8.2839;9.6822;-0.0504;-0.0409;-0.0640
0000628943;7.0605;-8.1858;9.6319;-0.0346;-0.0405;-0.0679
0000628952;6.8785;-8.2648;9.5361;-0.0333;-0.0368;-0.0608
0000628964;6.7157;-8.3342;9.5768;-0.0196;-0.0322;-0.0486
0000628973;6.8115;-8.1139;9.5217;-0.0091;-0.0450;-0.0522
0000628986;6.6774;-8.2217;9.5217;-0.0096;-0.0658;-0.0545
0000628995;6.6559;-8.2337;9.4954;-0.0224;-0.0721;-0.0489
0000629004;6.7277;-8.2600;9.6534;-0.0250;-0.0801;-0.0534
0000629016;6.8570;-8.2815;9.7133;-0.0179;-0.0658;-0.0585
0000629025;7.0222;-8.2073;9.7229;-0.0077;-0.0449;-0.0632
0000629038;6.9528;-8.4683;9.6582;0.0208;-0.0156;-0.0809
0000629047;7.0557;-8.5641;9.6630;0.0482;-0.0053;-0.0947
0000629059;7.2329;-8.3677;9.6247;0.0829;0.0100;-0.1021
0000629068;7.1012;-8.4467;9.5888;0.1006;0.0148;-0.1007
0000629137;6.5362;-7.4579;9.3972;0.0028;0.0241;0.0003
0000629146;6.5098;-7.5824;9.3063;-0.0336;0.0242;0.0012
0000629155;6.4715;-7.7931;9.3039;-0.0690;0.0249;0.0139
0000629167;6.5386;-7.9487;9.3182;-0.0819;0.0136;0.0148
0000629176;6.3255;-8.1977;9.2368;-0.0726;0.0003;0.0075
0000629189;6.4907;-8.1834;9.2823;-0.0510;-0.0197;0.0083
0000629198;6.3015;-8.2432;9.3589;-0.0309;-0.0304;0.0093
0000629210;6.2944;-8.2480;9.3446;-0.0061;-0.0508;0.0085
0000629219;6.3782;-8.0349;9.3422;0.0036;-0.0618;0.0060
0000629232;6.4643;-7.9535;9.4715;0.0071;-0.0734;0.0087
0000629241;6.4763;-7.7859;9.4643;-0.0012;-0.0813;0.0039
0000629250;6.6224;-7.7668;9.5241;-0.0105;-0.0806;0.0113
0000629262;6.8019;-7.7572;9.5217;-0.0284;-0.0761;0.0091
0000629271;6.8187;-7.8697;9.5696;-0.0353;-0.0778;0.0009
0000629284;6.8594;-7.9296;9.5768;-0.0497;-0.0636;0.0068
0000629293;6.9552;-7.8075;9.6558;-0.0446;-0.0572;0.0011
0000629305;6.7732;-8.0302;9.5098;-0.0505;-0.0406;-0.0056
0000629314;6.6032;-8.0876;9.4954;-0.0512;-0.0346;0.0033
0000629327;6.6200;-8.1307;9.3302;-0.0553;-0.0234;0.0040
0000629336;6.7325;-8.0302;9.3925;-0.0608;-0.0156;0.0101
0000629345;6.6918;-8.0421;9.3757;-0.0569;-0.0084;0.0081
0000629357;6.8522;-7.9200;9.3925;-0.0588;0.0016;0.0172
0000629366;6.6583;-8.0565;9.3374;-0.0577;0.0081;0.0172
0000629435;6.4500;-8.1954;9.5696;-0.0695;-0.0043;-0.0133
0000629444;6.1531;-8.3462;9.7181;-0.0613;-0.0080;-0.0099
0000629456;6.3590;-8.1666;9.6199;-0.0449;-0.0201;-0.0135
0000629465;6.2584;-8.3342;9.6869;-0.0268;-0.0293;-0.0187
0000629478;6.3159;-8.3342;9.8761;-0.0068;-0.0380;-0.0211
0000629487;6.4739;-8.2839;10.1179;-0.0059;-0.0333;-0.0173
0000629498;6.6056;-8.1092;10.0940;-0.0016;-0.0404;-0.0233
0000629507;6.6702;-7.9871;10.0149;-0.0099;-0.0310;-0.0241
0000629516;6.6343;-8.0421;10.0006;-0.0129;-0.0342;-0.0304
0000629530;6.5841;-8.0565;9.9766;-0.0221;-0.0224;-0.0426
0000629539;6.6894;-8.0302;9.9359;-0.0113;-0.0216;-0.0642
0000629552;6.5601;-8.1906;9.8545;0.0017;-0.0200;-0.0735
0000629561;6.5745;-8.1570;9.7468;0.0242;-0.0209;-0.0771
0000629573;6.5841;-8.0302;9.7252;0.0281;-0.0244;-0.0754
0000629582;6.6655;-7.8841;9.8306;0.0296;-0.0265;-0.0714
0000629595;6.5529;-7.9200;9.9288;0.0297;-0.0337;-0.0655
0000629604;6.3734;-7.9033;10.0149;0.0230;-0.0562;-0.0612
0000629613;6.4763;-7.8985;9.9407;0.0069;-0.0805;-0.0556
0000629625;6.2560;-7.9440;9.7875;-0.0055;-0.1426;-0.0536
0000629634;6.2752;-7.9080;9.8785;-0.0270;-0.1768;-0.0425
0000629647;6.3614;-7.9248;10.2041;-0.0212;-0.2140;-0.0404
0000629656;6.2297;-7.8697;10.2544;-0.0035;-0.2469;-0.0498
0000629724;5.9041;-8.8274;9.2799;0.0785;-0.4703;0.1512
0000629733;6.5625;-8.8729;9.3446;0.1527;-0.4864;0.1609
0000629746;7.3239;-8.4396;9.2799;0.2306;-0.4695;0.1868
0000629755;7.5776;-8.2576;9.1315;0.2526;-0.4402;0.2153
0000629767;7.9248;-7.7883;9.1004;0.2360;-0.3984;0.2541
0000629776;7.8602;-7.7141;9.1051;0.2052;-0.3660;0.2846
0000629785;8.1379;-7.6998;9.1315;0.1729;-0.3289;0.2928
0000629798;8.1714;-7.8171;9.1961;0.1498;-0.2783;0.2888
0000629807;8.0134;-8.0709;9.1459;0.1491;-0.2426;0.2709
0000629819;7.9895;-8.0421;9.2273;0.1645;-0.1900;0.2498
0000629828;7.6830;-8.0996;9.2512;0.1856;-0.1484;0.2293
0000629841;7.7788;-7.9966;9.2943;0.2218;-0.1051;0.1800
0000629850;7.5705;-8.0062;9.2656;0.2322;-0.0781;0.1450
0000629859;7.6902;-7.8769;9.5337;0.2479;-0.0613;0.1034
0000629871;7.6926;-7.8075;9.6989;0.2625;-0.0253;0.0638
0000629880;7.7189;-7.8602;9.8569;0.2683;-0.0009;0.0276
0000629893;7.4340;-7.8290;9.9311;0.2878;0.0242;-0.0024
0000629902;7.1658;-7.9033;9.9048;0.2911;0.0377;-0.0173
0000629914;7.2305;-7.8386;9.6965;0.3038;0.0346;-0.0333
0000629923;6.9935;-7.8195;9.7492;0.3123;0.0377;-0.0501
0000629934;7.2951;-7.8506;9.8737;0.3361;0.0430;-0.0596
0000629942;7.3646;-7.8626;9.9072;0.3471;0.0633;-0.0759
0000629950;7.7788;-7.5944;9.9096;0.3693;0.0777;-0.1019
