time;acc_x;acc_y;acc_z;gyro_x;gyro_y;gyro_z
0000907666;5.8778;-16.3572;1.4796;-0.0729;-0.1061;-0.0065
0000907674;5.9137;-16.3285;1.4389;-0.0661;-0.0910;0.0031
0000907681;5.9041;-16.3285;1.4629;-0.0657;-0.0843;-0.0007
0000907689;5.9927;-16.1130;1.4940;-0.0625;-0.0818;-0.0037
0000907698;5.8059;-16.2518;1.4581;-0.0557;-0.0738;-0.0033
0000907706;5.8466;-16.0723;1.4054;-0.0620;-0.0630;-0.0047
0000907718;5.9903;-15.8736;1.5323;-0.0590;-0.0541;0.0000
0000907726;5.9424;-15.8376;1.4916;-0.0629;-0.0453;-0.0072
0000907737;5.8538;-15.9957;1.5203;-0.0614;-0.0354;-0.0084
0000907745;5.8299;-15.8783;1.5275;-0.0613;-0.0397;-0.0153
0000907753;5.7437;-16.0340;1.5514;-0.0667;-0.0300;-0.0145
0000907765;5.7652;-16.0555;1.5107;-0.0710;-0.0276;-0.0165
0000907773;5.7509;-15.9981;1.5371;-0.0725;-0.0298;-0.0204
0000907840;5.5881;-16.2878;1.4246;-0.0462;-0.0161;-0.0173
0000907848;5.7006;-16.3237;1.4269;-0.0490;-0.0151;-0.0185
0000907860;5.7413;-16.2327;1.4676;-0.0393;-0.0193;-0.0240
0000907868;5.5210;-16.3644;1.4892;-0.0246;-0.0285;-0.0346
0000907879;5.5162;-16.3428;1.4126;-0.0057;-0.0388;-0.0410
0000907887;5.6264;-16.3787;1.3096;0.0064;-0.0338;-0.0357
0000907899;5.7964;-16.1896;1.1899;0.0217;-0.0370;-0.0321
0000907907;5.8203;-16.2854;1.2594;0.0232;-0.0261;-0.0240
0000907915;5.8059;-16.2327;1.2163;0.0293;-0.0177;-0.0230
0000907926;5.7581;-16.1896;1.2378;0.0461;-0.0193;-0.0288
0000907934;5.6767;-16.2375;1.2474;0.0434;-0.0076;-0.0229
0000907946;5.7150;-16.0124;1.1636;0.0525;-0.0065;-0.0260
0000907954;5.7509;-15.9597;1.2139;0.0549;-0.0015;-0.0268
0000907965;5.7940;-15.9693;1.2689;0.0606;-0.0012;-0.0222
0000907973;5.7892;-16.0005;1.2833;0.0588;-0.0041;-0.0187
0000907985;5.6790;-15.9358;1.4269;0.0393;-0.0088;-0.0133
0000907993;5.9233;-16.0052;1.4605;0.0244;-0.0045;-0.0061
0000908004;5.7341;-16.1130;1.4437;0.0163;-0.0065;-0.0095
0000908012;5.9233;-16.0579;1.4916;0.0073;-0.0109;-0.0005
0000908020;5.7413;-16.0747;1.5155;0.0083;-0.0129;-0.0052
0000908032;5.7293;-16.2255;1.4341;0.0087;-0.0121;-0.0016
0000908040;5.6144;-16.2279;1.4653;0.0059;-0.0100;0.0017
0000908107;5.6599;-15.8831;1.4246;-0.0211;-0.0779;-0.0111
0000908115;5.4971;-16.0531;1.3455;-0.0312;-0.0802;-0.0043
0000908127;5.6982;-15.9885;1.4174;-0.0398;-0.0921;0.0024
0000908135;5.8179;-15.7730;1.3168;-0.0409;-0.0967;0.0085
0000908146;5.7365;-15.8281;1.3384;-0.0377;-0.1046;0.0093
0000908154;5.7245;-15.9933;1.3455;-0.0345;-0.1123;0.0021
0000908166;5.5833;-16.1249;1.4222;-0.0298;-0.1176;0.0008
0000908174;5.7509;-16.1417;1.5945;-0.0244;-0.1282;-0.0073
0000908182;5.5426;-16.1513;1.5395;-0.0305;-0.1292;0.0001
0000908193;5.5713;-16.3165;1.5131;-0.0360;-0.1398;-0.0096
0000908201;5.6743;-16.1656;1.4964;-0.0416;-0.1295;-0.0045
0000908213;5.6144;-16.2351;1.4916;-0.0382;-0.1288;-0.0011
0000908221;5.8203;-16.0268;1.5251;-0.0321;-0.1286;-0.0007
0000908232;5.7006;-16.2614;1.4581;-0.0290;-0.1286;0.0009
0000908240;5.8873;-16.0412;1.5443;-0.0177;-0.1352;-0.0073
0000908252;5.7916;-16.1561;1.4150;-0.0111;-0.1263;-0.0048
0000908260;5.9233;-16.0028;1.4389;-0.0085;-0.1147;-0.0045
0000908271;6.0166;-16.0005;1.4126;-0.0053;-0.0955;-0.0077
0000908279;5.8395;-16.1848;1.5395;0.0000;-0.0874;-0.0109
0000908291;5.9065;-16.2638;1.5395;0.0029;-0.0725;-0.0167
0000908299;5.9328;-16.1920;1.4653;0.0033;-0.0585;-0.0153
0000908307;5.8706;-16.1704;1.4317;0.0035;-0.0460;-0.0149
0000908375;5.9017;-15.9765;1.5634;-0.0009;0.0353;-0.0092
0000908383;5.6120;-16.0866;1.6376;-0.0081;0.0356;-0.0013
0000908395;5.5545;-16.1130;1.5155;-0.0157;0.0324;0.0061
0000908403;5.6336;-15.9526;1.4796;-0.0215;0.0317;0.0100
0000908414;5.6431;-16.0100;1.4988;-0.0179;0.0207;0.0047
0000908422;5.7916;-16.0531;1.4796;-0.0228;0.0196;0.0068
0000908434;5.7509;-15.8640;1.5155;-0.0137;0.0083;-0.0101
0000908442;5.8490;-16.0435;1.4724;-0.0079;0.0051;-0.0081
0000908450;5.6910;-16.0866;1.5060;-0.0233;0.0076;-0.0120
0000908461;5.5617;-16.1417;1.6017;-0.0286;0.0021;-0.0133
0000908469;5.5354;-16.1441;1.5826;-0.0397;-0.0011;-0.0081
0000908481;5.4516;-16.2231;1.5131;-0.0382;-0.0119;-0.0060
0000908489;5.5498;-16.2901;1.5467;-0.0381;-0.0193;-0.0112
0000908500;5.7676;-16.1249;1.5107;-0.0326;-0.0260;-0.0140
0000908508;5.6719;-16.1824;1.3815;-0.0257;-0.0312;-0.0212
0000908520;5.9640;-16.0364;1.4796;-0.0216;-0.0368;-0.0248
0000908528;6.0334;-15.9358;1.4724;-0.0246;-0.0317;-0.0233
0000908539;5.8371;-16.1321;1.4892;-0.0300;-0.0264;-0.0193
0000908547;5.8203;-16.0747;1.4820;-0.0341;-0.0274;-0.0168
0000908559;5.7700;-16.0268;1.4676;-0.0346;-0.0358;-0.0167
0000908567;5.4229;-16.2901;1.5419;-0.0261;-0.0454;-0.0199
0000908575;5.5354;-16.3093;1.4748;-0.0245;-0.0476;-0.0129
0000908641;5.8083;-15.9741;1.5131;-0.0024;-0.0416;-0.0175
0000908649;5.6910;-16.1369;1.5826;-0.0003;-0.0350;-0.0128
0000908661;5.4947;-16.1992;1.5610;-0.0100;-0.0245;-0.0111
0000908669;5.6431;-16.1848;1.5538;-0.0075;-0.0277;-0.0132
0000908680;5.8227;-15.9214;1.6281;-0.0101;-0.0277;-0.0109
0000908688;5.5234;-16.1345;1.4174;-0.0145;-0.0320;-0.0179
0000908700;5.8155;-15.9909;1.5969;-0.0217;-0.0282;-0.0117
0000908708;5.5545;-16.0962;1.5203;-0.0211;-0.0364;-0.0180
0000908719;5.5162;-16.2710;1.5107;-0.0216;-0.0329;-0.0124
0000908727;5.7126;-16.0675;1.5036;-0.0232;-0.0374;-0.0204
0000908739;5.5593;-16.0771;1.4509;-0.0157;-0.0454;-0.0183
0000908747;5.8299;-16.0795;1.4700;-0.0189;-0.0373;-0.0097
0000908755;5.6431;-16.2614;1.4317;-0.0120;-0.0402;-0.0139
0000908766;5.8275;-15.9645;1.4078;-0.0085;-0.0429;-0.0125
0000908774;5.5761;-16.1704;1.3815;-0.0164;-0.0346;-0.0057
0000908786;5.6288;-15.9861;1.3647;-0.0196;-0.0382;-0.0119
0000908794;5.5952;-16.1273;1.4078;-0.0244;-0.0289;-0.0016
0000908805;5.8155;-15.9334;1.4174;-0.0252;-0.0330;-0.0036
0000908813;5.6671;-16.0986;1.4581;-0.0272;-0.0304;-0.0061
0000908825;5.6671;-16.0435;1.3958;-0.0305;-0.0349;-0.0056
0000908833;5.6144;-16.0364;1.3791;-0.0270;-0.0370;-0.0005
0000908901;5.7054;-16.2423;1.3384;-0.0305;-0.0288;-0.0129
0000908909;5.7078;-16.1728;1.3815;-0.0245;-0.0278;-0.0132
0000908921;5.6575;-16.1585;1.5083;-0.0240;-0.0280;-0.0132
0000908929;5.7844;-16.1249;1.4150;-0.0228;-0.0211;-0.0091
0000908937;5.8466;-15.9214;1.4198;-0.0260;-0.0183;-0.0047
0000908948;5.8347;-16.1704;1.3575;-0.0222;-0.0197;-0.0068
0000908956;5.5522;-16.1848;1.4198;-0.0248;-0.0152;-0.0068
0000908968;5.4947;-16.3117;1.4126;-0.0208;-0.0183;-0.0091
0000908976;5.6814;-16.1082;1.4126;-0.0159;-0.0258;-0.0148
0000908987;5.6431;-16.0244;1.3455;-0.0207;-0.0217;-0.0100
0000908995;5.5522;-16.1992;1.3886;-0.0180;-0.0281;-0.0159
0000909007;5.5115;-16.2111;1.4174;-0.0168;-0.0261;-0.0136
0000909015;5.5665;-16.2016;1.4868;-0.0105;-0.0245;-0.0135
0000909027;5.9376;-16.1249;1.3503;-0.0095;-0.0244;-0.0119
0000909035;5.6000;-16.2399;1.4748;-0.0067;-0.0254;-0.0131
0000909046;5.8538;-16.0579;1.4030;0.0049;-0.0296;-0.0124
0000909054;5.7604;-16.1010;1.4293;0.0023;-0.0320;-0.0179
0000909062;5.6000;-16.1920;1.4653;0.0028;-0.0236;-0.0101
0000909074;5.6527;-16.0795;1.4461;0.0072;-0.0237;-0.0131
0000909082;5.7174;-16.0052;1.4509;0.0104;-0.0261;-0.0189
0000909094;5.6288;-16.0938;1.5155;0.0117;-0.0253;-0.0209
0000909102;5.6503;-16.1944;1.3886;0.0072;-0.0213;-0.0145
0000909170;5.6264;-16.1944;1.4653;-0.0119;-0.0220;-0.0132
0000909178;5.5569;-16.3404;1.4676;-0.0105;-0.0284;-0.0192
0000909189;5.6647;-16.1297;1.4389;-0.0104;-0.0212;-0.0140
0000909197;5.6982;-16.0364;1.4581;-0.0081;-0.0246;-0.0128
0000909209;5.6336;-16.1896;1.4437;-0.0052;-0.0249;-0.0180
0000909217;5.7341;-16.1704;1.3024;-0.0016;-0.0197;-0.0193
0000909225;5.7221;-16.2327;1.3791;-0.0061;-0.0188;-0.0156
0000909236;5.6934;-16.1465;1.4772;-0.0072;-0.0111;-0.0097
0000909244;5.7796;-16.0459;1.3910;-0.0055;-0.0143;-0.0125
0000909256;5.5115;-16.1585;1.4437;-0.0027;-0.0133;-0.0163
0000909264;5.5450;-16.1082;1.4293;0.0000;-0.0224;-0.0212
0000909275;5.6407;-16.1010;1.5036;-0.0004;-0.0221;-0.0248
0000909283;5.5545;-16.1010;1.4461;-0.0016;-0.0230;-0.0248
0000909295;5.6383;-16.1992;1.4916;-0.0069;-0.0273;-0.0269
0000909303;5.7126;-16.0364;1.4916;-0.0081;-0.0220;-0.0212
0000909314;5.3989;-16.2997;1.4437;-0.0095;-0.0276;-0.0269
0000909322;5.5881;-16.1321;1.5203;-0.0069;-0.0265;-0.0238
0000909334;5.6551;-16.0866;1.5227;-0.0088;-0.0290;-0.0168
0000909342;5.7102;-16.0316;1.5562;-0.0160;-0.0230;-0.0100
0000909350;5.5737;-16.2087;1.5826;-0.0159;-0.0240;-0.0153
0000909362;5.7868;-16.0100;1.5275;-0.0135;-0.0320;-0.0147
0000909370;5.6144;-16.1010;1.5610;-0.0147;-0.0294;-0.0155
0000909438;5.6479;-16.1585;1.5419;-0.0203;-0.0474;-0.0159
0000909446;5.6312;-16.0340;1.4748;-0.0197;-0.0532;-0.0196
0000909457;5.6982;-16.0819;1.4222;-0.0183;-0.0525;-0.0167
0000909465;5.5426;-16.1513;1.4724;-0.0213;-0.0468;-0.0112
0000909477;5.7245;-16.2040;1.4940;-0.0125;-0.0476;-0.0112
0000909485;5.6455;-16.2423;1.5323;-0.0123;-0.0514;-0.0143
0000909496;5.6168;-16.1561;1.4533;-0.0096;-0.0524;-0.0129
0000909504;5.5881;-16.2375;1.5993;0.0008;-0.0585;-0.0205
0000909512;5.6360;-16.2087;1.4413;0.0017;-0.0500;-0.0172
0000909524;5.6623;-16.1992;1.5227;0.0019;-0.0553;-0.0195
0000909532;5.6336;-16.1010;1.4198;-0.0033;-0.0521;-0.0149
0000909543;5.6695;-16.1130;1.5131;-0.0052;-0.0488;-0.0124
0000909551;5.8610;-16.0364;1.5060;-0.0001;-0.0549;-0.0256
0000909563;5.6383;-16.2111;1.4437;-0.0051;-0.0478;-0.0144
0000909571;5.6360;-16.1393;1.4868;-0.0108;-0.0470;-0.0188
0000909582;5.6575;-16.1680;1.5706;-0.0075;-0.0444;-0.0203
0000909590;5.7221;-16.1010;1.5251;-0.0039;-0.0497;-0.0242
0000909602;5.6814;-16.1321;1.6328;0.0005;-0.0482;-0.0269
0000909610;5.6479;-16.1944;1.5514;-0.0075;-0.0444;-0.0254
0000909622;5.7078;-16.2087;1.4293;-0.0028;-0.0472;-0.0261
0000909630;5.6958;-16.1082;1.4509;-0.0035;-0.0461;-0.0240
0000909638;5.7892;-15.9789;1.4988;-0.0033;-0.0496;-0.0253
0000909706;5.5162;-16.0723;1.5131;-0.0075;-0.0433;-0.0278
0000909714;5.6240;-16.0555;1.5347;-0.0075;-0.0378;-0.0237
0000909725;5.5354;-16.0627;1.5299;-0.0153;-0.0392;-0.0229
0000909733;5.6000;-15.9957;1.5227;-0.0147;-0.0398;-0.0221
0000909745;5.7269;-16.0100;1.5850;-0.0237;-0.0454;-0.0234
0000909753;5.7437;-16.0747;1.5826;-0.0200;-0.0460;-0.0256
0000909764;5.6862;-16.2614;1.6137;-0.0163;-0.0438;-0.0212
0000909772;5.7102;-16.1633;1.4700;-0.0220;-0.0409;-0.0176
0000909784;5.7365;-16.1393;1.5131;-0.0192;-0.0416;-0.0155
0000909792;5.6743;-16.1752;1.4676;-0.0204;-0.0385;-0.0165
0000909803;5.7174;-16.1489;1.5012;-0.0191;-0.0401;-0.0173
0000909811;5.6192;-16.1872;1.5419;-0.0188;-0.0394;-0.0169
0000909819;5.6719;-16.0435;1.4293;-0.0192;-0.0373;-0.0232
0000909831;5.7293;-15.9693;1.4772;-0.0188;-0.0412;-0.0136
0000909839;5.6982;-16.0795;1.4796;-0.0225;-0.0374;-0.0160
0000909850;5.7341;-15.9813;1.5203;-0.0163;-0.0396;-0.0218
0000909858;5.5881;-16.1992;1.5395;-0.0212;-0.0393;-0.0149
0000909870;5.6312;-16.0866;1.4533;-0.0132;-0.0381;-0.0171
0000909878;5.6910;-16.0819;1.5658;-0.0188;-0.0373;-0.0135
0000909890;5.8419;-15.9382;1.4916;-0.0171;-0.0361;-0.0157
0000909898;5.5282;-16.1704;1.5443;-0.0148;-0.0406;-0.0140
0000909966;5.7269;-15.9813;1.4964;-0.0212;-0.0329;-0.0141
0000909974;5.5593;-16.1776;1.5897;-0.0163;-0.0385;-0.0208
0000909985;5.6958;-16.1130;1.5754;-0.0232;-0.0306;-0.0156
0000909993;5.5067;-16.1561;1.5682;-0.0207;-0.0372;-0.0199
0000910001;5.7413;-16.1178;1.5538;-0.0199;-0.0373;-0.0179
0000910013;5.6886;-16.0268;1.5155;-0.0256;-0.0304;-0.0100
0000910021;5.8802;-16.0292;1.4653;-0.0232;-0.0321;-0.0184
0000910032;5.7700;-16.1082;1.6161;-0.0193;-0.0302;-0.0207
0000910040;5.6910;-16.1728;1.5467;-0.0159;-0.0346;-0.0240
0000910052;5.5450;-16.3739;1.5802;-0.0165;-0.0354;-0.0264
0000910060;5.7581;-16.1800;1.4868;-0.0139;-0.0374;-0.0226
0000910071;5.8395;-16.1321;1.4317;-0.0087;-0.0386;-0.0176
0000910079;5.7269;-16.0459;1.4126;-0.0087;-0.0389;-0.0205
0000910091;5.6719;-16.1297;1.4006;-0.0099;-0.0330;-0.0141
0000910099;5.6767;-16.0795;1.2929;-0.0152;-0.0250;-0.0115
0000910110;5.8059;-16.0459;1.3647;-0.0163;-0.0270;-0.0160
0000910118;5.8131;-15.9885;1.5299;-0.0131;-0.0300;-0.0199
0000910126;5.7269;-16.0795;1.4820;-0.0161;-0.0213;-0.0125
0000910138;5.7892;-16.1130;1.4461;-0.0132;-0.0309;-0.0236
0000910146;5.6431;-16.0388;1.4988;-0.0116;-0.0396;-0.0221
0000910158;5.5641;-16.1249;1.5658;-0.0084;-0.0393;-0.0224
0000910166;5.6623;-16.0699;1.6137;-0.0191;-0.0378;-0.0203
0000910234;5.7174;-16.2016;1.4389;-0.0236;-0.0422;-0.0081
0000910242;5.6360;-16.1226;1.4389;-0.0213;-0.0397;-0.0121
0000910253;5.7341;-16.0986;1.5036;-0.0172;-0.0466;-0.0175
0000910261;5.7437;-16.1513;1.3982;-0.0139;-0.0440;-0.0135
0000910273;5.6862;-16.0340;1.4653;-0.0207;-0.0377;-0.0124
0000910281;5.5689;-16.2399;1.5083;-0.0151;-0.0472;-0.0155
0000910292;5.7628;-15.9861;1.4485;-0.0241;-0.0418;-0.0128
0000910300;5.8299;-15.9861;1.5036;-0.0180;-0.0492;-0.0165
0000910308;5.5545;-16.1561;1.4844;-0.0273;-0.0484;-0.0088
0000910320;5.7485;-16.0124;1.4461;-0.0308;-0.0449;-0.0083
0000910328;5.5833;-16.1776;1.4868;-0.0285;-0.0449;-0.0084
0000910339;5.7820;-16.0364;1.5060;-0.0353;-0.0421;-0.0063
0000910347;5.7844;-16.2183;1.4078;-0.0309;-0.0432;-0.0099
0000910359;5.6527;-16.1249;1.4126;-0.0277;-0.0444;-0.0119
0000910367;5.6360;-16.3356;1.4748;-0.0161;-0.0482;-0.0111
0000910379;5.7078;-16.1513;1.4222;-0.0197;-0.0410;-0.0103
0000910387;5.8035;-16.0316;1.4916;-0.0164;-0.0466;-0.0131
0000910398;5.8897;-16.0699;1.4988;-0.0204;-0.0417;-0.0151
0000910406;5.6719;-16.1321;1.4605;-0.0147;-0.0432;-0.0149
0000910418;5.6000;-16.2327;1.5538;-0.0151;-0.0460;-0.0119
0000910426;5.6168;-16.1704;1.5251;-0.0225;-0.0376;-0.0104
0000910434;5.7676;-16.1465;1.4892;-0.0254;-0.0358;-0.0093
0000910502;5.7557;-16.2447;1.4581;-0.0099;-0.0453;-0.0084
0000910510;5.6790;-16.0771;1.5419;-0.0141;-0.0372;-0.0112
0000910522;5.8131;-16.1202;1.4174;-0.0120;-0.0382;-0.0120
0000910530;5.8203;-16.0699;1.2881;-0.0173;-0.0365;-0.0129
0000910541;5.7317;-16.0435;1.4102;-0.0193;-0.0306;-0.0075
0000910549;5.6647;-15.9693;1.3982;-0.0141;-0.0356;-0.0124
0000910561;5.8371;-15.9909;1.4222;-0.0196;-0.0346;-0.0089
0000910569;5.5881;-16.2183;1.4748;-0.0199;-0.0325;-0.0085
0000910580;5.6982;-16.0890;1.4724;-0.0189;-0.0340;-0.0077
0000910588;5.5761;-16.2590;1.3575;-0.0168;-0.0457;-0.0111
0000910596;5.5569;-16.1106;1.4676;-0.0107;-0.0418;-0.0153
0000910608;5.7054;-16.0244;1.3623;-0.0105;-0.0432;-0.0167
0000910616;5.8155;-16.0579;1.4437;-0.0101;-0.0442;-0.0151
0000910627;5.8826;-16.1202;1.4916;-0.0139;-0.0393;-0.0152
0000910635;5.7820;-16.0819;1.4892;-0.0075;-0.0444;-0.0161
0000910647;5.8754;-16.0986;1.4485;-0.0101;-0.0368;-0.0124
0000910655;5.7509;-16.1585;1.4389;-0.0104;-0.0380;-0.0095
0000910666;5.6695;-16.1920;1.4317;-0.0101;-0.0362;-0.0077
0000910674;5.8682;-16.1178;1.5155;-0.0131;-0.0309;-0.0044
0000910686;5.9520;-16.0819;1.5275;-0.0131;-0.0317;-0.0051
0000910694;5.7006;-16.1345;1.5203;-0.0145;-0.0301;-0.0099
0000910762;5.7700;-16.0866;1.4150;-0.0113;-0.0332;-0.0061
0000910770;5.7748;-16.2016;1.4341;-0.0156;-0.0256;-0.0100
0000910778;5.8155;-16.0938;1.3216;-0.0108;-0.0320;-0.0135
0000910790;5.7437;-16.2159;1.3072;-0.0093;-0.0273;-0.0133
0000910798;5.7748;-16.0388;1.3168;-0.0083;-0.0254;-0.0119
0000910809;5.6623;-16.1441;1.3240;-0.0028;-0.0197;-0.0031
0000910817;5.7461;-16.2327;1.2426;-0.0040;-0.0204;-0.0004
0000910829;5.8299;-16.2399;1.2258;-0.0024;-0.0160;0.0055
0000910837;5.7628;-16.2566;1.3168;-0.0023;-0.0135;0.0063
0000910848;5.6599;-16.1513;1.3695;-0.0152;-0.0017;0.0220
0000910856;5.5522;-16.2040;1.2617;-0.0241;-0.0021;0.0236
0000910868;5.3463;-16.4530;1.0415;-0.0266;0.0164;0.0288
0000910876;5.3319;-16.5128;1.0774;-0.0143;0.0333;0.0276
0000910884;5.2888;-16.7091;1.2594;0.0053;0.0346;0.0187
0000910895;5.3606;-17.1449;1.5754;0.0703;0.0093;-0.0053
0000910903;5.5569;-17.0802;1.6688;0.1430;-0.0160;-0.0045
0000910915;5.5330;-17.1880;1.6113;0.2423;-0.0352;0.0246
0000910923;5.3439;-16.9007;1.6281;0.2842;-0.0520;0.0348
0000910934;5.4899;-16.4673;1.8148;0.2910;-0.0596;0.0564
0000910942;5.6719;-16.1058;1.8387;0.2638;-0.0588;0.0738
0000910954;5.6144;-15.9047;1.7621;0.2113;-0.0458;0.0897
0000910962;5.7868;-15.5695;1.4772;0.1688;-0.0277;0.1063
0000911030;5.1858;-15.9406;0.3400;0.0081;0.0192;0.0017
0000911038;5.1284;-15.9526;0.4477;0.0318;-0.0077;-0.0169
0000911046;4.9943;-16.0914;0.5411;0.0488;-0.0302;-0.0157
0000911058;4.8219;-16.0890;0.8212;0.0613;-0.0874;-0.0281
0000911066;4.8578;-15.9382;0.8787;0.0640;-0.1228;-0.0302
0000911077;5.0494;-15.8376;1.0822;0.0418;-0.1629;-0.0215
0000911085;5.1978;-15.7467;1.0271;0.0192;-0.1888;-0.0128
0000911097;5.4827;-15.6126;1.0367;-0.0404;-0.1976;0.0065
0000911105;5.6072;-15.9837;0.9984;-0.0657;-0.2078;0.0144
0000911116;5.7054;-16.1800;0.9792;-0.0993;-0.2084;0.0309
0000911124;5.6503;-16.4075;0.9170;-0.1211;-0.1951;0.0390
0000911132;5.6982;-16.6972;0.9697;-0.1179;-0.1944;0.0508
0000911144;5.6336;-16.8097;1.0271;-0.0858;-0.1923;0.0589
0000911152;5.4109;-16.8384;1.0678;-0.0626;-0.1877;0.0690
0000911163;5.2984;-16.6565;1.0702;-0.0189;-0.2061;0.0642
0000911171;5.2816;-16.6158;1.0918;0.0020;-0.2164;0.0625
0000911183;5.5378;-16.1058;1.0630;0.0242;-0.2338;0.0572
0000911191;5.6336;-16.0172;0.9960;0.0300;-0.2433;0.0580
0000911202;5.5138;-15.9143;0.9768;0.0356;-0.2565;0.0554
0000911210;5.6695;-15.8161;0.9912;0.0280;-0.2450;0.0650
0000911222;5.7054;-15.8209;0.9697;0.0226;-0.2377;0.0678
0000911230;5.7365;-15.9190;0.9577;0.0250;-0.2429;0.0596
0000911238;5.7940;-16.0483;0.9337;0.0314;-0.2589;0.0517
0000911306;5.8562;-16.2949;0.8954;0.1414;-0.2433;0.0472
0000911314;5.8897;-16.0579;0.9720;0.1503;-0.2254;0.0469
0000911326;5.7940;-16.0890;1.0104;0.1599;-0.2152;0.0294
0000911334;5.7102;-16.0100;1.0104;0.1577;-0.2146;0.0281
0000911345;5.5833;-15.9502;0.8715;0.1458;-0.2233;0.0204
0000911353;5.4588;-15.9597;0.7973;0.1360;-0.2302;0.0216
0000911365;5.4995;-16.0771;0.8619;0.1354;-0.2353;0.0249
0000911373;5.5115;-16.1465;0.8739;0.1472;-0.2549;0.0262
0000911381;5.6312;-16.1441;0.8954;0.1575;-0.2521;0.0364
0000911392;5.6168;-16.1393;0.8954;0.1853;-0.2579;0.0438
0000911400;5.6910;-16.1321;1.0367;0.1973;-0.2515;0.0516
0000911412;5.6934;-15.9023;1.0918;0.2132;-0.2477;0.0570
0000911420;5.7221;-15.6964;1.0367;0.2172;-0.2539;0.0493
0000911431;5.4348;-15.8137;0.8715;0.2124;-0.2606;0.0425
0000911439;5.4755;-15.7155;0.7709;0.2061;-0.2667;0.0418
0000911451;5.3319;-15.7778;0.8547;0.2176;-0.2982;0.0354
0000911459;5.3247;-15.8807;1.0439;0.2292;-0.3114;0.0348
0000911467;5.2002;-15.8879;1.1516;0.2368;-0.3301;0.0320
0000911478;5.2864;-15.7586;1.1516;0.2401;-0.3421;0.0394
0000911486;5.1092;-15.7251;0.9936;0.2378;-0.3512;0.0482
0000911498;5.3343;-15.5743;0.7853;0.2280;-0.3555;0.0569
0000911506;5.4660;-15.6246;0.8404;0.2318;-0.3508;0.0713
0000911574;5.5306;-15.1553;1.1301;0.2154;-0.3167;-0.0352
0000911582;5.3151;-15.1026;1.0056;0.2096;-0.3305;-0.0441
0000911594;5.2313;-15.3085;1.2641;0.2172;-0.3473;-0.0364
0000911602;5.3343;-15.2535;1.5107;0.2551;-0.3505;-0.0165
0000911610;5.2289;-15.5384;1.7454;0.2983;-0.3491;0.0031
0000911621;5.3893;-15.5575;2.0494;0.3564;-0.3499;0.0183
0000911629;5.5354;-15.2247;2.0039;0.3809;-0.3603;0.0193
0000911641;5.8131;-14.5160;1.4150;0.3821;-0.3864;-0.0004
0000911649;5.9472;-13.9414;0.9960;0.3600;-0.4017;-0.0208
0000911660;5.8155;-13.5081;0.6057;0.3002;-0.4013;-0.0509
0000911668;5.8035;-13.5057;0.5650;0.2678;-0.3898;-0.0649
0000911680;6.0023;-13.5895;0.8092;0.2739;-0.3754;-0.0943
0000911688;6.0861;-13.9750;1.0391;0.2874;-0.3515;-0.0875
0000911700;6.0286;-14.5352;1.3024;0.3230;-0.3091;-0.0830
0000911708;6.2153;-14.6860;1.5610;0.3641;-0.2931;-0.0818
0000911716;6.2537;-14.9757;1.6807;0.4154;-0.2669;-0.0726
0000911728;6.1411;-14.9973;1.7597;0.5113;-0.2373;-0.0731
0000911736;5.9520;-14.8201;1.5251;0.5693;-0.2256;-0.0847
0000911748;5.7293;-14.4035;0.9529;0.6206;-0.1980;-0.1163
0000911756;5.7078;-13.9558;0.7901;0.6422;-0.2016;-0.1439
0000911824;4.5083;-14.4107;3.0765;1.1389;-0.5145;-0.0406
0000911832;4.5969;-13.7475;2.9544;1.2237;-0.5482;-0.0056
0000911844;5.0374;-12.6917;2.3463;1.3157;-0.5822;0.0240
0000911852;5.3726;-11.9997;1.8435;1.3221;-0.5840;0.0274
0000911860;5.6503;-11.5041;1.4700;1.3077;-0.5911;0.0203
0000911872;6.4189;-10.7260;1.1540;1.2497;-0.5694;-0.0191
0000911880;6.9935;-10.4818;1.0487;1.2327;-0.5488;-0.0582
0000911892;7.7907;-10.3358;0.7685;1.1738;-0.4795;-0.1041
0000911900;8.0158;-10.5345;0.7542;1.1350;-0.4306;-0.1307
0000911912;8.6431;-10.8649;0.7135;1.0989;-0.3417;-0.1571
0000911920;8.6072;-10.9654;0.8835;1.1369;-0.2725;-0.1540
0000911932;7.7979;-11.5927;0.8164;1.1955;-0.1434;-0.1212
0000911940;7.5753;-11.7436;0.6752;1.2613;-0.0741;-0.1208
0000911952;6.8594;-12.1171;0.5339;1.3860;-0.0043;-0.1985
0000911960;7.0629;-12.2152;0.6033;1.4524;0.0292;-0.3044
0000911968;7.1371;-12.4020;0.8380;1.5250;0.0558;-0.4342
0000911980;7.4508;-12.8808;1.2689;1.6455;0.0686;-0.6043
0000911988;7.7692;-12.9909;1.6544;1.7633;0.0628;-0.6745
0000912000;7.6662;-13.2974;2.2458;1.8688;0.0489;-0.6801
0000912008;7.6423;-12.7731;2.0016;1.9544;0.0493;-0.6226
0000912020;7.1491;-12.0021;2.0111;2.0438;0.0893;-0.4815
0000912028;7.0366;-11.3342;2.0614;2.1140;0.1171;-0.3945
0000912096;6.9240;-12.0285;10.1011;1.3003;0.1981;-0.2654
0000912104;12.6534;-24.1407;78.4508;1.8972;1.9369;0.3547
0000912112;13.2208;-77.3423;78.4508;0.6396;2.6362;1.7798
0000912124;3.1987;-63.7241;-9.5265;4.3656;-0.7498;0.8014
0000912132;2.5666;-44.8147;7.6686;4.3656;-0.9009;0.6583
0000912144;-0.3903;-25.1104;2.1093;4.3656;-0.1589;-0.1190
0000912152;-0.8595;-19.7402;-4.4412;4.3656;-0.2932;-0.4860
0000912164;-1.1971;-17.2119;-3.8499;4.3656;-0.6643;-0.3156
0000912172;-0.3615;-17.3197;-1.2546;4.3656;-0.5444;-0.1793
0000912184;5.5138;-19.6756;3.7038;4.3656;-0.1793;-0.4495
0000912192;10.2065;-21.5694;7.2185;4.3656;-0.0675;-1.2127
0000912204;16.3476;-20.3028;9.6295;4.3656;0.0942;-2.1452
0000912212;16.6732;-13.3692;12.7994;4.3656;0.3645;-2.2239
0000912224;15.9382;-1.2833;16.5559;4.3656;0.6221;-1.5865
0000912232;14.3461;3.4477;13.6685;4.3656;0.7945;-0.6198
0000912240;13.5608;5.5210;9.9455;3.4462;0.9711;0.3540
0000912252;10.6781;9.5170;9.9383;2.4825;1.0160;1.6132
0000912260;7.2784;8.7747;7.8554;2.5630;0.7863;2.0030
0000912272;2.6887;8.8394;5.2553;3.4187;0.2836;1.6586
0000912280;1.2019;11.3389;3.6751;4.3083;0.1783;0.6961
0000912292;0.8906;10.0580;3.7948;4.3656;0.1644;-1.2453
0000912300;-1.2833;7.8099;0.9074;4.3656;-0.1527;-2.1011
0000912308;-2.7677;7.5585;-2.2721;4.3656;-0.8660;-2.3256
0000912376;9.0812;6.6679;1.2163;-3.9439;-0.5233;1.4723
0000912384;10.1418;5.3941;2.9257;-4.2419;-0.4994;1.5111
0000912396;10.0868;3.0215;5.2888;-4.3657;-0.4153;1.3600
0000912404;10.1035;1.0989;6.2058;-4.3657;-0.3192;1.1836
0000912416;10.1442;-1.3408;8.5497;-4.3657;-0.0811;0.9943
0000912424;9.7396;-4.2377;12.4451;-4.3657;0.3194;0.9762
0000912436;11.0756;-11.6693;21.8758;-4.3657;1.2489;0.9931
0000912444;9.6798;-19.8479;21.8782;-4.3657;1.4477;1.1073
0000912452;8.1738;-24.4304;15.8089;-2.6738;1.0087;1.1229
0000912464;5.9137;-15.9143;2.7509;0.4114;0.3960;0.6559
0000912472;5.3846;-13.2878;1.4078;1.7303;0.0618;0.3793
0000912484;6.2489;-11.6071;6.5434;2.0475;0.1768;0.0733
0000912492;6.6272;-12.2799;11.7890;1.1542;0.3305;-0.0424
0000912504;5.6719;-11.3701;12.9861;-0.2940;0.2393;-0.2285
0000912512;4.8459;-10.1490;10.2352;-0.2042;0.0683;-0.4603
0000912524;4.6902;-8.4611;8.5353;0.2577;-0.0759;-0.6968
0000912532;5.4396;-6.7014;8.8969;0.4722;-0.1039;-0.7304
0000912543;5.6144;-4.8626;8.9543;0.5842;-0.1587;-0.6863
0000912551;5.6934;-4.3144;8.6024;0.5967;-0.2129;-0.6087
0000912559;5.9568;-3.7014;8.1547;0.6021;-0.2491;-0.5272
0000912571;6.4883;-2.9449;8.5305;0.5448;-0.2403;-0.3908
0000912579;6.6774;-2.4541;8.6335;0.4159;-0.1845;-0.2570
0000912647;7.1922;-6.7516;9.9120;-0.4229;0.0906;-0.0204
0000912655;7.0006;-7.0820;10.0365;-0.3857;0.1111;-0.0886
0000912667;7.1347;-7.2137;9.8833;-0.3179;0.1065;-0.1371
0000912676;7.3885;-7.0581;9.7851;-0.2562;0.0839;-0.1593
0000912689;7.4077;-6.9312;9.7229;-0.2049;0.0931;-0.1443
0000912698;7.2113;-6.9456;9.7588;-0.2046;0.1232;-0.1216
0000912707;7.2688;-6.6152;9.6367;-0.2101;0.1412;-0.1126
0000912720;6.6439;-6.5793;9.2033;-0.2362;0.1419;-0.0990
0000912729;6.4212;-6.4739;9.0357;-0.2613;0.1299;-0.1053
0000912742;6.0861;-6.4236;9.0644;-0.2840;0.1134;-0.1151
0000912751;5.9927;-6.2872;9.0716;-0.2915;0.0801;-0.1184
0000912764;5.7628;-6.4955;9.0525;-0.2856;0.0137;-0.1002
0000912773;5.8610;-6.6032;9.2201;-0.2775;-0.0365;-0.0771
0000912786;5.8921;-6.7924;9.4786;-0.2695;-0.0823;-0.0301
0000912795;6.0430;-6.9528;9.6151;-0.2582;-0.0943;0.0196
0000912804;6.0430;-7.1060;9.6606;-0.2426;-0.1110;0.0453
0000912817;6.1220;-7.2353;9.5840;-0.2097;-0.1100;0.0787
0000912826;6.4787;-7.2449;9.4763;-0.1884;-0.1037;0.0921
0000912839;6.6774;-7.3215;9.4068;-0.1639;-0.0818;0.0950
0000912848;7.0342;-7.2688;9.4068;-0.1462;-0.0753;0.0901
0000912861;7.1251;-7.4364;9.3541;-0.1406;-0.0641;0.0687
0000912870;7.2281;-7.5298;9.2799;-0.1515;-0.0476;0.0650
0000912939;6.4811;-7.2520;9.6223;-0.1010;0.0276;-0.0136
0000912948;6.3015;-7.3167;9.5170;-0.1046;0.0284;-0.0155
0000912957;6.2369;-7.3023;9.4715;-0.1268;0.0308;-0.0100
0000912970;6.3853;-7.4220;9.4140;-0.1611;0.0366;0.0049
0000912979;6.3877;-7.4388;9.3613;-0.1728;0.0373;0.0165
0000912992;6.2297;-7.5872;9.4188;-0.1817;0.0277;0.0236
0000913001;6.3279;-7.7189;9.4427;-0.1732;0.0238;0.0149
0000913014;6.3207;-7.7309;9.5313;-0.1663;0.0258;0.0156
0000913023;6.2776;-7.7165;9.5026;-0.1609;0.0270;0.0116
0000913036;6.4332;-7.6854;9.7157;-0.1680;0.0245;-0.0007
0000913045;6.3566;-7.9392;9.7923;-0.1688;0.0167;-0.0127
0000913054;6.4715;-7.9440;9.6798;-0.1676;0.0096;-0.0300
0000913067;6.5769;-7.8530;9.5960;-0.1805;0.0059;-0.0336
0000913076;6.4835;-7.8745;9.6103;-0.1892;0.0033;-0.0377
0000913089;6.4165;-7.8602;9.5600;-0.1920;0.0064;-0.0445
0000913098;6.5960;-7.8458;9.5098;-0.1901;0.0072;-0.0405
0000913111;6.5074;-7.9296;9.4954;-0.1915;0.0185;-0.0340
0000913120;6.6870;-7.9464;9.3685;-0.1888;0.0297;-0.0380
0000913136;6.6990;-7.9344;9.2847;-0.1839;0.0492;-0.0428
0000913145;6.7780;-7.8482;9.3422;-0.1763;0.0549;-0.0498
0000913154;6.5793;-7.9703;9.3206;-0.1708;0.0613;-0.0588
0000913222;5.9975;-7.8889;9.2895;-0.1324;-0.0032;-0.0012
0000913231;6.1100;-7.8290;9.3565;-0.1324;-0.0229;0.0045
0000913243;6.0094;-7.9033;9.2464;-0.1267;-0.0376;0.0246
0000913252;6.1124;-7.9775;9.1818;-0.1244;-0.0534;0.0256
0000913265;6.2249;-8.1810;9.2392;-0.1095;-0.0614;0.0220
0000913274;6.5098;-8.2456;9.1602;-0.1037;-0.0546;0.0209
0000913286;6.6726;-8.2528;9.2895;-0.0803;-0.0381;0.0137
0000913295;6.9001;-8.2097;9.3853;-0.0545;-0.0211;0.0008
0000913304;6.9599;-8.3414;9.4739;-0.0320;0.0037;-0.0103
0000913317;6.8618;-8.3342;9.4954;0.0027;0.0341;-0.0329
0000913326;6.6655;-8.2025;9.4954;0.0149;0.0561;-0.0353
0000913338;6.5601;-8.0110;9.5648;0.0181;0.0657;-0.0400
0000913347;6.3614;-7.9296;9.6007;0.0137;0.0693;-0.0350
0000913360;6.1914;-7.9128;9.6007;-0.0004;0.0614;-0.0445
0000913369;6.2058;-7.7979;9.4571;-0.0156;0.0462;-0.0374
0000913381;6.0430;-7.7476;9.4619;-0.0385;0.0305;-0.0306
0000913390;5.8586;-7.7716;9.5409;-0.0488;0.0033;-0.0298
0000913399;5.8538;-7.8171;9.5361;-0.0705;-0.0045;-0.0137
0000913412;5.8562;-7.7644;9.5912;-0.0809;-0.0252;0.0035
0000913421;6.0645;-7.9535;9.6893;-0.0891;-0.0304;0.0132
0000913433;6.3422;-7.8243;9.7133;-0.0899;-0.0376;0.0157
0000913442;6.5745;-7.9224;9.6510;-0.0951;-0.0334;0.0121
0000913511;6.3207;-8.0900;9.5960;-0.1395;-0.0233;-0.0236
0000913520;6.4189;-7.9631;9.5672;-0.1327;-0.0185;-0.0238
0000913532;6.3590;-8.1906;9.4619;-0.1340;-0.0057;-0.0373
0000913541;6.3997;-8.1355;9.4667;-0.1323;-0.0043;-0.0461
0000913550;6.4596;-8.1068;9.5098;-0.1338;0.0035;-0.0449
0000913563;6.4332;-8.2001;9.4332;-0.1326;0.0089;-0.0558
0000913572;6.3877;-8.1307;9.4403;-0.1366;0.0226;-0.0618
0000913584;6.1531;-8.2169;9.3901;-0.1311;0.0209;-0.0767
0000913593;6.2321;-8.1786;9.3422;-0.1346;0.0294;-0.0786
0000913606;6.1052;-8.2720;9.3901;-0.1382;0.0248;-0.0889
0000913615;6.1914;-8.3294;9.4332;-0.1404;0.0216;-0.0947
0000913627;6.3901;-8.1187;9.4786;-0.1432;0.0135;-0.0954
0000913636;6.0932;-8.3869;9.6031;-0.1411;0.0035;-0.1033
0000913645;6.4117;-8.2384;9.5577;-0.1399;0.0041;-0.1058
0000913658;6.3207;-8.2863;9.5696;-0.1482;0.0067;-0.1029
0000913667;6.2848;-8.3007;9.4739;-0.1392;0.0015;-0.1140
0000913679;6.2704;-8.2959;9.4020;-0.1454;0.0012;-0.1131
0000913688;6.3829;-8.2600;9.4571;-0.1474;-0.0005;-0.1123
0000913701;6.1675;-8.3725;9.4667;-0.1416;-0.0069;-0.1220
0000913710;6.3255;-8.2552;9.3925;-0.1482;-0.0012;-0.1175
0000913722;6.3207;-8.2839;9.4643;-0.1451;-0.0004;-0.1172
0000913731;6.3087;-8.3414;9.3781;-0.1366;-0.0032;-0.1203
0000913800;6.0932;-8.3653;9.3518;-0.1188;-0.0079;-0.1240
0000913809;5.9496;-8.4779;9.4236;-0.1108;-0.0149;-0.1159
0000913818;6.0118;-8.4108;9.2632;-0.1128;-0.0133;-0.1120
0000913830;6.0430;-8.5497;9.3781;-0.0927;-0.0232;-0.1088
0000913839;6.1268;-8.4108;9.4451;-0.0869;-0.0289;-0.1092
0000913852;6.0286;-8.5712;9.4355;-0.0755;-0.0237;-0.1017
0000913861;6.1028;-8.5449;9.3278;-0.0640;-0.0276;-0.1021
0000913873;6.2201;-8.3941;9.3877;-0.0602;-0.0195;-0.1022
0000913882;5.9640;-8.3294;9.3685;-0.0737;-0.0121;-0.1059
0000913895;6.1052;-8.3653;9.4164;-0.0777;-0.0153;-0.1224
0000913904;6.0023;-8.3893;9.4954;-0.0830;-0.0089;-0.1176
0000913913;6.1220;-8.2456;9.4858;-0.0929;-0.0222;-0.1216
0000913925;6.2417;-8.2600;9.5337;-0.1127;-0.0123;-0.1010
0000913934;6.1100;-8.2432;9.3518;-0.1115;-0.0211;-0.1057
0000913947;6.0047;-8.4300;9.4260;-0.1224;-0.0137;-0.0959
0000913956;6.0693;-8.3270;9.4451;-0.1310;-0.0177;-0.1013
0000913968;5.9759;-8.5569;9.5098;-0.1368;-0.0177;-0.1035
0000913977;6.1531;-8.4874;9.4715;-0.1315;-0.0207;-0.1021
0000913990;6.2106;-8.3270;9.4260;-0.1402;-0.0218;-0.0967
0000913999;6.3183;-8.2265;9.4763;-0.1495;-0.0169;-0.0975
0000914011;6.1507;-8.4731;9.5672;-0.1499;-0.0192;-0.0994
0000914020;6.0525;-8.4204;9.5577;-0.1567;-0.0076;-0.0878
0000914029;6.1555;-8.4180;9.5170;-0.1625;-0.0108;-0.0923
0000914098;6.1363;-8.5904;9.3374;-0.1707;-0.0236;-0.0862
0000914107;6.1531;-8.6455;9.3901;-0.1645;-0.0244;-0.0787
0000914119;6.2824;-8.6000;9.3661;-0.1507;-0.0254;-0.0763
0000914128;5.8179;-8.8250;9.3996;-0.1362;-0.0282;-0.0723
0000914141;6.0908;-8.8083;9.2943;-0.1280;-0.0234;-0.0633
0000914150;6.1148;-8.7963;9.2153;-0.1267;-0.0101;-0.0528
0000914162;6.3087;-8.7149;9.1482;-0.1156;-0.0117;-0.0528
0000914171;6.1052;-8.8849;9.2488;-0.1087;-0.0132;-0.0537
0000914184;6.1627;-8.8226;9.3422;-0.0939;-0.0257;-0.0573
0000914193;6.1148;-8.9615;9.3541;-0.0871;-0.0300;-0.0496
0000914202;6.0573;-8.8466;9.2871;-0.0731;-0.0421;-0.0546
0000914214;6.0573;-8.7987;9.1506;-0.0612;-0.0425;-0.0401
0000914223;6.1723;-8.9807;9.2847;-0.0616;-0.0490;-0.0268
0000914236;6.3494;-8.8514;9.3230;-0.0542;-0.0505;-0.0187
0000914245;6.0908;-8.9591;9.3039;-0.0488;-0.0456;-0.0137
0000914257;6.3303;-8.9663;9.3565;-0.0361;-0.0434;-0.0140
0000914266;6.3925;-9.0501;9.2033;-0.0294;-0.0374;-0.0136
0000914279;6.2321;-9.0573;9.3494;-0.0183;-0.0277;-0.0195
0000914288;6.2776;-8.9639;9.4571;-0.0253;-0.0175;-0.0112
0000914300;6.2321;-9.1051;9.3589;-0.0200;-0.0180;-0.0185
0000914309;6.0813;-8.9160;9.4260;-0.0161;-0.0189;-0.0349
0000914318;6.0645;-8.9735;9.3565;-0.0320;-0.0125;-0.0357
0000914387;6.2441;-8.9112;9.2081;-0.0950;-0.0218;-0.0292
0000914396;6.3614;-8.8705;9.2320;-0.0978;-0.0192;-0.0342
0000914408;6.1770;-9.1315;9.1866;-0.0858;-0.0265;-0.0342
0000914417;6.2321;-9.0764;9.1482;-0.0906;-0.0205;-0.0264
0000914430;6.3398;-9.0501;9.2727;-0.0861;-0.0282;-0.0244
0000914439;6.0525;-9.2177;9.2009;-0.0754;-0.0384;-0.0292
0000914451;6.1483;-9.0261;9.1004;-0.0718;-0.0417;-0.0286
0000914460;6.2201;-9.0908;9.2488;-0.0706;-0.0416;-0.0325
0000914473;6.0166;-9.2201;9.2320;-0.0735;-0.0400;-0.0238
0000914482;6.2584;-9.0788;9.2703;-0.0621;-0.0358;-0.0250
0000914491;6.2273;-9.2201;9.2368;-0.0630;-0.0308;-0.0217
0000914503;6.3327;-9.0956;9.2273;-0.0480;-0.0337;-0.0280
0000914512;6.3207;-9.1387;9.2081;-0.0496;-0.0328;-0.0265
0000914525;6.1292;-8.9663;9.1602;-0.0385;-0.0466;-0.0336
0000914534;6.1459;-9.0094;9.2512;-0.0341;-0.0514;-0.0260
0000914546;6.0861;-9.0405;9.2057;-0.0248;-0.0574;-0.0215
0000914555;6.0861;-9.0764;9.2943;-0.0196;-0.0526;-0.0099
0000914568;6.2680;-9.0740;9.2033;-0.0153;-0.0485;-0.0080
0000914577;6.3494;-9.0549;9.2225;-0.0135;-0.0424;-0.0087
0000914590;6.2010;-9.1435;9.3063;-0.0149;-0.0449;-0.0139
0000914599;6.0885;-9.3254;9.1961;-0.0115;-0.0505;-0.0226
0000914608;6.2944;-9.0070;9.1626;-0.0064;-0.0565;-0.0294
0000914678;6.2393;-9.0644;9.2895;0.0212;-0.0528;-0.0386
0000914687;6.3375;-9.0022;9.1794;0.0228;-0.0562;-0.0402
0000914700;6.2728;-8.8969;9.2296;0.0232;-0.0514;-0.0352
0000914709;6.1531;-9.1459;9.2943;0.0286;-0.0518;-0.0336
0000914721;6.3446;-8.9615;9.2823;0.0278;-0.0516;-0.0310
0000914730;6.3087;-8.9016;9.3111;0.0234;-0.0558;-0.0328
0000914743;6.2632;-9.0214;9.3398;0.0278;-0.0642;-0.0396
0000914752;6.2896;-8.8825;9.3350;0.0208;-0.0646;-0.0317
0000914761;6.2010;-8.9519;9.3326;0.0205;-0.0746;-0.0368
0000914773;6.1651;-8.9735;9.3206;0.0197;-0.0735;-0.0211
0000914782;6.1770;-8.9256;9.4116;0.0225;-0.0722;-0.0177
0000914795;6.2058;-8.7676;9.3230;0.0036;-0.0616;-0.0100
0000914804;6.3949;-8.7532;9.3015;-0.0108;-0.0566;-0.0097
0000914816;6.3351;-8.8202;9.1435;-0.0225;-0.0558;-0.0153
0000914825;6.2177;-8.9423;9.1578;-0.0289;-0.0609;-0.0199
0000914838;6.1148;-8.8777;9.2368;-0.0346;-0.0626;-0.0179
0000914847;6.2393;-8.8346;9.2344;-0.0306;-0.0667;-0.0147
0000914856;6.0071;-9.1339;9.3278;-0.0237;-0.0625;-0.0061
0000914868;6.2441;-9.1075;9.3111;-0.0120;-0.0493;0.0039
0000914877;6.0956;-9.2847;9.2943;0.0007;-0.0472;0.0085
0000914946;6.0238;-8.9639;9.2608;-0.0061;-0.0685;-0.0242
0000914955;6.1459;-8.8705;9.2153;-0.0027;-0.0679;-0.0167
0000914967;6.2441;-8.9304;9.1985;0.0009;-0.0674;-0.0119
0000914976;6.1723;-9.0836;9.2201;0.0051;-0.0699;-0.0169
0000914989;6.3422;-9.0429;9.1866;0.0161;-0.0682;-0.0105
0000914998;6.1268;-9.1028;9.1363;0.0238;-0.0633;-0.0208
0000915007;6.2776;-9.1554;9.1506;0.0304;-0.0608;-0.0221
0000915019;6.1842;-9.1506;9.1243;0.0256;-0.0438;-0.0193
0000915028;6.2297;-9.1506;9.2057;0.0288;-0.0341;-0.0181
0000915041;6.3255;-9.0118;9.1985;0.0336;-0.0310;-0.0177
0000915050;6.1842;-9.1004;9.1698;0.0460;-0.0440;-0.0249
0000915062;6.2824;-8.8969;9.3134;0.0442;-0.0504;-0.0336
0000915071;6.2800;-8.9016;9.3111;0.0336;-0.0536;-0.0313
0000915084;6.1938;-8.9352;9.2799;0.0314;-0.0517;-0.0306
0000915093;6.2824;-8.8562;9.3972;0.0340;-0.0552;-0.0318
0000915105;6.2824;-8.8585;9.3661;0.0224;-0.0457;-0.0211
0000915114;6.4476;-8.6814;9.4020;0.0217;-0.0477;-0.0209
0000915123;6.4452;-8.7939;9.4020;0.0077;-0.0468;-0.0225
0000915136;6.3087;-8.7939;9.4403;-0.0072;-0.0490;-0.0288
0000915145;6.3207;-8.8394;9.4188;-0.0108;-0.0528;-0.0329
0000915157;6.2249;-8.7915;9.3853;-0.0268;-0.0457;-0.0293
0000915166;6.1459;-8.9495;9.3470;-0.0358;-0.0432;-0.0244
0000915234;6.4524;-8.8992;9.2440;-0.0147;-0.0377;-0.0298
0000915243;6.3422;-8.9136;9.1913;-0.0248;-0.0280;-0.0238
0000915255;6.4404;-8.7101;9.1482;-0.0329;-0.0276;-0.0256
0000915264;6.3997;-8.7724;9.1411;-0.0301;-0.0289;-0.0350
0000915273;6.4596;-8.7532;9.2201;-0.0378;-0.0304;-0.0401
0000915286;6.0741;-9.0142;9.3446;-0.0378;-0.0392;-0.0438
0000915295;6.1459;-9.0333;9.3661;-0.0270;-0.0484;-0.0521
0000915307;6.2201;-8.9399;9.3398;-0.0177;-0.0490;-0.0409
0000915316;6.4332;-8.9854;9.3063;-0.0108;-0.0420;-0.0330
0000915329;6.2106;-9.2249;9.3111;0.0065;-0.0381;-0.0313
0000915338;6.3303;-9.1363;9.2608;0.0149;-0.0338;-0.0288
0000915350;6.3949;-8.9711;9.2943;0.0167;-0.0318;-0.0330
0000915359;6.3638;-8.9064;9.3637;0.0135;-0.0384;-0.0454
0000915372;6.1675;-8.7891;9.4164;0.0004;-0.0374;-0.0438
0000915381;6.2249;-8.7747;9.3589;-0.0033;-0.0394;-0.0430
0000915390;6.2944;-8.7987;9.3230;-0.0159;-0.0360;-0.0378
0000915402;6.2225;-8.7843;9.3589;-0.0189;-0.0406;-0.0340
0000915411;6.3279;-8.8921;9.2847;-0.0208;-0.0369;-0.0277
0000915424;6.3829;-8.9232;9.2847;-0.0212;-0.0365;-0.0245
0000915433;6.2632;-8.9543;9.3039;-0.0163;-0.0409;-0.0242
0000915445;6.3949;-8.8657;9.2871;-0.0230;-0.0430;-0.0274
0000915454;6.3829;-8.8442;9.2296;-0.0159;-0.0533;-0.0346
0000915523;6.4955;-8.9495;9.3230;-0.0009;-0.0482;-0.0171
0000915532;6.3422;-8.9735;9.2703;0.0072;-0.0473;-0.0159
0000915541;6.4787;-8.8681;9.2943;0.0023;-0.0454;-0.0212
0000915553;6.4452;-8.8107;9.2943;0.0059;-0.0401;-0.0164
0000915562;6.3303;-8.9854;9.1698;0.0035;-0.0390;-0.0121
0000915575;6.2800;-8.9663;9.3039;0.0107;-0.0377;-0.0048
0000915584;6.4620;-8.8801;9.3230;0.0173;-0.0452;-0.0091
0000915596;6.4524;-8.7269;9.3781;0.0125;-0.0442;-0.0089
0000915605;6.3638;-8.6407;9.3111;0.0024;-0.0429;-0.0081
0000915618;6.3279;-8.8466;9.3374;-0.0085;-0.0453;-0.0141
0000915627;6.3614;-8.8155;9.2225;-0.0112;-0.0426;-0.0093
0000915639;6.4189;-8.8490;9.3853;-0.0155;-0.0466;-0.0064
0000915648;6.5050;-8.8155;9.3661;-0.0197;-0.0378;-0.0011
0000915657;6.3997;-8.9184;9.3541;-0.0172;-0.0381;0.0011
0000915670;6.3087;-8.8825;9.3948;-0.0155;-0.0405;-0.0019
0000915679;6.1555;-8.9998;9.3302;-0.0079;-0.0532;-0.0108
0000915691;6.4332;-8.7436;9.2727;-0.0111;-0.0528;-0.0097
0000915700;6.3063;-8.8562;9.3350;-0.0129;-0.0488;0.0001
0000915713;6.4835;-8.6598;9.2967;-0.0352;-0.0389;0.0053
0000915722;6.3446;-8.8274;9.2656;-0.0412;-0.0421;-0.0004
0000915734;6.4883;-8.7245;9.2225;-0.0485;-0.0458;-0.0105
0000915743;6.4620;-8.7580;9.2632;-0.0508;-0.0446;-0.0105
0000915752;6.2273;-8.9016;9.2033;-0.0553;-0.0393;-0.0049
0000915821;6.3063;-8.9807;9.3206;0.0144;-0.0345;-0.0188
0000915830;6.1411;-8.9280;9.2536;0.0147;-0.0417;-0.0270
0000915842;6.2513;-8.8873;9.2273;0.0204;-0.0489;-0.0266
0000915851;6.2656;-8.7867;9.1913;0.0125;-0.0449;-0.0177
0000915864;6.1651;-8.8825;9.2919;-0.0017;-0.0412;-0.0153
0000915873;6.5290;-8.7604;9.3158;-0.0051;-0.0429;-0.0121
0000915885;6.1387;-8.9328;9.4020;-0.0080;-0.0445;-0.0164
0000915894;6.3734;-8.9447;9.4403;-0.0009;-0.0501;-0.0193
0000915907;6.3734;-8.9304;9.2943;0.0064;-0.0540;-0.0270
0000915916;6.4308;-8.8873;9.4092;0.0156;-0.0556;-0.0308
0000915925;6.4284;-8.8394;9.3422;0.0177;-0.0504;-0.0250
0000915937;6.3494;-8.9974;9.2129;0.0183;-0.0548;-0.0187
0000915946;6.6152;-8.7652;9.3134;0.0093;-0.0457;-0.0176
0000915959;6.4524;-8.8585;9.2967;0.0065;-0.0428;-0.0160
0000915968;6.3925;-8.8155;9.2799;-0.0056;-0.0392;-0.0128
0000915980;6.5553;-8.7700;9.2823;-0.0068;-0.0349;-0.0167
0000915989;6.3422;-8.8849;9.2560;-0.0015;-0.0388;-0.0224
0000916002;6.2584;-9.0261;9.3063;-0.0039;-0.0401;-0.0157
0000916011;6.3782;-8.7867;9.3901;-0.0037;-0.0378;-0.0155
0000916020;6.3901;-8.9447;9.3565;-0.0061;-0.0357;-0.0036
0000916032;6.5242;-8.7987;9.2991;-0.0068;-0.0354;-0.0083
0000916041;6.3398;-9.0094;9.2177;-0.0052;-0.0441;-0.0127
0000916111;6.3614;-8.9639;9.3039;-0.0280;-0.0341;-0.0085
0000916118;6.4620;-8.9519;9.1937;-0.0232;-0.0366;-0.0068
0000916130;6.3207;-8.8753;9.4092;-0.0192;-0.0370;0.0005
0000916138;6.3279;-9.0190;9.3541;-0.0124;-0.0378;0.0005
0000916149;6.2058;-9.0022;9.2847;-0.0076;-0.0414;0.0001
