time;acc_x;acc_y;acc_z;gyro_x;gyro_y;gyro_z
0000931707;5.7820;-15.8783;1.7645;-0.0121;0.0296;-0.0161
0000931716;5.6407;-15.9885;1.6209;-0.0212;0.0353;-0.0091
0000931723;5.6288;-15.9214;1.6735;-0.0224;0.0380;-0.0093
0000931731;5.5019;-16.0435;1.6688;-0.0205;0.0350;-0.0077
0000931740;5.5665;-16.0795;1.6305;-0.0228;0.0377;-0.0123
0000931748;5.7820;-15.9645;1.8196;-0.0185;0.0369;-0.0100
0000931760;5.4109;-16.1561;1.6472;-0.0171;0.0288;-0.0109
0000931768;5.3606;-16.1417;1.7789;-0.0105;0.0280;-0.0133
0000931776;5.6886;-15.9669;1.7310;-0.0128;0.0305;-0.0052
0000931787;5.4827;-16.2064;1.6735;-0.0043;0.0211;-0.0071
0000931795;5.3271;-16.1441;1.6688;-0.0107;0.0176;-0.0063
0000931807;5.4708;-16.0220;1.5993;-0.0191;0.0237;-0.0021
0000931815;5.5210;-16.0507;1.6879;-0.0193;0.0121;-0.0067
0000931826;5.5330;-16.0531;1.6400;-0.0225;0.0124;-0.0060
0000931834;5.5737;-15.9981;1.6951;-0.0212;0.0041;-0.0116
0000931846;5.4636;-16.1441;1.7334;-0.0161;-0.0041;-0.0052
0000931854;5.4803;-15.9526;1.7071;-0.0217;-0.0068;-0.0056
0000931865;5.3822;-16.0699;1.7717;-0.0167;-0.0229;-0.0059
0000931873;5.3606;-16.0052;1.7262;-0.0181;-0.0233;-0.0080
0000931881;5.4827;-15.9574;1.7023;-0.0184;-0.0334;-0.0088
0000931893;5.2912;-16.0914;1.7071;-0.0148;-0.0405;-0.0057
0000931901;5.5450;-15.9621;1.7190;-0.0140;-0.0537;-0.0127
0000931912;5.4061;-16.0651;1.7454;-0.0183;-0.0612;-0.0141
0000931920;5.4253;-15.9981;1.7023;-0.0135;-0.0659;-0.0135
0000931988;5.5258;-16.0292;1.6233;-0.0137;-0.0887;-0.0119
0000931996;5.5282;-16.1417;1.6568;-0.0208;-0.0829;-0.0107
0000932007;5.3989;-16.0842;1.6664;-0.0209;-0.0886;-0.0147
0000932015;5.5617;-15.9430;1.6281;-0.0197;-0.0841;-0.0080
0000932027;5.5474;-15.9933;1.5562;-0.0242;-0.0898;-0.0040
0000932035;5.5809;-16.0388;1.6113;-0.0181;-0.0993;-0.0073
0000932046;5.5210;-16.0435;1.5586;-0.0218;-0.0942;-0.0020
0000932054;5.4588;-15.9957;1.6855;-0.0204;-0.0966;-0.0035
0000932062;5.3893;-16.1800;1.6975;-0.0240;-0.0969;-0.0079
0000932074;5.2888;-16.2447;1.7238;-0.0246;-0.0958;-0.0019
0000932082;5.5258;-16.0316;1.6257;-0.0256;-0.0955;-0.0075
0000932093;5.5617;-15.9909;1.5826;-0.0296;-0.0909;-0.0056
0000932101;5.4875;-15.9741;1.6903;-0.0240;-0.0909;-0.0100
0000932113;5.4731;-16.2111;1.6400;-0.0266;-0.0851;-0.0040
0000932121;5.5809;-16.1034;1.6688;-0.0266;-0.0863;-0.0084
0000932132;5.6479;-16.0866;1.6592;-0.0245;-0.0875;-0.0139
0000932140;5.6599;-16.0459;1.6113;-0.0207;-0.0894;-0.0136
0000932152;5.4588;-16.0986;1.5203;-0.0229;-0.0818;-0.0140
0000932160;5.5306;-16.1058;1.5610;-0.0205;-0.0793;-0.0128
0000932171;5.6647;-16.0316;1.5706;-0.0222;-0.0723;-0.0159
0000932179;5.4731;-16.2447;1.6161;-0.0222;-0.0677;-0.0109
0000932187;5.4372;-16.2375;1.6712;-0.0220;-0.0678;-0.0148
0000932255;5.5210;-16.0292;1.6640;-0.0318;-0.0422;-0.0111
0000932263;5.6455;-15.9071;1.7071;-0.0288;-0.0466;-0.0179
0000932274;5.6910;-16.0483;1.6376;-0.0336;-0.0414;-0.0175
0000932282;5.5258;-15.9933;1.6185;-0.0280;-0.0421;-0.0179
0000932294;5.5569;-16.0172;1.6041;-0.0324;-0.0362;-0.0183
0000932302;5.5234;-16.0340;1.5897;-0.0345;-0.0296;-0.0109
0000932313;5.5498;-16.0723;1.5754;-0.0320;-0.0345;-0.0200
0000932321;5.5761;-16.0052;1.6257;-0.0365;-0.0253;-0.0187
0000932333;5.5833;-16.0507;1.6520;-0.0350;-0.0290;-0.0200
0000932341;5.5665;-15.9909;1.6137;-0.0452;-0.0215;-0.0189
0000932352;5.5881;-16.1585;1.5610;-0.0398;-0.0253;-0.0224
0000932360;5.4564;-16.1249;1.5993;-0.0449;-0.0169;-0.0140
0000932368;5.5186;-16.1776;1.6472;-0.0494;-0.0181;-0.0200
0000932380;5.6192;-16.1345;1.6209;-0.0452;-0.0144;-0.0145
0000932388;5.4492;-16.1441;1.5969;-0.0444;-0.0131;-0.0163
0000932399;5.6144;-16.0651;1.6592;-0.0406;-0.0108;-0.0131
0000932407;5.6503;-15.9981;1.5945;-0.0477;-0.0097;-0.0115
0000932419;5.4923;-16.2159;1.5586;-0.0494;-0.0060;-0.0115
0000932427;5.4612;-16.1417;1.6233;-0.0472;-0.0076;-0.0105
0000932439;5.6168;-16.0148;1.6640;-0.0446;-0.0089;-0.0147
0000932447;5.6407;-15.9238;1.5778;-0.0546;-0.0051;-0.0128
0000932515;5.4013;-16.1345;1.6568;-0.0476;0.0019;-0.0189
0000932523;5.4181;-16.1537;1.4341;-0.0493;0.0091;-0.0147
0000932534;5.7868;-15.9358;1.5658;-0.0492;0.0056;-0.0205
0000932542;5.5019;-16.2183;1.5826;-0.0562;0.0145;-0.0185
0000932550;5.5138;-16.0244;1.5419;-0.0550;0.0128;-0.0211
0000932562;5.6192;-16.0962;1.6041;-0.0533;0.0172;-0.0191
0000932570;5.4061;-16.0459;1.5826;-0.0586;0.0171;-0.0133
0000932581;5.5689;-16.0268;1.4892;-0.0606;0.0151;-0.0112
0000932589;5.6288;-16.0483;1.5251;-0.0569;0.0148;-0.0169
0000932601;5.5138;-16.0771;1.4916;-0.0498;0.0163;-0.0112
0000932609;5.5019;-16.2638;1.4461;-0.0449;0.0105;-0.0143
0000932620;5.6000;-16.1776;1.5227;-0.0313;0.0061;-0.0233
0000932628;5.5067;-16.1345;1.5347;-0.0364;0.0061;-0.0218
0000932640;5.4109;-16.2686;1.5874;-0.0326;0.0063;-0.0197
0000932648;5.6144;-15.9885;1.5131;-0.0260;-0.0044;-0.0272
0000932656;5.6144;-16.0028;1.4772;-0.0300;-0.0019;-0.0217
0000932667;5.5474;-16.0172;1.5682;-0.0298;-0.0105;-0.0176
0000932675;5.5761;-15.8448;1.4509;-0.0285;-0.0133;-0.0165
0000932687;5.5306;-16.0364;1.5730;-0.0352;-0.0165;-0.0156
0000932695;5.5019;-16.0699;1.4413;-0.0362;-0.0169;-0.0097
0000932707;5.6360;-15.9286;1.5467;-0.0362;-0.0224;-0.0157
0000932715;5.7174;-15.9621;1.5299;-0.0268;-0.0309;-0.0184
0000932783;5.5330;-16.0962;1.5467;-0.0293;-0.0466;-0.0208
0000932791;5.5545;-16.1034;1.5419;-0.0344;-0.0417;-0.0097
0000932802;5.5761;-16.1010;1.4653;-0.0360;-0.0380;-0.0139
0000932810;5.4971;-16.0986;1.5419;-0.0336;-0.0424;-0.0187
0000932818;5.4923;-16.2399;1.5682;-0.0298;-0.0388;-0.0141
0000932830;5.3510;-16.2878;1.5012;-0.0225;-0.0390;-0.0168
0000932838;5.6048;-16.1920;1.3934;-0.0268;-0.0368;-0.0159
0000932849;5.6527;-16.0579;1.4988;-0.0217;-0.0433;-0.0222
0000932857;5.6551;-16.0316;1.3479;-0.0211;-0.0369;-0.0204
0000932869;5.6312;-16.0675;1.4916;-0.0256;-0.0378;-0.0164
0000932877;5.7054;-16.0028;1.4700;-0.0213;-0.0425;-0.0189
0000932888;5.6623;-16.1824;1.4676;-0.0191;-0.0414;-0.0159
0000932896;5.4061;-16.3189;1.4557;-0.0175;-0.0432;-0.0185
0000932908;5.4109;-16.2016;1.4533;-0.0152;-0.0393;-0.0139
0000932916;5.4875;-16.1944;1.4246;-0.0048;-0.0430;-0.0180
0000932927;5.5833;-16.0914;1.4365;-0.0057;-0.0384;-0.0179
0000932935;5.6383;-16.1034;1.3623;-0.0057;-0.0320;-0.0173
0000932943;5.5402;-16.1417;1.4748;-0.0088;-0.0280;-0.0179
0000932955;5.3702;-16.1848;1.4940;-0.0063;-0.0296;-0.0183
0000932963;5.7533;-15.9454;1.3384;0.0035;-0.0381;-0.0233
0000932975;5.5952;-16.0292;1.3767;-0.0007;-0.0353;-0.0246
0000932983;5.6072;-16.0124;1.4988;-0.0076;-0.0304;-0.0189
0000933051;5.4444;-16.2183;1.4724;-0.0125;-0.0224;-0.0144
0000933059;5.5545;-16.1920;1.5131;-0.0159;-0.0160;-0.0144
0000933071;5.5043;-16.1968;1.4892;-0.0183;-0.0232;-0.0220
0000933079;5.4779;-16.2183;1.5419;-0.0140;-0.0208;-0.0217
0000933090;5.5833;-16.1321;1.3982;-0.0028;-0.0332;-0.0245
0000933098;5.5857;-16.1441;1.4006;-0.0077;-0.0320;-0.0177
0000933110;5.5138;-15.9717;1.4150;-0.0097;-0.0302;-0.0152
0000933118;5.6264;-15.9214;1.4222;-0.0173;-0.0316;-0.0163
0000933126;5.5617;-16.0340;1.4317;-0.0157;-0.0306;-0.0184
0000933137;5.6479;-15.9430;1.4509;-0.0167;-0.0294;-0.0161
0000933145;5.5617;-15.9741;1.4054;-0.0129;-0.0360;-0.0169
0000933157;5.4755;-16.0795;1.4006;-0.0084;-0.0330;-0.0197
0000933165;5.4468;-16.0388;1.4341;-0.0088;-0.0317;-0.0211
0000933176;5.5186;-16.0244;1.4581;-0.0132;-0.0334;-0.0225
0000933184;5.3917;-16.1704;1.4796;-0.0108;-0.0333;-0.0163
0000933196;5.5282;-16.2183;1.4246;-0.0163;-0.0393;-0.0159
0000933204;5.6192;-16.1034;1.4054;-0.0131;-0.0450;-0.0203
0000933215;5.5138;-16.0747;1.4533;-0.0184;-0.0348;-0.0135
0000933223;5.5426;-16.1609;1.4868;-0.0119;-0.0426;-0.0191
0000933235;5.5234;-16.2064;1.5227;-0.0120;-0.0374;-0.0140
0000933243;5.5210;-16.1776;1.5179;-0.0105;-0.0356;-0.0163
0000933251;5.4372;-16.2447;1.5323;-0.0093;-0.0312;-0.0165
0000933319;5.7365;-16.0435;1.4341;0.0028;-0.0402;-0.0107
0000933327;5.4588;-16.0316;1.4461;-0.0023;-0.0369;-0.0035
0000933339;5.6790;-16.0531;1.4030;0.0001;-0.0417;-0.0049
0000933347;5.5043;-16.1106;1.3982;0.0004;-0.0414;-0.0136
0000933358;5.5761;-16.0603;1.4676;-0.0019;-0.0409;-0.0111
0000933366;5.3917;-16.2542;1.4940;0.0040;-0.0424;-0.0084
0000933378;5.6383;-16.1537;1.5251;-0.0003;-0.0341;-0.0048
0000933386;5.4612;-16.1130;1.4485;-0.0003;-0.0352;-0.0092
0000933397;5.5617;-16.1417;1.4413;-0.0004;-0.0305;-0.0068
0000933405;5.5809;-15.9047;1.4413;-0.0007;-0.0340;-0.0135
0000933417;5.5545;-16.2207;1.4413;0.0037;-0.0321;-0.0124
0000933425;5.7174;-16.0268;1.4533;0.0003;-0.0281;-0.0083
0000933433;5.5952;-16.0914;1.5490;-0.0029;-0.0233;-0.0101
0000933444;5.5186;-16.1441;1.4964;-0.0027;-0.0309;-0.0061
0000933452;5.6407;-16.0412;1.4844;-0.0093;-0.0248;-0.0083
0000933464;5.5905;-16.0627;1.3982;-0.0064;-0.0261;-0.0099
0000933472;5.5545;-16.1010;1.4796;-0.0035;-0.0249;-0.0123
0000933483;5.7245;-16.0412;1.4629;-0.0040;-0.0144;-0.0068
0000933491;5.4947;-16.2064;1.4724;0.0009;-0.0253;-0.0133
0000933503;5.6527;-16.1273;1.5036;0.0001;-0.0229;-0.0163
0000933511;5.4420;-16.2279;1.5538;0.0001;-0.0215;-0.0155
0000933578;5.6048;-15.9861;1.5179;-0.0112;-0.0195;-0.0049
0000933586;5.5474;-16.1249;1.4317;-0.0053;-0.0256;-0.0060
0000933594;5.5138;-16.1776;1.3671;-0.0051;-0.0196;-0.0019
0000933606;5.5354;-16.1249;1.4892;-0.0008;-0.0246;-0.0068
0000933614;5.5330;-16.1010;1.4581;0.0003;-0.0274;-0.0052
0000933625;5.4971;-16.0196;1.4078;0.0032;-0.0278;-0.0131
0000933633;5.5713;-16.0172;1.4676;0.0052;-0.0322;-0.0143
0000933645;5.4037;-16.1297;1.4605;-0.0008;-0.0349;-0.0177
0000933653;5.5522;-16.1465;1.4509;-0.0075;-0.0294;-0.0083
0000933664;5.5210;-16.1992;1.4198;-0.0091;-0.0272;-0.0147
0000933672;5.4468;-16.2518;1.5323;-0.0024;-0.0280;-0.0144
0000933684;5.5713;-16.1920;1.4868;-0.0011;-0.0317;-0.0159
0000933692;5.5450;-16.2135;1.4700;-0.0051;-0.0261;-0.0069
0000933703;5.7078;-15.9550;1.4676;-0.0027;-0.0285;-0.0064
0000933711;5.4013;-16.1872;1.4796;-0.0091;-0.0272;-0.0023
0000933719;5.4708;-16.0531;1.6185;-0.0028;-0.0309;-0.0096
0000933731;5.5354;-16.1704;1.5371;-0.0040;-0.0293;-0.0047
0000933739;5.4516;-16.1130;1.5131;-0.0084;-0.0294;-0.0033
0000933750;5.6455;-16.0675;1.5467;-0.0027;-0.0354;-0.0068
0000933758;5.4277;-16.1273;1.5538;-0.0059;-0.0410;-0.0047
0000933770;5.5282;-16.0603;1.3527;0.0007;-0.0422;-0.0021
0000933778;5.5210;-16.1752;1.4365;-0.0024;-0.0414;-0.0105
0000933845;5.5282;-16.0435;1.4533;0.0204;-0.0406;-0.0057
0000933853;5.4324;-16.0962;1.4222;0.0201;-0.0341;-0.0029
0000933865;5.5641;-16.1680;1.5251;0.0262;-0.0388;-0.0024
0000933873;5.5234;-16.0795;1.5443;0.0238;-0.0401;-0.0007
0000933881;5.4372;-15.9837;1.4748;0.0266;-0.0454;-0.0029
0000933892;5.4588;-16.0196;1.4988;0.0330;-0.0505;-0.0088
0000933900;5.4277;-16.2111;1.4988;0.0245;-0.0516;-0.0040
0000933912;5.5115;-16.0603;1.4533;0.0312;-0.0536;-0.0132
0000933920;5.4899;-16.1345;1.4317;0.0266;-0.0484;-0.0069
0000933931;5.6120;-16.1106;1.5251;0.0308;-0.0518;-0.0088
0000933939;5.6264;-16.1321;1.5802;0.0324;-0.0490;-0.0092
0000933951;5.6144;-16.0938;1.5347;0.0333;-0.0465;-0.0075
0000933959;5.4779;-16.1585;1.5443;0.0426;-0.0545;-0.0103
0000933970;5.4995;-16.1513;1.5251;0.0478;-0.0502;-0.0107
0000933978;5.5450;-16.0531;1.6185;0.0432;-0.0472;-0.0097
0000933986;5.6120;-15.9406;1.5155;0.0468;-0.0489;-0.0144
0000933998;5.4181;-16.1010;1.4748;0.0422;-0.0465;-0.0139
0000934006;5.3486;-16.1273;1.5969;0.0432;-0.0524;-0.0201
0000934017;5.3654;-16.0340;1.5490;0.0454;-0.0488;-0.0141
0000934025;5.4420;-16.0555;1.5586;0.0457;-0.0534;-0.0159
0000934037;5.4372;-16.0244;1.5467;0.0473;-0.0517;-0.0135
0000934045;5.5976;-16.0148;1.5538;0.0553;-0.0548;-0.0208
0000934113;5.4827;-15.9909;1.6185;0.0225;-0.0556;-0.0097
0000934121;5.3534;-16.1130;1.5467;0.0224;-0.0530;-0.0088
0000934133;5.5522;-16.0507;1.5850;0.0237;-0.0508;-0.0033
0000934141;5.5689;-16.0028;1.5227;0.0302;-0.0576;-0.0051
0000934149;5.6814;-15.9502;1.5897;0.0282;-0.0489;0.0001
0000934160;5.4277;-16.2806;1.5443;0.0376;-0.0541;-0.0056
0000934168;5.5138;-16.2040;1.4868;0.0346;-0.0472;-0.0060
0000934180;5.4181;-16.0938;1.6233;0.0400;-0.0597;-0.0123
0000934188;5.3391;-16.1656;1.6640;0.0390;-0.0613;-0.0091
0000934199;5.2888;-16.1369;1.6735;0.0445;-0.0733;-0.0181
0000934207;5.3774;-16.1154;1.6759;0.0385;-0.0715;-0.0097
0000934219;5.2696;-16.1249;1.6688;0.0393;-0.0795;-0.0087
0000934227;5.4324;-16.0675;1.7310;0.0393;-0.0838;-0.0121
0000934235;5.4612;-16.0005;1.6783;0.0416;-0.0915;-0.0147
0000934246;5.5641;-16.0244;1.6568;0.0420;-0.0910;-0.0092
0000934254;5.4253;-16.1058;1.7119;0.0404;-0.0850;-0.0044
0000934266;5.4588;-16.0842;1.7238;0.0457;-0.0831;-0.0068
0000934274;5.6455;-16.1417;1.7597;0.0449;-0.0819;-0.0087
0000934285;5.5737;-16.0196;1.8124;0.0464;-0.0759;-0.0120
0000934293;5.5665;-16.0675;1.8196;0.0498;-0.0753;-0.0135
0000934305;5.5258;-15.9741;1.9201;0.0476;-0.0663;-0.0100
0000934313;5.5210;-16.0005;1.8747;0.0393;-0.0605;-0.0099
0000934381;5.6312;-16.1297;1.8172;0.0409;-0.0604;-0.0133
0000934389;5.5929;-16.0771;1.8555;0.0429;-0.0572;-0.0120
0000934397;5.4755;-16.2710;1.9082;0.0369;-0.0481;0.0025
0000934409;5.6192;-16.0220;1.8747;0.0449;-0.0448;0.0101
0000934417;5.4300;-16.2111;1.8411;0.0481;-0.0513;0.0124
0000934429;5.6264;-16.1513;1.9632;0.0492;-0.0390;0.0085
0000934437;5.7557;-15.9861;1.9321;0.0449;-0.0289;0.0209
0000934448;5.6048;-15.9693;1.9393;0.0438;-0.0221;0.0168
0000934456;5.7652;-15.8616;1.9968;0.0484;-0.0172;0.0117
0000934468;5.6958;-15.7443;1.9944;0.0461;-0.0068;0.0044
0000934476;5.5833;-15.7108;1.9489;0.0457;0.0029;-0.0037
0000934484;5.5115;-15.7467;2.0279;0.0366;0.0093;-0.0016
0000934495;5.6527;-15.6461;1.9704;0.0281;0.0128;-0.0100
0000934503;5.5905;-15.7275;1.9920;0.0185;0.0157;-0.0089
0000934515;5.6120;-15.7850;1.9609;0.0163;0.0137;-0.0105
0000934523;5.5522;-15.7706;1.9776;0.0155;0.0103;-0.0107
0000934534;5.4851;-15.8831;1.7693;0.0052;0.0077;-0.0052
0000934542;5.6671;-15.7371;1.8148;0.0117;-0.0011;0.0047
0000934554;5.6407;-15.7826;1.8124;0.0104;-0.0125;0.0205
0000934562;5.5857;-15.7251;1.6735;0.0179;-0.0258;0.0215
0000934570;5.3343;-15.9143;1.5802;0.0136;-0.0357;0.0294
0000934638;5.4779;-16.4051;1.4030;-0.1170;-0.0648;0.0838
0000934646;5.3606;-16.4482;1.2378;-0.1138;-0.0566;0.0890
0000934658;5.4899;-16.3739;1.3479;-0.1098;-0.0196;0.0999
0000934666;5.3199;-16.5415;1.4557;-0.1002;-0.0023;0.1001
0000934677;5.6288;-16.4482;1.4964;-0.0713;-0.0067;0.0838
0000934685;5.3893;-16.5128;1.5538;-0.0536;0.0003;0.0822
0000934697;5.2984;-16.1776;1.5395;-0.0296;-0.0045;0.0755
0000934705;5.2744;-15.8400;1.4246;-0.0159;-0.0187;0.0735
0000934716;5.0015;-15.5982;1.2354;-0.0334;-0.0398;0.0781
0000934724;4.9201;-15.3157;1.1540;-0.0404;-0.0683;0.0659
0000934732;4.7812;-15.2247;1.0989;-0.0655;-0.0967;0.0667
0000934744;4.7309;-15.2247;0.8547;-0.1013;-0.1430;0.0650
0000934752;4.8100;-15.2271;0.8954;-0.1142;-0.1727;0.0588
0000934763;4.7812;-15.5934;0.8068;-0.1243;-0.1935;0.0770
0000934771;4.8435;-15.8137;0.7614;-0.1227;-0.2174;0.0767
0000934783;5.1978;-16.0459;0.6800;-0.1280;-0.2451;0.0685
0000934791;5.1787;-16.1944;0.7039;-0.1211;-0.2615;0.0593
0000934802;5.2768;-16.4865;0.8332;-0.1057;-0.2854;0.0401
0000934810;5.1212;-16.6301;1.0175;-0.0925;-0.2930;0.0318
0000934822;5.2696;-16.6924;0.9840;-0.0560;-0.2964;0.0284
0000934830;5.2170;-16.8121;1.1253;-0.0344;-0.3024;0.0294
0000934838;5.2553;-16.6421;1.0439;-0.0128;-0.2956;0.0329
0000934906;5.4133;-16.0531;0.8978;0.0229;-0.1873;0.0434
0000934914;5.3079;-16.0172;0.8595;0.0400;-0.1952;0.0262
0000934926;5.2672;-16.1202;0.9720;0.0686;-0.2028;0.0225
0000934934;5.0853;-16.1992;0.9649;0.0822;-0.2044;0.0282
0000934945;4.8267;-16.3763;1.0726;0.1155;-0.2252;0.0245
0000934953;4.7788;-16.4314;1.0295;0.1295;-0.2333;0.0252
0000934965;4.6783;-16.4075;1.2210;0.1456;-0.2553;0.0226
0000934973;4.8123;-16.2614;1.1325;0.1545;-0.2693;0.0212
0000934981;5.1140;-16.0412;1.0534;0.1617;-0.2886;0.0160
0000934992;5.1068;-16.0100;0.9744;0.1593;-0.3076;0.0069
0000935000;5.1475;-15.9717;1.0032;0.1487;-0.3162;0.0123
0000935012;5.1715;-15.8329;1.0678;0.1479;-0.3371;0.0095
0000935020;5.1499;-15.7730;0.8835;0.1447;-0.3493;0.0117
0000935031;5.1691;-15.9526;0.8906;0.1524;-0.3611;0.0191
0000935039;5.0709;-16.1178;0.9409;0.1665;-0.3676;0.0273
0000935051;5.0661;-16.3811;1.1540;0.1966;-0.3712;0.0357
0000935059;5.1691;-16.3189;1.1205;0.2236;-0.3792;0.0338
0000935067;5.2816;-16.1992;1.1540;0.2368;-0.3830;0.0401
0000935078;5.2481;-16.0388;1.2570;0.2495;-0.3901;0.0366
0000935086;5.4540;-15.8161;1.3862;0.2499;-0.3797;0.0376
0000935098;5.3415;-15.7299;1.3862;0.2597;-0.3800;0.0305
0000935106;5.4755;-15.6270;1.1181;0.2470;-0.3718;0.0289
0000935174;5.1811;-16.2758;0.9673;0.2807;-0.3675;-0.0056
0000935182;5.1978;-16.2542;1.1061;0.3144;-0.3729;-0.0033
0000935194;5.3606;-16.1082;1.3312;0.3516;-0.3631;0.0019
0000935202;5.4995;-15.9190;1.3982;0.3661;-0.3592;-0.0087
0000935213;5.6671;-15.5815;1.3360;0.3708;-0.3508;-0.0203
0000935221;5.8012;-15.2726;1.1588;0.3540;-0.3361;-0.0304
0000935229;5.7868;-15.0883;1.0774;0.3316;-0.3211;-0.0501
0000935241;5.6671;-15.0595;1.0463;0.3140;-0.3100;-0.0774
0000935249;5.6336;-15.0476;1.0846;0.3024;-0.2914;-0.0849
0000935260;5.5043;-15.4258;1.1923;0.3110;-0.2735;-0.0898
0000935268;5.4588;-15.6222;1.4174;0.3337;-0.2765;-0.0978
0000935280;5.4037;-16.0076;1.7502;0.3721;-0.2637;-0.0939
0000935288;5.6144;-15.7826;1.9273;0.4009;-0.2535;-0.0869
0000935299;5.5043;-15.9119;1.9513;0.4429;-0.2474;-0.0883
0000935307;5.6383;-15.6557;1.7262;0.4549;-0.2454;-0.0967
0000935315;5.7700;-15.0069;1.6640;0.4614;-0.2497;-0.1163
0000935327;5.6527;-14.5974;1.6448;0.4538;-0.2527;-0.1478
0000935335;5.5929;-14.3772;1.6568;0.4446;-0.2505;-0.1555
0000935346;5.7557;-13.8816;1.5850;0.4342;-0.2446;-0.1803
0000935354;5.5689;-13.8744;1.6807;0.4345;-0.2413;-0.1852
0000935366;5.5138;-14.1090;1.7573;0.4477;-0.2288;-0.1976
0000935374;5.5881;-14.1809;1.9178;0.4754;-0.2272;-0.2060
0000935442;5.3415;-12.8976;0.5746;0.6775;-0.3087;-0.1836
0000935450;5.2098;-12.4618;0.3759;0.6819;-0.3216;-0.1382
0000935462;4.8387;-12.4522;0.2658;0.6863;-0.3230;-0.0425
0000935470;4.6208;-12.6510;0.6991;0.7361;-0.3351;0.0011
0000935478;4.6376;-13.0077;1.4126;0.8123;-0.3457;0.0376
0000935489;5.0877;-13.5057;1.9944;0.9886;-0.3584;0.0330
0000935497;5.3726;-13.7044;2.0039;1.1306;-0.3529;0.0273
0000935509;6.2417;-13.0987;1.7837;1.3229;-0.3416;-0.0121
0000935517;6.5721;-12.4953;1.5802;1.4145;-0.3381;-0.0634
0000935528;7.3287;-11.4395;1.2019;1.4565;-0.3174;-0.1452
0000935536;7.5776;-10.7404;0.9792;1.4234;-0.2855;-0.1929
0000935548;7.9487;-9.6750;0.4381;1.3559;-0.2110;-0.2049
0000935556;7.9487;-9.1770;0.2203;1.3322;-0.1637;-0.1998
0000935567;7.8386;-8.8753;-0.1796;1.2857;-0.0849;-0.1752
0000935575;7.5992;-8.8178;-0.4070;1.2644;-0.0265;-0.1588
0000935583;7.5537;-8.8250;-0.3208;1.2881;0.0266;-0.1672
0000935595;7.4101;-9.4643;0.2753;1.3757;0.1126;-0.1841
0000935603;7.6519;-9.9527;0.6464;1.4512;0.1664;-0.1829
0000935614;7.6710;-10.7978;1.3455;1.5727;0.2240;-0.2154
0000935622;7.7165;-11.1785;2.1476;1.6491;0.2595;-0.2694
0000935634;7.9631;-11.0971;2.6312;1.6842;0.2988;-0.3753
0000935642;7.9703;-10.7595;2.6169;1.6569;0.3395;-0.4350
0000935710;4.8674;-6.0956;0.6752;0.9685;0.2599;-0.2415
0000935718;3.9792;-8.7221;-5.0111;1.1494;0.1619;-0.2257
0000935726;3.7804;-9.1075;-5.1739;1.2674;0.0797;-0.1977
0000935738;4.1707;-4.2018;17.3460;0.8608;0.3764;-0.0883
0000935746;5.0206;-10.9176;78.4508;-1.6375;2.2898;0.5862
0000935758;-12.1075;-78.4532;26.5014;3.1232;-0.0590;1.5207
0000935766;0.4405;-64.7895;21.0714;4.3656;-1.6641;1.1864
0000935778;5.9903;-35.7167;10.5369;4.3656;-1.2963;1.0379
0000935786;6.2800;-22.2685;-3.3471;4.3656;-1.2818;0.3352
0000935798;7.1371;-16.1920;-5.8466;4.3656;-1.2047;-0.4478
0000935806;5.7509;-18.4114;-5.7700;4.3656;-0.7143;-0.4397
0000935814;5.4037;-20.9229;-0.2011;4.3656;-0.4863;-0.2939
0000935826;9.0764;-26.2237;5.8562;4.1532;-0.4293;-0.5590
0000935834;11.9159;-29.5229;7.0126;4.3656;-0.4413;-0.7903
0000935846;12.8497;-28.7879;2.2434;4.3656;0.1160;-1.0720
0000935854;12.3948;-24.5166;1.6855;4.3656;0.4563;-1.3583
0000935865;11.0397;-16.1249;4.3503;4.3656;0.7938;-1.6928
0000935873;10.9080;-9.4739;8.2791;4.3656;0.9366;-1.6433
0000935885;11.0612;-2.9137;11.5520;4.3656;1.1012;-0.8651
0000935893;10.4746;1.4174;9.4355;4.3656;1.2356;-0.2178
0000935905;10.1825;8.3390;9.5577;3.7245;1.3654;0.4612
0000935913;7.6543;11.4850;9.3996;3.3830;1.4629;0.9121
0000935921;3.6631;12.2607;9.6750;3.1131;1.1535;1.2861
0000935988;-0.2107;5.9113;-0.0120;1.6792;-2.0959;-1.2040
0000935996;1.9465;6.4069;0.1460;0.6015;-1.8050;-0.6853
0000936008;5.3870;7.1611;2.0518;-1.2436;-0.9241;0.3733
0000936016;7.3239;6.0597;2.8994;-2.3044;-0.3933;1.0465
0000936028;8.5760;4.0486;3.3327;-3.3473;0.0117;1.7555
0000936036;8.8825;2.8443;4.7309;-3.8431;0.0545;1.9048
0000936044;9.0261;1.6520;6.0693;-4.2663;0.0032;1.7684
0000936056;8.7317;-0.3136;9.3829;-4.3657;-0.1272;1.2341
0000936064;9.1291;-2.1835;12.9981;-4.3657;-0.0338;0.8001
0000936076;9.4571;-7.1946;16.7522;-3.7724;0.2984;0.2313
0000936084;8.5018;-11.4132;16.8312;-2.4042;0.3667;0.0790
0000936096;7.0988;-14.2000;12.0572;-0.7333;0.1525;0.1220
0000936104;6.6702;-13.1921;9.5265;-0.1784;0.0225;0.1382
0000936116;5.6240;-10.9918;7.3023;0.1326;-0.1059;0.0188
0000936124;5.4157;-9.9048;7.7524;0.1219;-0.1824;-0.0902
0000936132;4.8818;-8.8897;8.4180;0.0777;-0.2306;-0.1709
0000936144;5.4229;-6.8067;8.2552;0.1575;-0.2859;-0.2506
0000936152;5.6934;-5.9496;8.2049;0.2312;-0.2986;-0.2601
0000936164;6.3758;-4.3886;8.4755;0.2813;-0.2569;-0.2380
0000936172;6.5386;-3.6152;8.7197;0.2458;-0.2121;-0.2435
0000936184;6.7038;-2.3343;9.1698;0.0958;-0.1414;-0.2598
0000936192;6.7995;-1.7861;9.1411;0.0019;-0.1043;-0.2754
0000936260;6.4787;-5.1858;9.4954;-0.6499;-0.0514;0.1459
0000936268;6.8354;-5.8299;9.5744;-0.5970;-0.0514;0.1741
0000936276;6.7349;-6.6295;9.8258;-0.5384;-0.0622;0.1765
0000936288;6.8378;-7.5058;9.7827;-0.4499;-0.0516;0.1557
0000936296;7.0725;-7.6375;9.8330;-0.3789;-0.0438;0.1119
0000936308;7.2951;-7.7213;10.0485;-0.2393;-0.0185;0.0301
0000936316;7.2137;-7.3310;9.9719;-0.1360;-0.0005;-0.0084
0000936328;7.1635;-6.7828;9.9695;-0.0065;0.0234;-0.0394
0000936336;7.1970;-6.1579;9.8090;0.0368;0.0520;-0.0334
0000936348;6.8977;-5.3726;9.4499;0.0308;0.0813;-0.0107
0000936356;6.6152;-5.0757;9.1267;-0.0037;0.1058;0.0159
0000936364;6.4260;-4.7573;8.8921;-0.0652;0.1240;0.0394
0000936376;6.1268;-4.6471;8.4515;-0.1603;0.1147;0.0675
0000936384;5.9400;-4.7046;8.3917;-0.2269;0.1005;0.0644
0000936396;5.7221;-4.8961;8.6167;-0.3339;0.0733;0.0628
0000936404;5.6575;-5.3032;8.7939;-0.3990;0.0561;0.0662
0000936416;5.9927;-6.0190;9.2177;-0.4438;0.0172;0.0694
0000936424;6.3351;-6.3303;9.3733;-0.4414;0.0016;0.0759
0000936436;6.4859;-7.1012;9.7061;-0.3922;-0.0040;0.0902
0000936444;6.8498;-7.4460;9.8258;-0.3453;-0.0007;0.0947
0000936452;7.1036;-7.5824;9.8450;-0.2722;-0.0112;0.0958
0000936464;7.1443;-7.8602;10.0269;-0.1503;-0.0211;0.0767
0000936472;7.3933;-7.6351;9.7612;-0.0628;-0.0187;0.0606
0000936540;6.1411;-5.7604;9.4044;-0.1235;0.0101;-0.0338
0000936548;6.0932;-5.9328;9.4834;-0.1611;-0.0068;-0.0290
0000936560;5.9855;-6.5027;9.6534;-0.1973;-0.0433;-0.0300
0000936568;6.1531;-6.7109;9.7300;-0.1989;-0.0628;-0.0192
0000936580;6.6080;-6.9863;9.9623;-0.1845;-0.0777;-0.0061
0000936588;6.5745;-7.2568;9.7779;-0.1560;-0.0721;0.0125
0000936596;6.9743;-7.2089;9.6199;-0.1298;-0.0655;0.0152
0000936608;7.1084;-7.1108;9.5170;-0.0925;-0.0462;0.0073
0000936616;7.1539;-6.8546;9.5337;-0.0757;-0.0433;-0.0139
0000936628;6.9528;-6.7636;9.6199;-0.0593;-0.0466;-0.0498
0000936636;6.8953;-6.6415;9.5816;-0.0580;-0.0417;-0.0669
0000936648;6.5912;-6.7564;9.6893;-0.0564;-0.0353;-0.0797
0000936656;6.6990;-6.7086;9.6151;-0.0489;-0.0325;-0.0807
0000936668;6.9073;-6.7349;9.5960;-0.0449;-0.0017;-0.0634
0000936676;6.8905;-6.8450;9.5385;-0.0466;0.0149;-0.0488
0000936688;6.9528;-6.7397;9.6055;-0.0486;0.0346;-0.0393
0000936696;7.1275;-6.5912;9.6175;-0.0485;0.0377;-0.0404
0000936704;6.6726;-6.7421;9.5936;-0.0530;0.0252;-0.0553
0000936717;6.3375;-6.7445;9.6822;-0.0646;0.0087;-0.0685
0000936726;6.0837;-6.7564;9.6606;-0.0697;-0.0057;-0.0851
0000936739;6.2249;-6.8354;9.5577;-0.0817;-0.0213;-0.0762
0000936748;6.2513;-6.8307;9.6486;-0.0825;-0.0456;-0.0683
0000936817;6.5841;-7.0629;9.6271;-0.0835;-0.0534;-0.0356
0000936826;6.6080;-7.0749;9.7229;-0.0741;-0.0577;-0.0480
0000936839;6.6822;-7.0844;9.6941;-0.0703;-0.0518;-0.0629
0000936848;6.6152;-7.0916;9.6367;-0.0746;-0.0442;-0.0667
0000936861;6.6032;-7.0246;9.5289;-0.0750;-0.0305;-0.0721
0000936870;6.7157;-6.9552;9.5026;-0.0833;-0.0236;-0.0659
0000936879;6.7229;-6.8450;9.5720;-0.0793;-0.0065;-0.0606
0000936892;6.6487;-6.9288;9.5936;-0.0743;-0.0019;-0.0652
0000936901;6.4979;-6.8833;9.5672;-0.0729;0.0077;-0.0649
0000936914;6.5146;-6.8833;9.5337;-0.0681;0.0195;-0.0570
0000936923;6.3614;-6.9576;9.6271;-0.0771;0.0296;-0.0570
0000936936;6.5960;-6.9264;9.6343;-0.0897;0.0256;-0.0612
0000936945;6.1746;-7.0988;9.6199;-0.0879;0.0105;-0.0661
0000936958;6.1770;-7.1443;9.6702;-0.0946;-0.0175;-0.0679
0000936967;6.0190;-7.1778;9.5936;-0.0970;-0.0385;-0.0634
0000936976;6.0166;-7.1228;9.5193;-0.0982;-0.0592;-0.0593
0000936989;6.2106;-7.0773;9.5672;-0.0961;-0.0640;-0.0397
0000936998;6.3231;-7.0390;9.6414;-0.1002;-0.0524;-0.0161
0000937011;6.5362;-6.9623;9.6055;-0.1005;-0.0366;0.0061
0000937020;6.6894;-7.0916;9.4691;-0.1037;-0.0309;0.0079
0000937033;6.7205;-6.9049;9.5864;-0.1100;-0.0217;0.0027
0000937042;6.5721;-6.9959;9.5361;-0.1111;-0.0192;-0.0067
0000937111;6.2800;-7.3095;9.4858;-0.0845;-0.0428;0.0035
0000937120;6.5242;-7.2401;9.5385;-0.0831;-0.0360;-0.0085
0000937129;6.5146;-7.1323;9.6127;-0.0891;-0.0321;-0.0133
0000937142;6.3039;-7.2927;9.6678;-0.0906;-0.0245;-0.0261
0000937151;6.4596;-7.1635;9.7205;-0.0957;-0.0230;-0.0278
0000937164;6.1052;-7.2353;9.7588;-0.0958;-0.0312;-0.0348
0000937173;6.4620;-7.1419;9.5433;-0.0970;-0.0266;-0.0316
0000937189;6.4548;-7.2449;9.4547;-0.1018;-0.0195;-0.0376
0000937198;6.7708;-7.0413;9.4858;-0.1136;-0.0123;-0.0349
0000937211;6.2321;-7.4412;9.5313;-0.1166;-0.0149;-0.0437
0000937220;6.5027;-7.3670;9.5146;-0.1142;-0.0029;-0.0325
0000937232;6.5457;-7.2592;9.6055;-0.1051;-0.0048;-0.0300
0000937241;6.2776;-7.3694;9.5720;-0.0986;-0.0067;-0.0312
0000937250;6.3279;-7.5226;9.6319;-0.0959;-0.0085;-0.0205
0000937263;6.3351;-7.3406;9.5337;-0.0994;-0.0232;-0.0258
0000937272;6.4093;-7.2257;9.5553;-0.0995;-0.0357;-0.0292
0000937284;6.2513;-7.3478;9.5002;-0.1011;-0.0416;-0.0320
0000937293;6.2728;-7.3574;9.5122;-0.1087;-0.0297;-0.0244
0000937362;6.2417;-7.5034;9.6343;-0.0973;-0.0221;-0.0428
0000937371;6.3111;-7.5178;9.5768;-0.0853;-0.0238;-0.0492
0000937383;6.4452;-7.4795;9.5577;-0.0803;-0.0151;-0.0488
0000937392;6.5697;-7.2568;9.5457;-0.0810;-0.0076;-0.0438
0000937405;6.4596;-7.4555;9.5409;-0.0882;-0.0047;-0.0448
0000937414;6.3949;-7.3861;9.5313;-0.0862;-0.0053;-0.0440
0000937423;6.2321;-7.3622;9.4834;-0.0971;0.0001;-0.0452
0000937435;6.1794;-7.5082;9.4858;-0.1078;-0.0071;-0.0416
0000937444;6.2896;-7.4723;9.5193;-0.1226;-0.0033;-0.0234
0000937457;6.3303;-7.3981;9.6055;-0.1260;-0.0116;-0.0048
0000937466;6.3135;-7.5872;9.7109;-0.1178;-0.0286;0.0135
0000937478;6.3973;-7.5178;9.6726;-0.1180;-0.0513;0.0258
0000937487;6.3422;-7.6614;9.6391;-0.1232;-0.0534;0.0428
0000937500;6.3087;-7.6303;9.7252;-0.1312;-0.0717;0.0428
0000937509;6.4452;-7.3933;9.5960;-0.1438;-0.0790;0.0442
0000937518;6.4332;-7.2903;9.6486;-0.1597;-0.0785;0.0468
0000937530;6.3087;-7.4292;9.6175;-0.1824;-0.0819;0.0457
0000937539;6.5817;-7.3287;9.5050;-0.1976;-0.0777;0.0498
0000937552;6.3734;-7.5034;9.4427;-0.2288;-0.0669;0.0593
0000937561;6.5362;-7.4819;9.5265;-0.2526;-0.0517;0.0617
0000937573;6.5218;-7.7285;9.4595;-0.2607;-0.0390;0.0626
0000937582;6.4739;-7.7452;9.3925;-0.2659;-0.0270;0.0644
0000937651;6.4524;-8.1163;9.4475;-0.1753;-0.0123;0.0131
0000937660;6.4500;-8.2600;9.2680;-0.1507;-0.0187;-0.0003
0000937672;6.4835;-8.0996;9.3230;-0.1368;-0.0173;-0.0037
0000937681;6.5386;-7.9679;9.2871;-0.1246;-0.0132;-0.0012
0000937690;6.3494;-8.0852;9.2368;-0.1127;-0.0125;-0.0031
0000937703;6.5434;-8.0158;9.2799;-0.0927;-0.0111;-0.0064
0000937712;6.3949;-8.1068;9.2943;-0.0815;-0.0148;-0.0091
0000937724;6.4021;-8.1954;9.3757;-0.0721;-0.0242;-0.0168
0000937733;6.2082;-8.2001;9.3589;-0.0618;-0.0180;-0.0132
0000937746;6.3494;-8.2744;9.4092;-0.0408;-0.0217;-0.0083
0000937755;6.3494;-8.1786;9.3134;-0.0189;-0.0212;-0.0025
0000937767;6.3686;-8.2049;9.3948;-0.0009;-0.0217;0.0065
0000937776;6.3734;-8.1475;9.3972;0.0041;-0.0184;0.0081
0000937785;6.4069;-8.1594;9.4786;0.0075;-0.0217;0.0045
0000937798;6.2058;-8.0541;9.4547;-0.0003;-0.0234;-0.0009
0000937807;6.1723;-8.0373;9.5026;-0.0009;-0.0356;-0.0143
0000937819;6.2153;-7.9727;9.6079;-0.0147;-0.0300;-0.0205
0000937828;6.2465;-8.0876;9.4954;-0.0209;-0.0191;-0.0212
0000937841;6.4189;-7.9631;9.4906;-0.0273;-0.0056;-0.0189
0000937850;6.5769;-7.8650;9.4164;-0.0398;-0.0016;-0.0172
0000937862;6.4835;-7.9392;9.4547;-0.0528;0.0089;-0.0250
0000937871;6.4811;-7.9751;9.3446;-0.0606;0.0119;-0.0293
0000937940;6.1339;-8.1954;9.5433;-0.0136;-0.0248;0.0049
0000937949;6.2848;-8.0709;9.5984;-0.0064;-0.0300;0.0035
0000937958;6.2560;-8.1283;9.4930;-0.0149;-0.0260;0.0056
0000937970;6.2441;-8.0254;9.4571;-0.0249;-0.0285;0.0028
0000937979;6.3255;-7.9128;9.4882;-0.0316;-0.0191;-0.0013
0000937992;6.3351;-7.8793;9.5505;-0.0488;-0.0205;0.0056
0000938001;6.4212;-7.8147;9.6079;-0.0608;-0.0192;0.0045
0000938013;6.3303;-7.8554;9.4858;-0.0638;-0.0297;0.0008
0000938022;6.3255;-8.0062;9.5912;-0.0721;-0.0324;0.0064
0000938035;6.2082;-8.1092;9.4260;-0.0608;-0.0417;-0.0024
0000938044;6.4260;-8.0661;9.4044;-0.0658;-0.0372;0.0075
0000938053;6.3327;-8.1762;9.3637;-0.0553;-0.0413;0.0105
0000938065;6.3255;-8.1044;9.4236;-0.0449;-0.0360;0.0236
0000938074;6.4596;-8.0349;9.5002;-0.0437;-0.0381;0.0215
0000938087;6.4284;-8.0732;9.4954;-0.0476;-0.0309;0.0226
0000938096;6.4787;-7.7237;9.5505;-0.0521;-0.0425;0.0095
0000938108;6.1411;-7.9823;9.5170;-0.0671;-0.0554;0.0011
0000938117;6.1746;-7.9080;9.5672;-0.0695;-0.0594;0.0031
0000938130;5.9759;-7.9224;9.6295;-0.0625;-0.0706;0.0019
0000938139;5.9951;-8.0804;9.6438;-0.0569;-0.0682;0.0084
0000938148;6.4284;-7.8602;9.5888;-0.0464;-0.0689;0.0079
0000938160;6.3805;-7.8697;9.4236;-0.0330;-0.0636;0.0148
0000938169;6.4189;-7.7883;9.3948;-0.0262;-0.0592;0.0096
0000938238;6.3686;-8.0182;9.3805;0.0072;-0.0274;-0.0105
0000938247;6.5386;-7.9535;9.4355;-0.0004;-0.0051;0.0037
0000938259;6.5098;-8.1235;9.4882;0.0072;0.0044;-0.0084
0000938268;6.5577;-8.0685;9.5122;0.0169;0.0111;-0.0117
0000938281;6.3925;-8.0445;9.4954;0.0302;0.0232;-0.0201
0000938290;6.2369;-8.0469;9.5960;0.0374;0.0131;-0.0296
0000938299;6.2608;-7.9751;9.6941;0.0354;0.0097;-0.0241
0000938311;5.9831;-8.0302;9.5505;0.0361;-0.0025;-0.0298
0000938320;6.0142;-8.0134;9.6127;0.0301;-0.0080;-0.0236
0000938333;6.1124;-8.0565;9.4667;0.0177;-0.0209;-0.0151
0000938342;6.1794;-7.9918;9.4595;0.0175;-0.0265;-0.0117
0000938354;6.3949;-7.8650;9.4499;0.0149;-0.0338;-0.0011
0000938363;6.2896;-8.0182;9.3541;0.0033;-0.0253;0.0137
0000938376;6.5170;-7.9823;9.2991;0.0060;-0.0266;0.0151
0000938385;6.4715;-8.1379;9.3805;0.0007;-0.0100;0.0153
0000938394;6.3638;-8.1547;9.3470;0.0052;-0.0139;0.0064
0000938406;6.2776;-8.0541;9.4810;0.0087;0.0053;0.0132
0000938415;6.3039;-8.1594;9.4499;0.0144;0.0103;0.0165
0000938428;6.3470;-7.9679;9.5768;0.0284;0.0143;0.0145
0000938437;6.2369;-8.0517;9.5170;0.0378;0.0164;0.0151
0000938449;6.2058;-7.9248;9.4116;0.0465;0.0060;0.0139
0000938458;5.9376;-7.9440;9.4715;0.0393;0.0051;0.0173
0000938467;6.1962;-7.6710;9.4619;0.0296;0.0003;0.0209
0000938536;6.3446;-8.0541;9.4834;-0.0200;-0.0345;0.0265
0000938545;6.2680;-8.0278;9.5337;-0.0197;-0.0300;0.0225
0000938557;6.3686;-8.1523;9.5002;-0.0177;-0.0252;0.0151
0000938566;6.4787;-7.9583;9.4547;-0.0197;-0.0181;0.0136
0000938579;6.5003;-7.8219;9.3972;-0.0195;-0.0143;0.0071
0000938588;6.3159;-7.8985;9.4499;-0.0149;-0.0225;-0.0021
0000938600;6.3494;-7.8482;9.4667;-0.0188;-0.0165;-0.0007
0000938609;6.2632;-7.8985;9.4427;-0.0213;-0.0168;-0.0027
0000938618;6.3925;-7.8673;9.3494;-0.0292;-0.0069;0.0091
0000938631;6.3542;-8.0397;9.4092;-0.0213;-0.0048;0.0063
0000938640;6.2489;-8.1139;9.4260;-0.0127;-0.0181;-0.0087
0000938651;6.2824;-8.1331;9.4164;-0.0115;-0.0193;-0.0080
0000938660;6.3901;-8.0996;9.4212;0.0013;-0.0293;-0.0181
0000938674;6.2848;-8.1570;9.4427;0.0061;-0.0207;-0.0115
0000938683;6.2944;-8.0373;9.4667;0.0157;-0.0284;-0.0225
0000938696;6.3351;-8.0278;9.5122;0.0105;-0.0274;-0.0197
0000938705;6.4260;-7.9847;9.5696;0.0039;-0.0211;-0.0234
0000938714;6.4236;-7.9224;9.4619;0.0021;-0.0216;-0.0207
0000938726;6.1938;-8.0373;9.5122;-0.0039;-0.0234;-0.0248
0000938735;6.2560;-8.0637;9.4954;-0.0156;-0.0236;-0.0272
0000938748;6.2225;-8.0637;9.4140;-0.0218;-0.0261;-0.0237
0000938757;6.1459;-7.9224;9.5361;-0.0161;-0.0348;-0.0276
0000938826;6.2800;-8.0996;9.4667;-0.0121;-0.0430;-0.0248
0000938835;6.2369;-7.9775;9.5050;-0.0129;-0.0342;-0.0133
0000938848;6.0980;-8.1834;9.4763;-0.0072;-0.0301;-0.0095
0000938857;6.2465;-8.0038;9.3781;0.0025;-0.0348;-0.0156
0000938869;6.2632;-7.9559;9.5457;0.0011;-0.0352;-0.0135
0000938878;6.1579;-7.9583;9.5217;0.0031;-0.0337;-0.0175
0000938887;6.0741;-8.0780;9.3661;0.0005;-0.0320;-0.0105
0000938900;5.9664;-7.9368;9.4619;-0.0020;-0.0352;-0.0152
0000938909;6.1316;-7.8434;9.4715;-0.0016;-0.0409;-0.0196
0000938921;6.0741;-7.9918;9.5074;0.0007;-0.0410;-0.0129
0000938930;6.2225;-7.9511;9.4308;-0.0064;-0.0396;-0.0024
0000938943;6.2177;-7.8889;9.5337;-0.0224;-0.0304;0.0009
0000938952;6.2920;-7.8626;9.4116;-0.0250;-0.0345;-0.0112
0000938964;6.3877;-7.8697;9.4954;-0.0306;-0.0276;-0.0137
0000938973;6.0885;-8.0397;9.5912;-0.0282;-0.0306;-0.0151
0000938982;6.1124;-8.0086;9.4164;-0.0262;-0.0317;-0.0211
0000938995;6.1890;-7.9057;9.4332;-0.0211;-0.0300;-0.0136
0000939004;6.1148;-7.9511;9.4020;-0.0187;-0.0292;-0.0015
0000939016;6.2991;-7.8817;9.4116;-0.0169;-0.0300;0.0048
0000939025;6.1531;-7.9655;9.5074;-0.0112;-0.0353;0.0015
0000939038;6.3734;-7.9847;9.5122;-0.0104;-0.0333;-0.0011
0000939047;6.0956;-8.0469;9.4284;-0.0056;-0.0381;-0.0075
0000939117;6.0238;-8.0661;9.5193;-0.0288;-0.0454;-0.0197
0000939126;6.1914;-7.9152;9.5409;-0.0156;-0.0569;-0.0205
0000939139;6.3039;-7.9535;9.5577;-0.0031;-0.0502;-0.0117
0000939148;6.2632;-8.0110;9.5170;0.0096;-0.0488;-0.0001
0000939157;6.4236;-7.9583;9.5960;0.0132;-0.0469;-0.0028
0000939169;6.2991;-7.9559;9.4020;0.0109;-0.0460;-0.0092
0000939178;6.3231;-7.9272;9.5624;0.0061;-0.0432;-0.0104
0000939191;6.1268;-7.9655;9.4595;-0.0095;-0.0324;-0.0207
0000939200;6.2513;-7.6974;9.5026;-0.0128;-0.0305;-0.0199
0000939212;6.1986;-7.9607;9.4930;-0.0212;-0.0215;-0.0133
0000939221;6.2130;-7.8434;9.5792;-0.0151;-0.0234;-0.0081
0000939234;6.0789;-8.0565;9.4667;-0.0143;-0.0181;-0.0047
0000939243;6.1986;-7.9799;9.4882;-0.0183;-0.0253;-0.0081
0000939252;6.2393;-7.9440;9.5002;-0.0091;-0.0317;-0.0155
0000939264;6.0238;-8.0086;9.6247;-0.0069;-0.0356;-0.0181
0000939273;6.1435;-7.9296;9.5289;-0.0107;-0.0437;-0.0221
0000939286;6.2632;-7.8602;9.5122;-0.0143;-0.0460;-0.0147
0000939295;6.3015;-7.8937;9.4715;-0.0159;-0.0510;-0.0144
0000939307;6.4284;-7.7716;9.5074;-0.0157;-0.0421;-0.0111
0000939316;6.4380;-7.8697;9.3948;-0.0196;-0.0410;-0.0176
0000939329;6.5003;-7.7548;9.4260;-0.0240;-0.0326;-0.0160
0000939338;6.1579;-7.9871;9.4858;-0.0230;-0.0290;-0.0188
0000939408;6.1627;-8.0062;9.5481;-0.0015;-0.0437;-0.0338
0000939415;6.3231;-7.8841;9.5744;-0.0080;-0.0369;-0.0264
0000939423;6.1292;-8.0278;9.6007;-0.0055;-0.0432;-0.0289
0000939435;6.2920;-8.0134;9.4882;0.0013;-0.0398;-0.0288
0000939443;6.1268;-7.9607;9.4212;0.0037;-0.0294;-0.0205
0000939454;6.2968;-7.9464;9.4355;0.0095;-0.0406;-0.0252
0000939462;6.2968;-7.8745;9.5170;0.0041;-0.0409;-0.0300
0000939474;6.1531;-7.8985;9.5098;0.0040;-0.0425;-0.0288
0000939482;6.1555;-7.9176;9.5002;0.0013;-0.0441;-0.0342
0000939493;6.0861;-7.9440;9.5361;-0.0028;-0.0408;-0.0313
0000939501;6.1076;-7.9176;9.5193;-0.0033;-0.0468;-0.0381
0000939509;6.0430;-8.0756;9.5026;0.0059;-0.0517;-0.0420
