time;acc_x;acc_y;acc_z;gyro_x;gyro_y;gyro_z
0000122555;5.8299;-15.9765;-0.2346;-0.0982;-0.3380;-0.0203
0000122563;5.8802;-16.0986;-0.2777;-0.1087;-0.3385;-0.0230
0000122570;5.8873;-16.2806;-0.2107;-0.1176;-0.3444;-0.0234
0000122578;5.6240;-16.5056;-0.2753;-0.1049;-0.3476;-0.0205
0000122586;5.6695;-16.5942;-0.3160;-0.0877;-0.3456;-0.0152
0000122594;5.3463;-16.8791;-0.2490;-0.0481;-0.3540;-0.0234
0000122602;5.4324;-16.7187;-0.1700;-0.0055;-0.3431;-0.0213
0000122610;5.2241;-16.7762;-0.1556;0.0324;-0.3401;-0.0129
0000122618;5.6192;-16.5368;0.0048;0.0594;-0.3512;-0.0266
0000122626;5.5785;-16.4266;0.0359;0.0846;-0.3515;-0.0317
0000122634;5.5234;-16.2064;-0.1484;0.0977;-0.3483;-0.0392
0000122642;5.5761;-16.0699;-0.1652;0.1111;-0.3493;-0.0392
0000122650;5.6551;-15.9406;-0.2873;0.1095;-0.3441;-0.0452
0000122658;5.6048;-15.8927;-0.3041;0.0881;-0.3312;-0.0458
0000122666;5.9424;-15.5671;-0.3208;0.0642;-0.3289;-0.0582
0000122674;5.7389;-15.6772;-0.2610;0.0222;-0.3147;-0.0533
0000122682;5.6312;-15.7395;-0.1915;-0.0033;-0.3131;-0.0480
0000122690;5.6743;-15.7898;-0.1820;-0.0292;-0.2996;-0.0390
0000122698;5.7341;-15.8760;-0.0982;-0.0578;-0.2900;-0.0374
0000122706;5.6982;-16.0292;-0.1269;-0.0632;-0.2832;-0.0434
0000122714;5.5282;-16.1896;-0.0742;-0.0490;-0.2805;-0.0482
0000122722;5.5043;-16.2423;-0.0982;-0.0191;-0.2634;-0.0297
0000122730;5.7102;-16.2949;-0.2131;0.0017;-0.2483;-0.0161
0000122738;5.6551;-16.3883;-0.3160;0.0171;-0.2345;-0.0141
0000122746;5.4947;-16.3787;-0.2777;0.0244;-0.2225;-0.0143
0000122754;5.7365;-16.2351;-0.2227;0.0329;-0.2157;-0.0284
0000122762;5.8035;-16.2016;-0.2298;0.0302;-0.2025;-0.0229
0000122770;5.8849;-16.1130;-0.1987;0.0246;-0.1916;-0.0269
0000122778;6.0190;-15.9382;-0.1724;0.0213;-0.1801;-0.0284
0000122786;5.8012;-16.0842;-0.1604;0.0160;-0.1625;-0.0242
0000122794;5.8897;-16.0148;-0.2227;0.0160;-0.1464;-0.0147
0000122802;5.7964;-16.1680;-0.2873;0.0175;-0.1419;-0.0163
0000122810;5.6455;-16.1154;-0.4118;0.0215;-0.1418;-0.0196
0000122818;5.7557;-16.1393;-0.3304;0.0208;-0.1348;-0.0195
0000122826;5.7748;-15.9454;-0.3472;0.0229;-0.1351;-0.0316
0000122834;5.7676;-15.9669;-0.3926;0.0172;-0.1170;-0.0301
0000122842;5.7964;-15.8975;-0.3400;0.0100;-0.1054;-0.0350
0000122850;5.8083;-15.9909;-0.3591;0.0119;-0.0935;-0.0280
0000122858;5.9448;-16.0986;-0.2610;-0.0023;-0.0624;-0.0192
0000122866;5.7940;-16.2399;-0.2777;0.0017;-0.0497;-0.0183
0000122874;5.8227;-16.4290;-0.1532;-0.0019;-0.0229;-0.0103
0000122882;5.8849;-16.5607;-0.0958;0.0169;-0.0071;-0.0189
0000122890;6.1004;-16.2949;-0.1365;0.0310;0.0161;-0.0172
0000122898;6.0789;-16.3380;-0.0599;0.0598;0.0361;-0.0241
0000122906;6.0980;-16.2854;0.0096;0.0650;0.0731;-0.0120
0000122914;6.0837;-16.2471;-0.0575;0.0810;0.1055;-0.0101
0000122922;5.8610;-16.3500;-0.0814;0.0919;0.1284;-0.0053
0000122930;6.0334;-16.4218;-0.1724;0.0886;0.1510;-0.0032
0000122938;6.0956;-16.2806;-0.2538;0.1002;0.1581;-0.0128
0000122946;6.0142;-16.2566;-0.2945;0.1019;0.1689;-0.0140
0000122954;6.0071;-16.2590;-0.2969;0.1005;0.1808;-0.0155
0000122962;6.0765;-15.9645;-0.2825;0.1087;0.1873;-0.0314
0000122970;5.6288;-15.8233;-0.2921;0.1126;0.1955;-0.0217
0000122978;5.7557;-15.9574;-0.2394;0.0838;0.2024;-0.0222
0000122986;5.7988;-15.8855;-0.2682;0.0614;0.2022;-0.0249
0000122994;5.6455;-15.9574;-0.2705;0.0532;0.1944;-0.0381
0000123002;5.4995;-15.7682;-0.2562;0.0441;0.2042;-0.0282
0000123010;5.5138;-15.9837;-0.2538;0.0377;0.2069;-0.0238
0000123018;5.4277;-16.0890;-0.2562;0.0318;0.2034;-0.0217
0000123026;5.3534;-16.1680;-0.1963;0.0241;0.1964;-0.0119
0000123034;5.6312;-16.0914;-0.2322;0.0234;0.1909;-0.0093
0000123042;5.4588;-16.3213;-0.0742;0.0268;0.1796;-0.0081
0000123050;5.5641;-16.2494;-0.1604;0.0305;0.1809;-0.0052
0000123058;5.5474;-16.3524;-0.1197;0.0482;0.1741;-0.0111
0000123066;5.4731;-16.3979;-0.1149;0.0580;0.1784;-0.0052
0000123074;5.3941;-16.3835;-0.0958;0.0594;0.1720;-0.0016
0000123082;5.3463;-16.3476;-0.1604;0.0681;0.1561;0.0028
0000123090;5.4109;-16.3404;-0.2083;0.0769;0.1523;0.0069
0000123098;5.3846;-16.3692;-0.1963;0.0918;0.1386;-0.0023
0000123125;5.5067;-16.1920;-0.0575;0.1078;0.1094;-0.0203
0000123133;5.4372;-16.2111;-0.0311;0.1029;0.0961;-0.0301
0000123141;5.3103;-16.2758;-0.1484;0.0978;0.0963;-0.0258
0000123149;5.3582;-16.2016;-0.0790;0.1014;0.0865;-0.0305
0000123157;5.4947;-16.1513;-0.2131;0.1049;0.0895;-0.0179
0000123165;5.3558;-16.2734;-0.2682;0.1132;0.0899;-0.0165
0000123173;5.4348;-16.0723;-0.3376;0.1250;0.0786;-0.0164
0000123181;5.5426;-16.2327;-0.2227;0.1182;0.0779;-0.0101
0000123189;5.4755;-16.1752;-0.2298;0.1099;0.0747;-0.0108
0000123197;5.5785;-15.9933;-0.2897;0.0978;0.0721;-0.0065
0000123205;5.6240;-16.0483;-0.1221;0.0889;0.0661;-0.0069
0000123213;5.7676;-15.9286;-0.2059;0.0811;0.0628;-0.0011
0000123221;5.5306;-16.0842;-0.1413;0.0781;0.0597;-0.0081
0000123229;5.6000;-16.0340;-0.0790;0.0718;0.0502;-0.0033
0000123237;5.5881;-16.1202;-0.0838;0.0713;0.0505;-0.0009
0000123245;5.4013;-15.9981;-0.0168;0.0677;0.0425;-0.0023
0000123253;5.4420;-16.1585;-0.0407;0.0661;0.0386;0.0005
0000123261;5.5761;-16.1441;-0.0622;0.0646;0.0342;-0.0023
0000123269;5.5282;-16.1178;-0.0838;0.0625;0.0241;-0.0076
0000123277;5.4899;-16.2207;0.0024;0.0654;0.0195;-0.0049
0000123285;5.4133;-16.2423;-0.0215;0.0584;0.0156;-0.0011
0000123293;5.5306;-16.2518;0.0072;0.0641;0.0035;-0.0064
0000123301;5.6623;-16.1441;0.0287;0.0654;-0.0007;0.0020
0000123309;5.6527;-16.1920;-0.1197;0.0679;-0.0057;-0.0029
0000123317;5.4827;-16.2949;-0.0934;0.0849;-0.0160;-0.0056
0000123325;5.5186;-16.2518;-0.0646;0.0881;-0.0246;-0.0009
0000123333;5.5426;-16.2135;-0.0407;0.0891;-0.0262;-0.0065
0000123341;5.6336;-16.0555;-0.0311;0.0882;-0.0430;-0.0195
0000123349;5.6312;-15.8831;-0.0622;0.0782;-0.0449;-0.0196
0000123357;5.5186;-15.9214;-0.0407;0.0573;-0.0544;-0.0168
0000123365;5.5043;-16.0268;-0.1891;0.0394;-0.0702;-0.0167
0000123373;5.5354;-16.0699;-0.1939;0.0246;-0.0738;-0.0115
0000123381;5.5976;-15.9669;-0.0934;0.0232;-0.0862;-0.0156
0000123389;5.5378;-16.2016;-0.0886;0.0234;-0.0967;-0.0097
0000123397;5.4660;-16.2111;-0.0742;0.0277;-0.0919;-0.0048
0000123405;5.6838;-16.1154;-0.0072;0.0329;-0.1073;-0.0095
0000123413;5.6216;-15.9502;-0.0096;0.0258;-0.1088;-0.0068
0000123421;5.6767;-15.9741;0.0287;0.0264;-0.1171;-0.0152
0000123429;5.6958;-15.8855;-0.0814;0.0169;-0.1128;-0.0081
0000123437;5.6288;-15.9047;-0.0335;0.0072;-0.1171;-0.0113
0000123445;5.6264;-15.8640;0.0168;-0.0100;-0.1096;-0.0027
0000123453;5.6814;-15.9310;-0.1173;-0.0248;-0.1100;-0.0041
0000123461;5.8873;-15.8712;-0.0048;-0.0309;-0.1087;-0.0053
0000123469;5.7389;-16.0124;-0.0958;-0.0409;-0.1114;-0.0099
0000123477;5.6455;-16.0076;-0.0287;-0.0508;-0.1106;-0.0161
0000123485;5.8155;-16.0675;0.0335;-0.0545;-0.1079;-0.0101
0000123493;5.6455;-16.1776;0.1125;-0.0537;-0.1106;-0.0055
0000123501;5.6790;-16.2494;0.0599;-0.0413;-0.1136;-0.0155
0000123509;5.6120;-16.2471;0.0575;-0.0358;-0.1188;-0.0147
0000123517;5.6695;-16.2231;-0.0551;-0.0238;-0.1227;-0.0157
0000123525;5.6216;-16.2207;-0.0263;-0.0145;-0.1306;-0.0254
0000123533;5.6192;-16.0148;-0.0215;-0.0057;-0.1326;-0.0253
0000123541;5.5378;-16.0675;-0.0934;-0.0151;-0.1371;-0.0233
0000123549;5.5545;-15.9214;-0.0790;-0.0208;-0.1410;-0.0179
0000123557;5.5043;-16.0531;0.0096;-0.0334;-0.1390;-0.0184
0000123565;5.7652;-16.0052;0.0144;-0.0409;-0.1391;-0.0096
0000123573;5.6240;-16.0388;0.0766;-0.0569;-0.1391;-0.0101
0000123581;5.7102;-16.1776;-0.0048;-0.0494;-0.1400;-0.0041
0000123589;5.8203;-16.2423;0.0096;-0.0412;-0.1328;0.0008
0000123597;5.8203;-16.3692;0.0072;-0.0171;-0.1432;-0.0089
0000123605;5.6503;-16.3763;0.0958;-0.0067;-0.1366;-0.0101
0000123613;5.6336;-16.3356;0.0168;0.0127;-0.1402;-0.0177
0000123621;5.7293;-16.2662;0.1341;0.0156;-0.1354;-0.0153
0000123629;5.5498;-16.0388;0.0551;0.0143;-0.1355;-0.0145
0000123637;5.8371;-15.9454;0.1197;0.0089;-0.1463;-0.0237
0000123645;5.5354;-15.9645;0.0096;0.0029;-0.1446;-0.0207
0000123653;5.7054;-15.7275;-0.0694;-0.0089;-0.1474;-0.0233
0000123661;5.6000;-15.8352;-0.0694;-0.0221;-0.1419;-0.0204
0000123669;5.6790;-16.0220;-0.0383;-0.0388;-0.1400;-0.0246
0000123677;5.6360;-15.9789;0.0144;-0.0413;-0.1456;-0.0276
0000123764;5.7676;-16.1154;0.1341;-0.0297;-0.0935;-0.0365
0000123771;5.7389;-16.0579;0.0814;-0.0321;-0.0897;-0.0326
0000123779;5.8035;-16.1465;0.0982;-0.0376;-0.0738;-0.0286
0000123787;5.9256;-16.0866;0.0982;-0.0413;-0.0665;-0.0337
0000123795;5.8347;-16.0507;0.0718;-0.0422;-0.0613;-0.0361
0000123803;5.8059;-16.1393;0.0215;-0.0493;-0.0482;-0.0245
0000123811;5.6982;-16.2590;0.0120;-0.0401;-0.0413;-0.0242
0000123819;5.7533;-16.1800;0.1365;-0.0404;-0.0305;-0.0205
0000123827;5.6790;-16.1776;0.2107;-0.0213;-0.0276;-0.0240
0000123835;5.6431;-16.2686;0.1532;-0.0188;-0.0153;-0.0185
0000123843;5.7988;-16.1752;0.1173;-0.0088;-0.0111;-0.0215
0000123851;5.8466;-16.0531;-0.0144;-0.0079;-0.0077;-0.0221
0000123859;5.7197;-16.1752;0.0958;-0.0112;0.0021;-0.0266
0000123867;5.6719;-16.1704;0.0239;-0.0165;0.0081;-0.0217
0000123875;5.8610;-16.0412;0.0718;-0.0224;0.0136;-0.0268
0000123883;6.0454;-15.8664;0.0622;-0.0253;0.0218;-0.0228
0000123891;5.7988;-15.9693;0.0120;-0.0344;0.0261;-0.0262
0000123899;5.8778;-15.9789;-0.0120;-0.0366;0.0159;-0.0358
0000123907;5.8730;-15.9454;0.1508;-0.0448;0.0274;-0.0365
0000123915;5.5761;-16.1058;0.2251;-0.0597;0.0310;-0.0364
0000123923;5.7054;-16.0028;0.2753;-0.0629;0.0364;-0.0450
0000123931;5.6767;-16.0340;0.2801;-0.0726;0.0458;-0.0350
0000123939;5.6743;-16.1704;0.1772;-0.0806;0.0490;-0.0269
0000123947;5.5569;-16.4051;0.2442;-0.0741;0.0432;-0.0325
0000123955;5.8035;-16.3787;-0.0024;-0.0673;0.0458;-0.0290
0000123963;5.8083;-16.3117;0.0383;-0.0426;0.0398;-0.0336
0000123971;5.7317;-16.3141;-0.0168;-0.0289;0.0410;-0.0372
0000123979;5.5162;-16.4242;0.0168;-0.0136;0.0388;-0.0329
0000123987;5.5258;-16.3572;0.0646;-0.0028;0.0365;-0.0368
0000123995;5.5905;-16.3428;0.1077;0.0103;0.0289;-0.0438
0000124003;5.5210;-16.3596;0.0239;0.0244;0.0159;-0.0382
0000124011;5.5210;-16.2710;0.0431;0.0374;-0.0089;-0.0482
0000124019;5.3582;-16.2447;0.0407;0.0484;-0.0221;-0.0456
0000124027;5.2241;-16.3021;0.0144;0.0454;-0.0360;-0.0416
0000124035;5.2792;-16.1848;0.0215;0.0486;-0.0552;-0.0434
0000124043;5.2601;-16.0531;0.0886;0.0370;-0.0596;-0.0272
0000124051;5.1858;-15.8616;0.1173;0.0320;-0.0741;-0.0242
0000124059;5.1427;-16.0052;0.1676;0.0276;-0.0883;-0.0160
0000124067;5.2792;-16.0842;0.1030;0.0258;-0.1071;-0.0113
0000124075;5.4324;-16.0244;0.0263;0.0199;-0.1231;-0.0029
0000124083;5.4971;-15.9238;0.1221;0.0124;-0.1384;-0.0083
0000124091;5.4947;-16.0771;0.0934;0.0140;-0.1637;-0.0133
0000124099;5.2241;-16.2542;0.0910;0.0053;-0.1781;-0.0111
0000124107;5.3247;-16.1680;0.0431;0.0155;-0.2014;-0.0176
0000124115;5.3463;-16.2878;-0.0168;0.0105;-0.2090;-0.0131
0000124123;5.4684;-16.2303;-0.0407;0.0148;-0.2320;-0.0163
0000124131;5.3534;-16.2614;0.0359;0.0270;-0.2541;-0.0208
0000124139;5.3199;-16.2303;0.0311;0.0310;-0.2662;-0.0173
0000124147;5.4468;-16.2662;-0.0479;0.0405;-0.2766;-0.0179
0000124155;5.5210;-16.4242;0.1437;0.0386;-0.2774;-0.0136
0000124163;5.5306;-16.3285;0.0551;0.0577;-0.2908;-0.0115
0000124171;5.6910;-16.3644;0.0215;0.0663;-0.2872;-0.0083
0000124179;5.6790;-16.4506;0.0814;0.0886;-0.2943;-0.0109
0000124187;5.9089;-16.2040;0.0000;0.1079;-0.2968;-0.0088
0000124195;5.8299;-16.2758;-0.0455;0.1235;-0.3024;-0.0063
0000124203;5.8107;-16.1896;-0.0431;0.1292;-0.2987;-0.0109
0000124211;5.8778;-16.0028;0.0838;0.1323;-0.3012;-0.0156
0000124219;5.7676;-16.0316;0.0263;0.1231;-0.2904;-0.0159
0000124227;5.8155;-15.9262;0.0215;0.1152;-0.2847;-0.0155
0000124235;5.7485;-15.8879;0.0239;0.1051;-0.2823;-0.0203
0000124243;5.7820;-15.8041;0.0311;0.0946;-0.2746;-0.0156
0000124251;5.8012;-15.7802;0.1437;0.0734;-0.2606;-0.0144
0000124259;5.8347;-15.7682;0.0694;0.0641;-0.2642;-0.0147
0000124267;5.8059;-15.8999;0.2083;0.0510;-0.2637;-0.0111
0000124275;5.9711;-15.9574;0.1460;0.0450;-0.2534;-0.0112
0000124283;5.9544;-16.1728;0.1844;0.0414;-0.2457;-0.0117
0000124291;5.8179;-16.3141;0.3160;0.0448;-0.2368;-0.0112
0000124299;5.7748;-16.4577;0.3256;0.0568;-0.2410;-0.0101
0000124307;5.8945;-16.3045;0.2298;0.0714;-0.2380;-0.0089
0000124315;5.6000;-16.3644;0.3065;0.0861;-0.2290;-0.0141
0000124323;5.8155;-16.2734;0.2011;0.0953;-0.2296;-0.0156
0000124410;5.7748;-16.1489;0.2729;0.1536;-0.1915;-0.0410
0000124417;5.6623;-16.1130;0.3783;0.1466;-0.1861;-0.0318
0000124425;5.8754;-16.1513;0.5243;0.1346;-0.1811;-0.0245
0000124433;5.6790;-16.2710;0.5028;0.1382;-0.1827;-0.0252
0000124441;5.6886;-16.2471;0.3831;0.1388;-0.1785;-0.0129
0000124449;5.8466;-16.0507;0.5507;0.1420;-0.1736;-0.0088
0000124457;5.6886;-16.2542;0.5794;0.1577;-0.1791;-0.0157
0000124465;5.7868;-16.2901;0.7446;0.1695;-0.1759;-0.0153
0000124473;5.7150;-16.2542;0.6991;0.1767;-0.1703;-0.0136
0000124481;5.7150;-16.3309;0.7135;0.1904;-0.1689;-0.0167
0000124489;5.8179;-16.2638;0.7063;0.2041;-0.1693;-0.0161
0000124497;6.0166;-16.0890;0.5578;0.2244;-0.1785;-0.0211
0000124505;5.8873;-16.2710;0.6105;0.2328;-0.1757;-0.0160
0000124513;5.7892;-16.2087;0.5483;0.2463;-0.1955;-0.0236
0000124521;5.8730;-16.2111;0.6800;0.2515;-0.1917;-0.0209
0000124529;5.8778;-16.2686;0.7733;0.2639;-0.1905;-0.0172
0000124537;5.7509;-16.2183;0.7111;0.2823;-0.1941;-0.0187
0000124545;5.8802;-16.1752;0.7398;0.2915;-0.1920;-0.0117
0000124553;5.8442;-16.1585;0.6009;0.2991;-0.1996;-0.0160
0000124561;5.8179;-16.0172;0.5004;0.2988;-0.2080;-0.0121
0000124569;5.8969;-15.8760;0.5507;0.2947;-0.2257;-0.0108
0000124577;5.8442;-15.8616;0.5531;0.2769;-0.2357;-0.0063
0000124585;5.8873;-15.5503;0.5794;0.2463;-0.2517;-0.0023
0000124593;5.7652;-15.4689;0.5770;0.1989;-0.2551;0.0064
0000124601;5.7844;-15.3181;0.6297;0.1515;-0.2651;-0.0012
0000124609;5.9664;-15.1314;0.4190;0.0967;-0.2559;0.0004
0000124617;5.8012;-15.1122;0.3304;0.0297;-0.2430;0.0031
0000124625;6.0406;-15.1577;0.2945;-0.0133;-0.2458;-0.0087
0000124633;6.3614;-15.1122;0.2729;-0.0622;-0.2401;-0.0132
0000124641;6.3303;-15.4282;0.3448;-0.0879;-0.2462;-0.0281
0000124649;6.3279;-15.5240;0.4022;-0.0794;-0.2382;-0.0432
0000124657;6.1770;-16.1848;0.5698;-0.0791;-0.2128;-0.0440
0000124665;6.3111;-16.2901;0.5363;-0.0697;-0.1765;-0.0417
0000124673;6.3470;-16.7355;0.7015;-0.0492;-0.1637;-0.0450
0000124681;6.4045;-16.7450;0.6393;-0.0233;-0.1561;-0.0589
0000124689;6.5003;-16.6756;0.6416;0.0059;-0.1665;-0.0911
0000124697;6.3422;-16.4625;0.5004;0.0533;-0.1977;-0.1291
0000124705;5.9161;-16.3883;0.2059;0.0865;-0.2325;-0.1584
0000124713;5.5881;-16.0962;0.1173;0.1053;-0.2713;-0.1852
0000124721;4.9775;-15.8472;0.0479;0.1184;-0.3176;-0.2201
0000124729;4.2952;-15.9478;0.2538;0.1178;-0.3572;-0.2281
0000124737;4.1851;-15.9717;0.3496;0.1057;-0.3868;-0.2250
0000124745;4.2545;-16.1249;0.4262;0.0911;-0.4355;-0.2128
0000124753;4.1611;-16.5822;0.4094;0.0862;-0.4872;-0.1675
0000124761;4.3072;-16.8312;0.2825;0.1009;-0.5465;-0.1306
0000124769;4.3072;-17.2766;0.2059;0.1328;-0.6039;-0.0893
0000124777;4.6017;-17.5327;0.2705;0.1815;-0.6426;-0.0600
0000124785;4.7980;-17.6692;0.2993;0.2719;-0.6896;-0.0457
0000124793;5.1068;-17.4753;0.0790;0.3894;-0.7392;-0.0378
0000124801;5.1404;-17.2478;0.1724;0.4922;-0.7741;-0.0229
0000124809;5.1978;-16.8288;-0.0287;0.5742;-0.8103;-0.0205
0000124817;5.4348;-16.1465;-0.1748;0.6297;-0.8338;-0.0036
0000124825;5.3798;-15.6030;-0.3831;0.6528;-0.8533;0.0216
0000124833;5.4468;-15.0547;-0.7207;0.6459;-0.8553;0.0683
0000124841;5.5258;-14.5208;-0.9457;0.6159;-0.8540;0.1194
0000124849;5.5186;-13.9055;-0.9816;0.5569;-0.8374;0.1727
0000124857;5.6910;-13.4698;-1.0965;0.4894;-0.8108;0.2358
0000124865;5.6982;-13.0388;-1.0151;0.4263;-0.7866;0.2910
0000124873;5.8323;-12.6103;-1.3001;0.3545;-0.7538;0.3211
0000124881;5.9280;-12.3277;-1.4246;0.2727;-0.7019;0.3319
0000124889;6.2656;-12.0117;-1.7358;0.1860;-0.6516;0.3052
0000124897;6.3925;-11.8250;-1.9585;0.0921;-0.6039;0.2649
0000124905;6.5386;-11.7100;-2.0638;-0.0103;-0.5694;0.2125
0000124913;6.8331;-11.4347;-2.3559;-0.1379;-0.5327;0.1592
0000124921;7.1251;-11.4515;-2.6097;-0.2782;-0.4927;0.1082
0000124929;6.8809;-11.9950;-2.5474;-0.4365;-0.4310;0.0807
0000124937;7.1156;-12.3684;-2.2194;-0.5742;-0.4009;0.0596
0000124945;7.0390;-12.8784;-1.5323;-0.6877;-0.3726;0.0393
0000124953;6.9025;-13.5464;-0.5746;-0.7530;-0.3712;0.0312
0000124961;6.6535;-14.2694;-0.0958;-0.7858;-0.4005;0.0140
0000125048;5.6671;-16.8193;0.1006;-0.1989;-0.2669;0.1620
0000125056;6.3303;-17.0826;0.1484;-0.2272;-0.1374;0.1083
0000125064;6.7995;-17.2718;-0.2059;-0.2439;-0.0314;0.0269
0000125072;7.3143;-17.5327;-0.8571;-0.2329;0.0754;-0.0572
0000125080;7.6016;-17.6908;-1.8316;-0.1927;0.1812;-0.1180
0000125088;7.8290;-17.8655;-2.8323;-0.1408;0.2879;-0.1432
0000125096;8.4084;-17.8727;-3.6368;-0.0738;0.4025;-0.1416
0000125104;8.5784;-18.0259;-4.1132;0.0169;0.4758;-0.1588
0000125112;8.8753;-18.0571;-4.0965;0.1263;0.4912;-0.1856
0000125120;8.3438;-17.7650;-3.1532;0.2771;0.4739;-0.2069
0000125128;7.3047;-17.2383;-2.6839;0.4215;0.4193;-0.2182
0000125136;6.1962;-16.6229;-2.4995;0.5123;0.3631;-0.2229
0000125144;4.8578;-15.8520;-2.4660;0.5550;0.3340;-0.1852
0000125152;3.5530;-15.2439;-2.6312;0.5800;0.3004;-0.1532
0000125160;2.3894;-14.8393;-2.9688;0.5697;0.2417;-0.1308
0000125168;1.8986;-14.4993;-3.7302;0.4870;0.1939;-0.1228
0000125176;1.6544;-14.4706;-4.3958;0.3665;0.1891;-0.1659
0000125184;1.6927;-14.8967;-5.1212;0.2216;0.2631;-0.2354
0000125192;2.5187;-15.6437;-5.0254;0.1108;0.3491;-0.3283
0000125200;4.1420;-16.2782;-4.4532;0.0849;0.4338;-0.3981
0000125208;5.7772;-16.9318;-3.5386;0.1061;0.5015;-0.4373
0000125216;7.1347;-17.5591;-2.5546;0.1736;0.5327;-0.4465
0000125224;7.9847;-17.9828;-2.2458;0.2399;0.5745;-0.4041
0000125232;8.3821;-18.2223;-1.7454;0.2915;0.6175;-0.3203
0000125240;8.1738;-17.9421;-0.3352;0.3937;0.6454;-0.1913
0000125248;7.0844;-17.4106;0.6680;0.5303;0.7001;-0.0681
0000125256;6.4835;-16.2901;1.5443;0.7144;0.7686;0.0169
0000125264;5.9376;-14.9087;2.3224;0.9224;0.8005;0.0517
0000125272;5.8610;-13.4698;2.3894;1.0621;0.8200;0.0513
0000125280;5.8227;-12.1410;1.9561;1.0865;0.8232;0.0045
0000125288;5.6838;-11.0708;1.7382;1.0441;0.7846;-0.0516
0000125296;5.4300;-9.9742;2.2362;0.9738;0.6463;-0.0705
0000125304;5.3103;-9.1578;2.5355;0.9458;0.4590;-0.0693
0000125312;5.3750;-8.5401;2.7605;0.9198;0.2850;-0.0834
0000125320;5.3989;-7.9248;2.8706;0.8623;0.1576;-0.0846
0000125328;5.2505;-7.5465;3.3160;0.7893;0.1015;-0.1005
0000125336;5.6168;-6.8953;3.7469;0.7353;0.1095;-0.1627
0000125344;5.6575;-6.6822;4.1228;0.6731;0.1708;-0.2594
0000125352;6.0023;-6.2201;4.3479;0.6021;0.2300;-0.3946
0000125360;6.4811;-6.0358;4.2425;0.4776;0.2932;-0.5403
0000125368;6.8067;-5.8634;4.0055;0.3179;0.3625;-0.6872
0000125376;7.3598;-5.7628;3.4668;0.1268;0.4410;-0.8118
0000125384;7.5202;-5.7988;2.9568;-0.0975;0.5460;-0.9045
0000125392;7.4460;-5.7916;2.5019;-0.3187;0.6235;-0.9715
0000125400;7.6495;-5.7820;2.4948;-0.4890;0.6765;-0.9820
0000125408;7.6064;-5.8419;2.7845;-0.5618;0.7189;-0.9236
0000125416;7.7093;-5.9376;2.5211;-0.6154;0.7444;-0.8591
0000125424;7.9918;-6.2560;2.6121;-0.6474;0.8124;-0.7805
0000125432;8.0661;-6.8115;3.9576;-0.6235;0.8799;-0.6859
0000125440;8.9711;-7.2903;6.8594;-0.4914;0.9381;-0.5432
0000125448;9.1818;-10.0485;13.1490;-0.2406;1.0377;-0.3044
0000125456;9.4403;-14.7267;23.9923;0.1993;1.0692;-0.0839
0000125464;11.4994;-19.4194;27.0904;0.0837;0.8087;-0.0173
0000125472;14.4490;-23.2094;19.6732;-0.9633;0.8428;-0.0789
0000125480;14.9063;-25.4073;13.5512;-1.9922;1.1034;-0.1414
0000125488;13.9582;-28.7089;8.0445;-2.4420;1.1102;-0.0823
0000125496;12.6605;-31.7782;1.6927;-2.7757;1.0039;-0.0770
0000125504;9.6319;-36.9234;1.5131;-2.5057;0.8567;-0.0626
0000125512;4.4149;-39.0710;-0.2131;-1.6073;0.6852;0.3489
0000125520;-0.5842;-38.8627;-4.3048;-0.7438;0.9032;1.1181
0000125528;-2.4900;-34.0527;-3.4572;0.5788;1.3419;1.8546
0000125536;-2.6743;-30.9498;-5.6072;2.0927;1.6238;2.2436
0000125544;0.9864;-33.2531;-14.8536;2.5030;0.0794;2.1961
0000125552;1.1205;-28.3497;-8.9663;-0.1548;1.2424;1.6282
0000125560;-6.3231;-31.9602;41.3503;-0.6098;0.9021;1.8810
0000125568;1.2210;-44.1874;13.7954;-0.9597;0.7178;1.2657
0000125576;3.4046;-42.6671;4.6807;-0.0961;0.0865;0.2659
0000125584;5.7317;-42.0518;4.9057;2.1650;-0.6972;-0.0797
0000125592;8.2456;-41.2042;0.3256;4.0541;-0.9590;0.0714
0000125600;11.6717;-36.8923;-0.2586;4.3656;-0.9106;0.2891
0000125608;11.6286;-31.5556;-3.7445;4.3656;-0.5462;0.3425
0000125694;3.2202;-7.8386;0.5938;4.3656;-0.4747;0.3385
0000125702;3.2058;-6.3494;1.8603;4.3656;-0.4523;0.2356
0000125710;2.8347;-5.0925;3.3974;4.3656;-0.4903;0.1251
0000125718;2.9999;-4.5849;4.2090;4.2213;-0.6315;0.0358
0000125726;3.2992;-3.5865;4.6088;3.7571;-0.6684;-0.1111
0000125734;3.1843;-2.9999;5.7604;3.2608;-0.6765;-0.2734
0000125742;2.9688;-2.5833;6.2465;2.7562;-0.6648;-0.3565
0000125750;3.7182;-2.1261;6.3279;2.1949;-0.5829;-0.3687
0000125758;4.2114;-2.2817;6.6607;1.7537;-0.4827;-0.3359
0000125766;5.1547;-2.3152;7.6207;1.3622;-0.3854;-0.2663
0000125774;5.8538;-2.5474;8.3653;1.0625;-0.2938;-0.1581
0000125782;6.3542;-3.6871;8.0900;0.7670;-0.2399;-0.0009
0000125790;6.3901;-5.1882;7.9990;0.3048;-0.1239;0.1621
0000125798;6.3614;-6.3351;8.7628;-0.0256;-0.0161;0.2974
0000125806;6.0262;-7.9200;10.0556;-0.1637;0.0629;0.4120
0000125814;5.6647;-9.2201;10.8002;-0.1047;0.0903;0.5163
0000125822;5.5067;-9.9790;10.2185;0.0829;0.0477;0.5801
0000125830;5.4899;-10.1897;9.0237;0.2879;0.0011;0.5828
0000125838;5.5138;-10.2951;8.3629;0.4732;-0.0163;0.5232
0000125846;5.9831;-9.8904;7.9799;0.5778;-0.0152;0.4120
0000125854;5.9496;-9.4379;7.8602;0.6515;-0.0405;0.2557
0000125862;6.1770;-8.5976;7.6064;0.7250;-0.0713;0.1370
0000125870;6.3494;-7.7405;7.2880;0.7388;-0.0604;0.0850
0000125878;6.6319;-7.0413;7.4364;0.7329;-0.0332;0.0593
0000125886;6.5864;-6.4691;7.6998;0.7107;-0.0041;0.0521
0000125894;6.6032;-5.7174;7.6710;0.6267;0.0389;0.0581
0000125902;6.2441;-5.4348;7.6375;0.4955;0.0837;0.0620
0000125910;5.4851;-5.5019;7.6327;0.3192;0.1156;0.0673
0000125918;5.1260;-5.5210;7.7620;0.1406;0.1368;0.0538
0000125926;4.8507;-6.1411;8.3462;-0.0218;0.1278;0.0393
0000125934;4.5298;-7.0820;8.9519;-0.1235;0.0946;0.0112
0000125942;4.1827;-7.9224;9.2703;-0.1555;0.0497;-0.0092
0000125950;4.0893;-8.6910;9.4379;-0.1195;0.0060;-0.0244
0000125958;3.9193;-9.3494;9.5241;-0.0624;-0.0125;-0.0199
0000125966;4.3263;-9.4739;9.3877;0.0044;-0.0262;-0.0020
0000125974;4.4388;-9.7540;9.3494;0.0452;-0.0310;0.0217
0000125982;4.7166;-9.7420;9.1291;0.0530;-0.0353;0.0481
0000125990;4.8004;-9.8019;9.0070;0.0260;-0.0152;0.0738
0000125998;4.9799;-9.8019;8.8849;0.0049;0.0011;0.0949
0000126006;4.9488;-9.7755;8.8370;-0.0246;0.0277;0.1191
0000126014;4.9297;-9.7540;8.7460;-0.0406;0.0420;0.1206
0000126022;4.9297;-9.6989;8.6957;-0.0504;0.0532;0.1196
0000126030;4.7621;-9.7540;8.6167;-0.0484;0.0556;0.1118
0000126038;4.7262;-9.8521;8.5617;-0.0641;0.0618;0.0962
0000126046;4.7238;-9.9000;8.6622;-0.0644;0.0727;0.0975
0000126054;4.5155;-9.8186;8.7436;-0.0417;0.0802;0.1082
0000126062;4.6998;-9.8881;8.7580;-0.0217;0.0894;0.1400
0000126070;4.9344;-9.7444;8.6479;-0.0204;0.0994;0.1779
0000126078;5.0949;-9.6582;8.5329;-0.0234;0.0926;0.2153
0000126086;4.8243;-9.6750;8.3606;-0.0586;0.0739;0.2399
0000126094;4.6807;-9.7444;8.1906;-0.1231;0.0609;0.2458
0000126102;4.6902;-9.6486;8.1307;-0.1819;0.0249;0.2272
0000126110;4.3072;-9.8593;7.9559;-0.2234;-0.0171;0.1980
0000126118;4.0558;-10.0868;8.1068;-0.2670;-0.0532;0.1595
0000126126;4.1252;-10.3214;8.1882;-0.2912;-0.0998;0.1047
0000126134;4.3335;-10.2903;8.3462;-0.3027;-0.1470;0.0373
0000126142;4.1276;-10.6566;8.4276;-0.2850;-0.1958;-0.0353
0000126150;4.5514;-10.5967;8.4635;-0.2739;-0.2050;-0.0795
0000126158;4.8171;-10.5225;8.4300;-0.2611;-0.2070;-0.1186
0000126166;4.9799;-10.4483;8.4276;-0.2571;-0.1800;-0.1130
0000126174;5.2888;-10.3022;8.5569;-0.2518;-0.1402;-0.0818
0000126182;5.3271;-10.4267;8.2983;-0.2679;-0.1053;-0.0420
0000126190;5.4420;-10.4291;8.4491;-0.3082;-0.0596;0.0152
0000126198;5.5043;-10.4651;8.3653;-0.3445;-0.0329;0.0614
0000126206;5.2337;-10.7787;8.3031;-0.3656;-0.0217;0.0927
0000126214;5.0518;-10.9463;8.2480;-0.3822;-0.0156;0.1283
0000126222;4.7309;-11.2312;8.2265;-0.3957;-0.0111;0.1601
0000126230;4.6112;-11.2551;8.0972;-0.3922;-0.0187;0.1731
0000126238;4.5921;-11.4491;7.9344;-0.3822;-0.0470;0.1604
0000126246;4.7692;-11.4251;7.9511;-0.3742;-0.0719;0.1458
0000126254;4.8004;-11.5305;7.9942;-0.3563;-0.1167;0.0985
0000126262;5.0805;-11.4634;7.9703;-0.3279;-0.1466;0.0448
0000126349;5.4037;-11.6023;8.1211;-0.2000;-0.0450;0.0586
0000126356;5.2361;-11.7124;8.0325;-0.2000;-0.0548;0.1018
0000126364;5.2265;-11.5113;7.9799;-0.2189;-0.0745;0.1323
0000126372;5.1332;-11.8561;7.8554;-0.2353;-0.0943;0.1599
0000126380;5.0589;-12.0692;7.9080;-0.2537;-0.1100;0.1739
0000126388;5.2241;-12.1769;7.9679;-0.2497;-0.1268;0.1579
0000126396;5.2912;-12.2511;7.9871;-0.2309;-0.1411;0.1218
0000126404;5.6336;-12.2368;7.9583;-0.2096;-0.1519;0.0626
0000126412;5.8658;-12.2392;7.8338;-0.1998;-0.1380;0.0031
0000126420;6.0885;-11.9950;7.9655;-0.2025;-0.1115;-0.0488
0000126428;6.3231;-11.8657;7.9751;-0.1984;-0.0869;-0.1046
0000126436;6.6631;-11.7053;7.8673;-0.2130;-0.0346;-0.1402
0000126444;6.7732;-11.7436;7.8673;-0.2273;0.0133;-0.1672
0000126452;6.7684;-11.6286;7.7596;-0.2316;0.0545;-0.1847
0000126460;6.4643;-11.7627;7.8386;-0.2419;0.1005;-0.1844
0000126468;6.0573;-11.8298;7.7716;-0.2393;0.1256;-0.1867
0000126476;5.7724;-11.8154;7.7716;-0.2388;0.1331;-0.1809
0000126484;5.4348;-11.7651;7.6567;-0.2361;0.1336;-0.1784
0000126492;5.1667;-11.8034;7.6662;-0.2272;0.1057;-0.1823
0000126500;4.7525;-11.7986;7.6614;-0.2356;0.0922;-0.1812
0000126508;4.8004;-12.0045;7.6207;-0.2322;0.0549;-0.1904
0000126516;4.9177;-11.8441;7.6543;-0.2201;0.0374;-0.1820
0000126524;4.9129;-11.9088;7.5489;-0.2036;0.0160;-0.1692
0000126532;5.2194;-11.9088;7.6207;-0.1883;0.0121;-0.1410
0000126540;5.2744;-12.1817;7.5441;-0.1797;0.0088;-0.1166
0000126548;5.6192;-11.8537;7.5561;-0.1580;0.0092;-0.0886
0000126556;5.4348;-12.0333;7.5633;-0.1338;0.0238;-0.0654
0000126564;5.5881;-11.9542;7.4771;-0.1256;0.0344;-0.0397
0000126572;5.4444;-12.2248;7.4627;-0.1319;0.0470;-0.0120
0000126580;5.4277;-12.2583;7.6279;-0.1183;0.0457;0.0028
0000126588;5.4300;-12.2990;7.6207;-0.1010;0.0496;0.0232
0000126596;5.2337;-12.4211;7.7261;-0.0885;0.0540;0.0328
0000126604;5.3199;-12.6845;7.9631;-0.0652;0.0506;0.0314
0000126612;5.3247;-12.4259;7.8961;-0.0329;0.0416;0.0261
0000126620;5.1332;-12.3373;7.8889;-0.0125;0.0325;0.0281
0000126628;4.9919;-12.3445;7.8099;-0.0008;0.0184;0.0312
0000126636;5.0566;-12.3230;7.7979;0.0007;0.0128;0.0433
0000126644;5.0135;-12.2439;7.8673;-0.0124;0.0051;0.0493
0000126652;5.0422;-12.1673;7.7979;-0.0225;-0.0064;0.0552
0000126660;5.1188;-12.0811;7.8578;-0.0369;-0.0168;0.0659
0000126668;4.9991;-12.2224;7.8338;-0.0396;-0.0318;0.0666
0000126676;4.8291;-12.2487;7.8530;-0.0485;-0.0306;0.0697
0000126684;5.0135;-12.2272;7.7524;-0.0532;-0.0404;0.0737
0000126692;5.0566;-12.1506;7.8530;-0.0464;-0.0410;0.0715
0000126700;5.2098;-12.1817;7.7405;-0.0438;-0.0328;0.0833
0000126708;5.2385;-12.2751;7.8338;-0.0388;-0.0269;0.0933
0000126716;5.0805;-12.2942;7.7812;-0.0280;-0.0232;0.1077
0000126724;5.3439;-12.1482;7.7548;-0.0240;-0.0282;0.1174
0000126732;5.3846;-12.1027;7.7620;-0.0278;-0.0268;0.1316
0000126740;5.3822;-12.0069;7.6734;-0.0452;-0.0257;0.1448
0000126748;5.2864;-11.9447;7.7117;-0.0441;-0.0253;0.1427
0000126756;5.4061;-11.8705;7.6136;-0.0516;-0.0147;0.1507
0000126764;5.3343;-11.8369;7.5513;-0.0538;-0.0109;0.1484
0000126772;5.3486;-11.7723;7.6112;-0.0532;-0.0141;0.1342
0000126780;5.3534;-11.7986;7.5010;-0.0626;-0.0045;0.1194
0000126788;5.3774;-11.9231;7.6064;-0.0645;-0.0024;0.0881
0000126796;5.3774;-11.8082;7.5130;-0.0596;-0.0032;0.0561
0000126804;5.4540;-11.8417;7.6567;-0.0588;0.0027;0.0264
0000126812;5.2936;-11.8106;7.6686;-0.0493;0.0115;0.0003
0000126820;5.2744;-11.9638;7.6423;-0.0494;0.0230;-0.0177
0000126828;5.3774;-11.9231;7.7309;-0.0374;0.0268;-0.0426
0000126836;5.2672;-11.7412;7.6591;-0.0428;0.0326;-0.0510
0000126844;5.0613;-11.9399;7.6471;-0.0505;0.0420;-0.0621
0000126852;5.1882;-11.8226;7.7213;-0.0452;0.0384;-0.0678
0000126860;4.8626;-11.8848;7.7261;-0.0533;0.0432;-0.0600
0000126868;4.7884;-12.0285;7.6519;-0.0444;0.0345;-0.0574
0000126876;4.6878;-12.0572;7.6974;-0.0448;0.0286;-0.0468
0000126884;4.8530;-11.9519;7.6902;-0.0322;0.0127;-0.0432
0000126892;4.7333;-12.0021;7.6303;-0.0285;0.0108;-0.0284
0000126900;4.7070;-12.0859;7.6734;-0.0234;0.0033;-0.0221
0000126908;4.9153;-11.9758;7.6279;-0.0072;-0.0061;-0.0261
0000127000;5.1787;-12.0045;7.5920;-0.0076;-0.0429;-0.0406
0000127007;5.1691;-11.9495;7.6686;-0.0061;-0.0449;-0.0422
0000127015;5.0278;-11.8345;7.6471;0.0009;-0.0492;-0.0474
0000127023;5.1212;-11.6741;7.6040;-0.0163;-0.0496;-0.0486
0000127031;5.0087;-11.7627;7.7117;-0.0326;-0.0400;-0.0533
0000127039;4.9775;-11.7244;7.7716;-0.0470;-0.0320;-0.0626
0000127047;5.1284;-11.6262;7.7692;-0.0645;-0.0128;-0.0493
0000127055;5.1020;-11.7675;7.8147;-0.0673;-0.0057;-0.0480
0000127063;5.2170;-11.8776;7.8841;-0.0733;0.0099;-0.0358
0000127071;5.3606;-11.7795;7.8003;-0.0818;0.0209;-0.0304
0000127079;5.2720;-11.9686;7.7764;-0.0833;0.0293;-0.0309
0000127087;5.0853;-12.1721;7.6710;-0.0831;0.0330;-0.0262
0000127095;4.8267;-12.2344;7.6327;-0.0747;0.0285;-0.0274
0000127103;4.6974;-12.2392;7.7835;-0.0637;0.0205;-0.0342
0000127111;4.8004;-12.1171;7.6543;-0.0448;0.0096;-0.0377
0000127119;4.8483;-12.0261;7.5346;-0.0376;0.0020;-0.0358
0000127127;4.7740;-12.0692;7.5465;-0.0256;-0.0069;-0.0429
0000127135;4.6711;-12.0404;7.5848;-0.0168;-0.0123;-0.0414
0000127143;4.9967;-11.7531;7.4986;-0.0241;-0.0092;-0.0278
0000127151;5.1787;-11.7244;7.5561;-0.0341;0.0047;-0.0143
0000127159;5.2289;-11.6693;7.5992;-0.0497;-0.0024;-0.0116
0000127167;5.0302;-11.9423;7.6303;-0.0626;0.0109;0.0045
0000127175;5.0853;-11.8872;7.5633;-0.0730;0.0063;0.0085
0000127183;4.8363;-12.1530;7.6303;-0.0709;-0.0005;0.0035
0000127191;4.9225;-12.2176;7.6184;-0.0632;-0.0068;0.0013
0000127199;5.0709;-12.1554;7.5130;-0.0562;-0.0125;0.0020
0000127207;4.9225;-12.2679;7.6375;-0.0456;-0.0200;-0.0071
0000127215;5.1260;-12.1841;7.6231;-0.0369;-0.0226;-0.0127
0000127223;4.8435;-12.3780;7.6567;-0.0199;-0.0300;-0.0241
0000127231;4.9249;-12.2463;7.6950;-0.0175;-0.0334;-0.0292
0000127239;5.0111;-12.1625;7.7548;-0.0123;-0.0330;-0.0290
0000127247;5.0374;-12.0883;7.6591;-0.0314;-0.0242;-0.0272
0000127255;4.9943;-12.1290;7.7165;-0.0452;-0.0257;-0.0290
0000127263;5.0206;-12.0117;7.5800;-0.0565;-0.0294;-0.0312
0000127271;5.1451;-11.9399;7.6375;-0.0765;-0.0237;-0.0238
0000127279;5.2888;-11.7986;7.6495;-0.0857;-0.0374;-0.0320
0000127287;5.1715;-11.8992;7.6447;-0.0998;-0.0317;-0.0254
0000127295;5.0542;-12.0189;7.7261;-0.1055;-0.0380;-0.0249
0000127303;5.2265;-11.9614;7.7333;-0.0969;-0.0418;-0.0298
0000127311;5.0374;-12.1745;7.6758;-0.0990;-0.0289;-0.0203
0000127319;5.2553;-12.0548;7.5920;-0.1041;-0.0254;-0.0185
0000127327;5.1475;-12.1841;7.4603;-0.1191;-0.0172;-0.0152
0000127335;5.3032;-12.2320;7.4148;-0.1278;-0.0099;-0.0276
0000127343;5.3439;-12.3277;7.5369;-0.1379;0.0025;-0.0370
0000127351;5.0949;-12.6414;7.4603;-0.1340;-0.0008;-0.0566
0000127359;5.2744;-12.5073;7.6519;-0.1140;-0.0035;-0.0755
0000127367;5.2098;-12.2775;7.4124;-0.0715;-0.0087;-0.0955
0000127375;4.9823;-12.4666;7.2688;-0.0953;-0.0060;-0.0987
0000127383;4.9871;-12.7060;7.6471;-0.1340;0.0027;-0.0799
0000127391;5.1284;-12.4331;7.6662;-0.0870;-0.0073;-0.0894
0000127399;5.1404;-12.5456;7.4316;-0.0414;0.0020;-0.0762
0000127407;5.1308;-12.4139;7.4124;-0.0065;0.0057;-0.0605
0000127415;5.2265;-12.2823;7.5298;-0.0019;0.0113;-0.0485
0000127423;5.0159;-12.2248;7.4675;-0.0068;0.0199;-0.0342
0000127431;5.0973;-12.2655;7.4196;-0.0045;0.0230;-0.0264
0000127439;4.8770;-12.3277;7.4220;0.0125;0.0117;-0.0264
