time;acc_x;acc_y;acc_z;gyro_x;gyro_y;gyro_z
0001834474;5.0015;2.8922;2.8347;-0.6215;-1.3013;-1.1199
0001834483;4.1587;2.6240;3.1891;-0.2733;-1.3097;-1.0512
0001834491;3.5123;2.5762;2.9616;-0.0655;-1.3292;-0.9864
0001834499;3.4860;2.4205;2.3487;0.0180;-1.3744;-0.9371
0001834552;7.0557;4.8100;2.3008;-0.2530;-1.4064;-0.9451
0001834560;6.4045;4.5945;2.2362;-0.1523;-1.3514;-0.8645
0001834571;5.9975;4.8985;2.1404;0.0910;-1.2752;-0.6897
0001834579;6.0741;4.7357;1.8459;0.2930;-1.2380;-0.5784
0001834587;6.3590;4.5993;1.8124;0.4575;-1.1952;-0.4606
0001834598;6.9312;3.9768;1.8411;0.6127;-1.1856;-0.3806
0001834606;7.3981;3.6895;2.0231;0.6700;-1.1926;-0.3473
0001834617;7.9559;3.4213;2.3846;0.6849;-1.2340;-0.3329
0001834625;8.1211;3.1699;2.6097;0.6542;-1.2702;-0.3271
0001834636;8.2169;2.7845;2.7031;0.5951;-1.3488;-0.3100
0001834644;8.4587;2.6576;2.9568;0.5589;-1.4024;-0.2891
0001834652;8.2097;2.3128;3.0263;0.5311;-1.4568;-0.2679
0001834663;7.8817;2.2242;2.9209;0.4794;-1.5276;-0.2403
0001834671;7.3430;2.2266;2.7988;0.4441;-1.5875;-0.2374
0001834725;5.8227;3.1603;1.8435;0.5060;-1.6157;-0.2320
0001834733;5.9472;3.0742;1.9178;0.6015;-1.5561;-0.2256
0001834744;6.0669;2.7414;2.1021;0.7368;-1.4741;-0.2397
0001834752;6.1986;2.6576;2.1787;0.8130;-1.4400;-0.2601
0001834763;6.0262;2.3272;2.3607;0.8492;-1.4209;-0.2695
0001834771;5.9376;1.9944;2.3200;0.8376;-1.4256;-0.2674
0001834779;6.0549;1.7837;2.3703;0.7986;-1.4382;-0.2634
0001834790;6.1004;1.6257;2.1979;0.7312;-1.4706;-0.2493
0001834798;6.3087;1.6400;2.1332;0.6829;-1.4957;-0.2531
0001834809;6.2249;1.5682;2.1644;0.6326;-1.5436;-0.2563
0001834817;6.1268;1.4581;2.2218;0.5914;-1.5680;-0.2701
0001834828;6.2297;1.7238;2.3918;0.5312;-1.5881;-0.2908
0001834836;6.0932;1.6951;2.5833;0.4959;-1.5965;-0.3052
0001834844;5.8490;1.8196;2.8778;0.4442;-1.5956;-0.3134
0001834855;5.3941;2.0423;2.8371;0.3869;-1.6052;-0.3412
0001834863;5.3702;2.0997;3.0718;0.3524;-1.5930;-0.3492
0001834874;5.0973;2.2817;2.9568;0.3324;-1.5519;-0.3587
0001834882;4.8794;2.2601;2.8395;0.3335;-1.5062;-0.3635
0001834893;4.7142;2.2170;2.7174;0.3651;-1.4498;-0.3632
0001834901;4.8985;2.4612;2.7198;0.3812;-1.4021;-0.3537
0001834912;4.9560;2.3727;2.6600;0.4243;-1.3419;-0.3384
0001834920;4.7405;2.1380;2.7605;0.4479;-1.3149;-0.3343
0001834928;5.3463;2.1859;2.8084;0.4482;-1.2810;-0.3232
0001834982;7.2185;1.7741;2.5402;0.1787;-1.4013;-0.3018
0001834990;7.5154;2.0327;2.6408;0.1059;-1.4152;-0.2906
0001835001;7.6758;2.3056;2.5690;0.0596;-1.4198;-0.2924
0001835009;7.3191;2.2889;2.5211;0.0456;-1.4150;-0.3007
0001835020;6.5817;2.2290;2.3894;0.0274;-1.4013;-0.3075
0001835028;6.0621;2.2194;2.2338;-0.0011;-1.4067;-0.3164
0001835036;5.5737;2.3224;2.1213;-0.0445;-1.4180;-0.3325
0001835047;5.0254;2.2051;2.1045;-0.1323;-1.4113;-0.3588
0001835055;5.0015;2.4014;2.4086;-0.2033;-1.4194;-0.3849
0001835066;5.3750;2.2841;3.7062;-0.2549;-1.4405;-0.4442
0001835074;5.7868;2.4325;4.4484;-0.2474;-1.4380;-0.5041
0001835085;6.9911;2.8012;5.3917;-0.2729;-1.4989;-0.6029
0001835093;8.0182;2.9784;5.6072;-0.3465;-1.5755;-0.5997
0001835104;8.8466;3.5147;4.4604;-0.5891;-1.6594;-0.4199
0001835112;8.1211;4.5873;2.6384;-0.9649;-1.6065;-0.0482
0001835120;7.0342;5.3223;1.4102;-1.4064;-1.5031;0.3353
0001835131;5.2672;5.6695;0.2251;-1.8871;-1.3860;0.7518
0001835139;4.5250;6.0094;-0.2035;-2.0426;-1.3356;0.9498
0001835150;4.1228;6.0118;-0.6800;-2.0536;-1.2307;1.1564
0001835158;4.8530;6.3087;-0.8308;-1.9196;-1.1646;1.2315
0001835169;5.4133;6.3207;-0.8356;-1.5760;-1.1171;1.1728
0001835177;6.0094;6.1292;-0.5722;-1.2223;-1.1242;1.0220
0001835230;7.0629;1.7310;1.7358;0.8475;-1.4554;-0.0585
0001835238;6.0310;1.4246;2.3176;0.7172;-1.4202;-0.0189
0001835246;5.2361;1.4964;3.0071;0.4614;-1.3378;0.0095
0001835257;3.6416;1.4964;3.4716;-0.0280;-1.1866;0.0289
0001835265;2.9832;1.6903;3.2394;-0.3588;-1.0629;0.0454
0001835276;1.7502;2.1620;3.3040;-0.7011;-0.8138;0.0566
0001835284;0.9553;2.4565;2.5307;-0.7809;-0.6684;0.0077
0001835295;0.3687;3.1532;1.7909;-0.6706;-0.5303;-0.1234
0001835303;0.2059;3.5650;1.4724;-0.5036;-0.4702;-0.2328
0001835314;0.9625;3.8211;1.3695;-0.1843;-0.3708;-0.3782
0001835322;1.5562;3.6727;1.5490;0.0409;-0.2757;-0.4257
0001835330;2.4660;3.6536;1.7454;0.1996;-0.1743;-0.4469
0001835341;3.5051;3.3112;2.1596;0.3291;-0.0707;-0.4377
0001835349;4.2784;2.8299;2.2122;0.3596;-0.0406;-0.4170
0001835360;5.1499;2.5881;2.1907;0.3507;-0.0188;-0.3818
0001835368;5.8179;2.1859;2.0255;0.3276;-0.0429;-0.3584
0001835379;6.4380;2.1739;1.8651;0.3050;-0.0644;-0.3537
0001835387;6.7109;1.8340;1.9609;0.3126;-0.0878;-0.3416
0001835395;6.8450;1.7286;2.0016;0.3136;-0.1180;-0.3195
0001835406;7.2880;1.6376;2.0614;0.3269;-0.1783;-0.2858
0001835414;7.1036;1.2378;2.2865;0.3106;-0.2097;-0.2599
0001835425;6.7588;0.8835;2.3679;0.2971;-0.2663;-0.2317
0001835433;6.3997;0.7183;2.4541;0.2794;-0.2920;-0.1955
0001835487;4.9895;1.3815;3.3375;-0.1104;-0.2148;0.1148
0001835495;4.8052;1.8028;3.3208;-0.1232;-0.1947;0.1406
0001835506;4.6519;2.1835;3.4285;-0.1224;-0.1723;0.1567
0001835514;4.5873;2.4397;3.3303;-0.1011;-0.1557;0.1632
0001835522;4.3790;2.6408;3.3878;-0.0554;-0.1376;0.1541
0001835533;4.3239;2.7318;3.4644;0.0473;-0.0998;0.1524
0001835541;3.8666;2.5690;3.5650;0.1246;-0.0654;0.1539
0001835552;3.8786;2.5546;3.6536;0.2049;-0.0009;0.1275
0001835560;3.9217;2.5522;3.5554;0.2406;0.0506;0.0901
0001835571;4.0630;2.3320;3.3639;0.2442;0.1372;0.0301
0001835579;4.0342;2.1548;2.9616;0.2344;0.1863;-0.0310
0001835587;4.0725;2.1524;2.4972;0.1860;0.2348;-0.0794
0001835598;4.0725;2.0614;2.0518;0.0426;0.2591;-0.1287
0001835606;4.4077;2.1979;1.9632;-0.0982;0.2754;-0.1683
0001835617;4.4556;2.3631;1.8531;-0.2709;0.2449;-0.2030
0001835625;4.2689;2.4612;2.1931;-0.3299;0.2377;-0.1797
0001835636;3.7206;2.5594;3.8523;-0.2838;0.3724;-0.0903
0001835644;2.8898;2.8443;4.9608;-0.2181;0.5228;-0.0097
0001835652;1.7933;3.1987;5.0063;-0.1615;0.6659;0.0913
0001835663;0.9601;4.7884;3.5219;-0.2706;0.6678;0.0722
0001835671;2.3343;6.9623;3.2394;-0.5946;0.6873;-0.1969
0001835682;4.5418;8.0493;2.1787;-0.9268;0.5946;-0.4848
0001835690;6.3686;7.9847;2.5786;-0.9892;0.4874;-0.6626
0001835744;5.7940;3.3423;0.9266;0.1119;-0.0626;-0.8864
0001835752;4.9057;2.8467;0.8068;0.4227;0.0133;-0.5636
0001835760;4.4532;2.5283;0.4046;0.5875;0.0723;-0.2975
0001835771;4.1803;1.9441;-0.3352;0.5793;0.1382;-0.0849
0001835779;4.4484;1.7837;-1.0463;0.4615;0.2029;-0.0386
0001835790;4.9057;1.4030;-1.3120;0.3143;0.2798;-0.1175
0001835798;5.6407;1.1420;-0.7494;0.2914;0.3104;-0.2190
0001835809;6.1890;0.9122;0.0024;0.3307;0.3339;-0.4038
0001835817;6.4212;1.2426;0.5602;0.3151;0.2679;-0.5367
0001835828;6.8163;1.5036;1.0750;0.2018;0.2286;-0.6554
0001835836;6.7373;1.5969;1.3647;0.1091;0.1945;-0.6868
0001835844;6.7469;2.0423;1.4150;0.0442;0.1529;-0.6491
0001835855;6.5050;2.6217;1.5897;-0.0189;0.0605;-0.5133
0001835863;6.4428;2.8946;1.7238;-0.0342;0.0141;-0.3714
0001835874;6.8091;3.6033;1.3982;-0.0211;-0.0842;-0.2084
0001835882;7.0413;3.8475;1.0678;0.0156;-0.1628;-0.1183
0001835893;7.3215;4.3383;0.7757;0.1186;-0.2374;-0.0272
0001835901;7.8147;4.6400;0.4405;0.2342;-0.2890;-0.0007
0001835909;8.0134;4.5753;0.4788;0.3862;-0.3110;0.0035
0001835920;8.0038;4.5490;0.8260;0.5905;-0.3401;-0.0209
0001835928;7.8721;4.2952;1.0750;0.7065;-0.3589;-0.0474
0001835939;7.3694;3.6033;1.4054;0.7922;-0.3688;-0.0485
0001835947;7.0294;2.9425;1.5060;0.8018;-0.3989;-0.0414
0001835997;5.0494;1.2809;1.6735;0.2078;-0.5053;0.1342
0001836005;4.9943;1.5107;1.6807;0.1332;-0.4852;0.1414
0001836013;5.1068;1.7957;1.6927;0.1018;-0.4703;0.1312
0001836024;5.0398;1.8747;1.8196;0.1092;-0.4341;0.0979
0001836032;5.1643;1.9178;1.9872;0.1375;-0.4126;0.0566
0001836043;5.1643;2.0039;1.9776;0.1736;-0.3865;-0.0005
0001836051;5.1404;2.1404;2.0279;0.1969;-0.3796;-0.0454
0001836062;5.2002;2.2601;1.9896;0.2193;-0.3579;-0.0973
0001836070;5.0422;2.3535;1.8914;0.2465;-0.3463;-0.1354
0001836081;5.0685;2.4876;1.9106;0.2738;-0.3078;-0.1775
0001836089;5.3534;2.6552;2.0830;0.3020;-0.2763;-0.1997
0001836097;5.3606;2.4636;2.1668;0.3503;-0.2599;-0.2210
0001836108;5.5761;2.5307;2.2769;0.4102;-0.2158;-0.2302
0001836116;5.6623;2.4972;2.2625;0.4330;-0.2029;-0.2252
0001836127;5.6934;2.4948;2.1452;0.4391;-0.1824;-0.2181
0001836135;5.6790;2.3128;2.1668;0.4447;-0.1909;-0.2105
0001836146;5.7581;2.3679;2.3176;0.4419;-0.2149;-0.2089
0001836154;5.8227;2.4948;2.4038;0.4314;-0.2385;-0.2029
0001836162;5.8658;2.4684;2.3727;0.4293;-0.2737;-0.2160
0001836173;6.4452;2.7940;2.1739;0.4466;-0.3216;-0.2328
0001836181;6.2441;2.6097;2.0566;0.4572;-0.3652;-0.2559
0001836192;6.4715;2.8491;1.8364;0.4469;-0.4215;-0.2847
0001836200;6.4117;2.9113;1.7190;0.4271;-0.4623;-0.3140
0001836254;5.6695;3.6368;3.0837;0.2273;-0.7184;-0.2935
0001836262;6.3039;3.4477;3.4860;0.2585;-0.7817;-0.2441
0001836273;7.4292;3.1795;3.5075;0.2282;-0.8844;-0.1318
0001836281;7.8099;3.3686;2.8635;0.0638;-0.9288;0.0298
0001836289;7.2784;3.5602;1.9920;-0.2302;-0.8809;0.2844
0001836300;6.6942;3.6272;1.0582;-0.6508;-0.8288;0.5252
0001836308;6.1148;3.6703;0.6225;-0.8583;-0.8062;0.6368
0001836319;5.1739;4.0630;-0.0694;-1.0499;-0.7557;0.8166
0001836327;4.6136;4.5729;-0.4932;-1.1744;-0.6944;0.9745
0001836338;4.8147;4.7716;-0.6225;-1.3476;-0.6319;1.1846
0001836346;4.8530;4.5274;-0.6440;-1.3732;-0.6126;1.2153
0001836354;5.0566;4.2641;-0.7542;-1.2870;-0.5945;1.1287
0001836365;5.4875;4.1492;-0.7422;-1.0589;-0.5654;0.8976
0001836373;6.1603;4.1899;-0.8332;-0.8544;-0.5526;0.7164
0001836384;6.8067;4.0630;-1.2067;-0.5016;-0.5403;0.4899
0001836392;6.9121;3.6057;-1.1708;-0.2242;-0.5630;0.3681
0001836403;6.9264;2.6145;-0.9529;0.1941;-0.6169;0.2698
0001836411;6.7157;1.9345;-0.5028;0.4242;-0.6570;0.2746
0001836422;6.1723;1.2139;0.3376;0.5686;-0.6864;0.3404
0001836430;5.6000;1.0846;1.1444;0.4719;-0.6514;0.4299
0001836438;5.0326;0.9673;1.7621;0.2438;-0.5942;0.4990
0001836449;4.5083;1.2522;2.1524;-0.2449;-0.4874;0.5654
0001836457;3.8738;1.5993;2.1189;-0.6217;-0.3697;0.5425
0001836511;2.5043;4.7812;2.0183;-0.3152;0.0572;-0.2717
0001836519;3.0981;4.7094;2.5881;-0.0095;0.0653;-0.2722
0001836530;4.0510;4.1946;2.8012;0.2818;0.0462;-0.2786
0001836538;4.8195;3.3902;2.6001;0.3443;0.0609;-0.2663
0001836546;5.5043;2.8898;2.4086;0.3541;0.0516;-0.2746
0001836557;5.9951;1.8052;2.1380;0.2878;0.0352;-0.2983
0001836565;6.5888;1.3144;1.7741;0.2350;0.0169;-0.3116
0001836576;6.8594;1.0798;1.6568;0.1657;-0.0410;-0.3148
0001836584;6.9839;0.8523;1.4222;0.1118;-0.0878;-0.3054
0001836595;7.2065;0.8715;1.5706;0.0550;-0.1388;-0.2627
0001836603;7.1228;1.0271;1.7765;0.0225;-0.1817;-0.2040
0001836614;6.6559;0.9720;1.9776;-0.0229;-0.2258;-0.1055
0001836622;6.5290;1.1013;2.1739;-0.0438;-0.2599;-0.0286
0001836630;6.3087;1.2905;2.2410;-0.0576;-0.2794;0.0420
0001836641;6.0382;1.4964;2.5474;-0.0618;-0.3071;0.1330
0001836649;6.1603;1.9513;2.6264;-0.0613;-0.3313;0.1815
0001836660;6.0789;2.0901;2.8084;-0.0465;-0.3551;0.2266
0001836668;5.9975;2.3056;2.8395;-0.0236;-0.3769;0.2457
0001836679;5.9376;2.6097;2.9209;0.0233;-0.4112;0.2392
0001836687;5.7054;2.7533;3.0167;0.0606;-0.4155;0.2316
0001836695;5.6312;2.8706;3.1125;0.1196;-0.4147;0.2070
0001836706;4.9775;2.9449;3.1532;0.2068;-0.3962;0.1721
0001836714;4.8147;3.0885;3.2729;0.2791;-0.3781;0.1356
0001836768;3.5865;2.1668;2.5594;0.5299;0.0281;0.0296
0001836776;3.3758;1.9441;2.4086;0.4658;0.0969;-0.0177
0001836787;3.3519;1.5658;2.2553;0.3277;0.1821;-0.0649
0001836795;3.8499;1.4341;1.8890;0.2257;0.2029;-0.0807
0001836803;4.3455;1.3408;1.6855;0.1029;0.2308;-0.0805
0001836814;5.0374;1.5778;1.5945;-0.0578;0.2579;-0.0460
0001836822;5.2625;1.6616;1.9297;-0.1749;0.3003;0.0003
0001836833;4.9297;2.1548;3.1771;-0.2789;0.3969;0.0825
0001836841;4.3934;2.7366;3.8714;-0.3110;0.4682;0.1580
0001836852;3.3854;3.4931;4.7884;-0.3889;0.5946;0.2399
0001836860;2.4205;4.1779;4.5274;-0.5008;0.6239;0.2112
0001836868;2.8754;5.8251;4.1827;-0.7528;0.5842;-0.0156
0001836879;4.5490;6.6942;3.5650;-1.1147;0.5616;-0.3786
0001836887;5.9520;6.6391;2.9473;-1.1498;0.4708;-0.5538
0001836898;7.3095;6.1842;2.3942;-0.9836;0.3148;-0.7298
0001836906;8.0828;5.7724;1.6568;-0.8330;0.1564;-0.8238
0001836917;8.7005;5.4396;1.2378;-0.6594;0.0132;-0.9742
0001836925;7.9296;4.4676;0.5411;-0.5089;-0.0445;-1.0320
0001836936;7.1778;3.4836;-0.1077;-0.2126;-0.1392;-0.9597
0001836944;6.4643;2.8874;0.0886;0.0129;-0.1552;-0.8094
0001836952;5.7748;2.5594;0.3065;0.1419;-0.1478;-0.6514
0001836963;5.0685;2.4493;0.1245;0.1568;-0.1510;-0.5100
0001836971;4.6711;2.3343;-0.4022;0.0983;-0.1487;-0.4815
0001837025;5.4085;1.6616;0.8595;0.5125;0.1857;-0.9896
0001837033;5.8969;1.7765;1.4485;0.5380;0.2010;-1.0613
0001837044;5.8538;1.9561;1.7717;0.4582;0.1559;-1.0620
0001837052;5.9304;2.4445;1.5610;0.3353;0.0520;-1.0006
0001837060;5.9209;2.9281;1.1205;0.1867;-0.1106;-0.8904
0001837071;6.5122;3.7541;0.5578;0.0180;-0.3511;-0.7027
0001837079;7.0629;4.4125;0.2993;-0.0334;-0.5119;-0.5393
0001837090;8.2097;5.5234;0.0120;0.0009;-0.7336;-0.3307
0001837098;9.1123;6.2728;-0.0072;0.1047;-0.8166;-0.1804
0001837109;9.7348;6.9623;0.5890;0.3352;-0.8276;-0.0269
0001837117;9.9000;6.7373;1.2067;0.5105;-0.7866;0.0165
0001837128;9.1363;5.5426;1.9561;0.7576;-0.6888;0.0151
0001837136;7.9847;4.2210;2.3008;0.8949;-0.6939;0.0362
0001837144;6.8402;2.9090;2.3056;0.9273;-0.7072;0.0786
0001837155;5.8993;1.5538;2.3918;0.8499;-0.7229;0.1406
0001837163;5.2553;0.8954;2.2362;0.7358;-0.7273;0.1936
0001837174;4.4053;-0.0120;2.0662;0.5137;-0.7141;0.2494
0001837182;3.7230;-0.3184;1.8603;0.3344;-0.7244;0.2655
0001837193;3.2226;-0.1724;1.7358;0.0749;-0.7079;0.2402
0001837201;3.0574;0.1413;1.7142;-0.0731;-0.6927;0.1932
0001837209;3.2058;0.6273;1.9034;-0.1631;-0.6419;0.1346
0001837220;3.3734;1.2186;2.2122;-0.1712;-0.5568;0.0238
0001837228;3.5913;1.7047;2.2960;-0.1324;-0.4930;-0.0517
0001837282;3.4860;2.7318;2.9904;0.3548;0.0689;-0.2495
0001837290;3.3615;2.5474;2.8850;0.4421;0.1763;-0.2272
0001837301;3.8499;2.3966;2.8802;0.5397;0.2976;-0.1988
0001837309;3.9600;2.0734;2.7342;0.5895;0.3732;-0.1777
0001837317;4.1731;1.9561;2.7581;0.6082;0.4271;-0.1561
0001837328;4.6807;1.7741;2.7701;0.5741;0.4895;-0.1190
0001837336;4.7022;1.4820;2.5187;0.5360;0.5065;-0.1081
0001837347;4.9680;1.1660;2.2075;0.4735;0.5063;-0.0858
0001837355;5.5522;1.3886;2.0303;0.4137;0.4846;-0.0576
0001837366;6.0214;1.4030;1.8986;0.3479;0.4243;-0.0417
0001837374;6.6080;1.6089;1.7885;0.2972;0.3765;-0.0261
0001837382;6.8402;1.7933;1.4246;0.2438;0.3248;-0.0224
0001837393;7.1443;2.0039;1.1085;0.1609;0.2439;-0.0293
0001837401;6.7708;2.0255;0.7925;0.0950;0.1861;-0.0437
0001837412;6.0549;1.8842;0.4669;0.0107;0.1199;-0.0526
0001837420;5.7245;1.8651;0.7709;-0.0397;0.0574;-0.0560
0001837431;5.9424;2.0087;2.3343;-0.1079;-0.0706;-0.0225
0001837439;6.4548;2.1787;3.6033;-0.1366;-0.1719;-0.0071
0001837450;7.5058;2.1715;4.5370;-0.1556;-0.3293;-0.0172
0001837458;8.5904;2.6097;4.7309;-0.2318;-0.4664;-0.0079
0001837466;9.5385;3.3016;3.8547;-0.4606;-0.5213;0.1023
0001837477;8.1523;4.0677;2.1165;-0.9455;-0.4471;0.3416
0001837485;7.1467;4.6519;1.3862;-1.3113;-0.4065;0.4574
0001837539;3.4596;6.9121;-0.3879;-1.6547;-0.0751;1.5023
0001837547;4.2545;6.2417;-0.1867;-1.1326;-0.0366;1.2481
0001837558;6.0789;5.5952;-0.1772;-0.3210;0.0394;0.7965
0001837566;7.3933;4.6639;0.1341;0.2172;0.0926;0.4898
0001837574;7.7931;3.5698;0.1604;0.6574;0.0971;0.2301
0001837585;7.2329;1.9968;0.2418;1.0281;0.0588;0.0640
0001837593;6.6679;1.2546;0.5387;1.1001;0.0324;0.0799
0001837604;5.6743;0.6201;1.4653;0.9585;0.0577;0.2137
0001837612;4.7309;0.3280;2.2553;0.6929;0.1073;0.3263
0001837623;3.9265;0.4956;2.8252;0.1038;0.2450;0.4583
0001837631;3.1627;0.6967;2.6408;-0.3579;0.3429;0.5389
0001837639;2.9544;1.1109;2.3559;-0.7623;0.4988;0.6046
0001837650;2.1524;1.8651;1.1588;-1.0806;0.6234;0.5883
0001837658;2.1213;2.7821;0.4645;-1.1363;0.6841;0.4843
0001837669;2.4038;3.7326;0.4238;-0.9884;0.7432;0.2844
0001837677;2.6384;4.3048;1.1277;-0.7544;0.7777;0.1479
0001837688;3.3639;4.6208;2.1237;-0.3493;0.8033;0.0226
0001837696;4.0270;4.6232;2.8347;-0.0721;0.8116;-0.0338
0001837704;4.6974;4.3359;3.2370;0.1180;0.8068;-0.0755
0001837715;5.6000;3.7852;3.2441;0.2482;0.7528;-0.1147
0001837723;6.1603;3.2537;2.9137;0.2543;0.6977;-0.1210
0001837734;7.0294;2.8491;2.5929;0.2242;0.5937;-0.1498
0001837742;7.4124;2.3272;2.4469;0.1923;0.5201;-0.1533
0001837796;6.5745;0.9122;2.0470;0.2032;0.1560;-0.0845
0001837804;6.2896;1.0367;2.1835;0.1635;0.1224;-0.0071
0001837812;5.7509;1.0918;2.4612;0.1050;0.0993;0.0791
0001837823;5.5737;1.2186;2.6264;0.0183;0.0665;0.1669
0001837831;5.8993;1.5610;2.5402;-0.0258;0.0474;0.2150
0001837842;5.7150;1.6161;2.5714;-0.0428;0.0260;0.2495
0001837850;6.0286;1.9800;2.6719;-0.0390;0.0076;0.2558
0001837861;6.1770;2.0734;2.7629;-0.0087;-0.0079;0.2603
0001837869;6.1818;2.0662;2.7940;0.0023;-0.0101;0.2566
0001837877;5.9448;2.2434;2.7031;0.0088;-0.0039;0.2566
0001837888;5.5833;2.4181;2.5522;0.0053;0.0019;0.2651
0001837896;5.3870;2.7270;2.4325;0.0151;0.0193;0.2834
0001837907;5.0661;2.7366;2.3703;0.0413;0.0589;0.3204
0001837915;4.8219;3.0119;2.4253;0.0814;0.1073;0.3416
0001837926;4.3838;3.0430;2.4205;0.1439;0.1795;0.3611
0001837934;4.0797;2.8898;2.3894;0.1951;0.2340;0.3600
0001837942;4.1803;2.9951;2.5379;0.2422;0.2900;0.3532
0001837953;4.0270;2.9425;2.4325;0.2911;0.3745;0.3375
0001837961;4.0342;2.7126;2.8228;0.3231;0.4431;0.3146
0001837972;4.1803;2.5570;2.8419;0.3355;0.5365;0.3090
0001837980;4.1994;2.2362;2.8778;0.3337;0.6037;0.3063
0001837991;4.1037;2.2362;3.0023;0.3212;0.6808;0.3028
0001837999;4.1587;2.1045;2.8467;0.3046;0.7205;0.3092
0001838007;4.1946;2.2673;2.7509;0.2840;0.7530;0.3116
0001838061;4.8866;3.6248;1.7478;0.4470;0.7630;0.4379
0001838069;5.1882;3.6200;1.9752;0.4738;0.7452;0.4513
0001838080;5.1595;3.4309;2.0949;0.5484;0.7252;0.4538
0001838088;5.4085;3.2633;2.1476;0.5915;0.7184;0.4654
0001838099;5.8155;3.0023;2.1476;0.6538;0.6999;0.4708
0001838107;5.7940;2.7940;2.3128;0.6706;0.7057;0.4644
0001838115;5.9185;2.5402;2.5666;0.6539;0.7346;0.4606
0001838126;6.0071;2.4445;2.6312;0.6312;0.7781;0.4362
0001838134;5.8634;2.2769;2.3990;0.6030;0.8047;0.4317
0001838145;5.4396;2.0087;2.0925;0.6023;0.8251;0.4102
0001838153;5.2002;2.1021;1.8052;0.5832;0.8440;0.4046
0001838161;5.3606;2.1691;1.5969;0.5534;0.8541;0.3872
0001838172;5.6264;2.0901;0.8308;0.4843;0.8371;0.3102
0001838180;5.7628;2.4780;0.1293;0.3757;0.7933;0.2346
0001838191;6.7301;3.2848;-1.0630;0.1416;0.7289;0.1015
0001838199;7.5202;3.8307;-1.9106;-0.0402;0.6281;0.0168
0001838210;8.5329;4.4748;-3.0311;-0.2479;0.4038;-0.0529
0001838218;9.5553;5.3151;-3.0335;-0.3348;0.2110;-0.0874
0001838226;10.4100;5.7197;-2.4134;-0.3744;0.1290;-0.1302
0001838237;10.6973;6.0861;-1.5514;-0.2938;0.0517;-0.2100
0001838245;10.1993;6.0262;-0.9984;-0.1419;0.0144;-0.2611
0001838256;8.9998;5.9113;-0.8308;0.0927;-0.0065;-0.2669
0001838264;8.0086;5.6719;-0.8739;0.2213;0.0148;-0.2081
0001838318;1.7837;4.6974;0.3998;0.0803;1.0519;0.3864
0001838326;0.9074;4.6974;0.6632;0.1022;1.2741;0.3997
0001838337;0.7159;4.7309;0.7326;0.2554;1.5464;0.4114
0001838345;1.4916;4.6615;0.5267;0.4671;1.7000;0.3870
0001838353;3.0143;4.2617;0.5291;0.7209;1.8579;0.3561
0001838364;5.2337;3.7373;0.3448;1.0202;2.0218;0.3127
0001838372;6.4643;3.1963;0.0766;1.1413;2.0833;0.2958
0001838383;8.0206;2.7725;-0.4214;1.1576;2.0564;0.3018
0001838391;9.3637;2.7150;-0.5722;1.0882;1.9882;0.3179
0001838402;10.3884;2.6001;-0.6752;0.8997;1.8698;0.3628
0001838410;10.7595;2.7342;-0.6057;0.7826;1.7833;0.3798
0001838418;10.9870;2.5666;-0.4262;0.7021;1.6935;0.3900
0001838429;11.1115;2.8922;-0.2969;0.6706;1.5122;0.3940
0001838437;10.9487;2.8419;-0.2777;0.6651;1.3757;0.4120
0001838448;10.6877;2.6959;-0.3112;0.7080;1.2327;0.4491
0001838456;10.4459;2.8395;-0.4214;0.7357;1.1330;0.4787
0001838467;9.8210;2.4373;-0.4429;0.7589;1.0119;0.5203
0001838475;9.4188;1.9393;-0.5794;0.7798;0.9233;0.5301
0001838483;8.8418;1.5682;-0.6321;0.8219;0.8585;0.5152
0001838494;8.4922;1.1444;-0.8906;0.8641;0.7967;0.4876
0001838502;8.2193;0.9361;-1.0989;0.8515;0.7797;0.4898
0001838556;6.8139;2.0614;-1.0056;0.3078;0.9513;0.4582
0001838564;6.6319;2.2601;-1.0247;0.2595;0.9928;0.4390
0001838575;6.6487;2.7222;-1.1444;0.2427;1.0607;0.4016
0001838583;6.2752;2.5953;-1.0965;0.2729;1.1029;0.3621
0001838591;6.4524;2.7581;-1.0439;0.3098;1.1299;0.3224
0001838602;6.4548;2.5379;-0.8308;0.3652;1.1594;0.2626
0001838610;6.7876;2.2793;-0.6584;0.3632;1.1916;0.2301
0001838621;7.2760;1.7741;-0.7829;0.2935;1.2323;0.2037
0001838629;7.6375;1.6999;-0.8667;0.1984;1.2428;0.1977
0001838640;7.8913;1.5682;-0.7566;0.0441;1.2247;0.1933
0001838648;8.5138;1.7980;-0.6823;-0.0504;1.1973;0.1829
0001838656;8.7293;1.8411;-0.5291;-0.0999;1.1517;0.1692
0001838667;9.4284;2.3942;-0.7254;-0.1520;1.0924;0.1585
0001838675;9.3901;2.5450;-0.7542;-0.1688;1.0452;0.1434
0001838686;9.6750;2.7988;-0.7494;-0.1748;0.9665;0.1170
0001838694;9.6654;3.0526;-0.9026;-0.1565;0.9036;0.0934
0001838705;9.7396;3.1699;-0.8859;-0.1338;0.8351;0.0610
0001838713;9.5577;3.2777;-0.8763;-0.1123;0.7983;0.0505
0001838724;9.5122;3.1651;-0.9888;-0.0765;0.7490;0.0272
0001838732;9.3422;3.2226;-0.8068;-0.0586;0.7328;0.0169
0001838740;9.2895;3.1292;-0.7254;-0.0494;0.7225;0.0072
0001838751;8.7867;2.8802;-0.7829;-0.0540;0.7220;0.0047
0001838759;8.6383;2.8946;-0.8643;-0.0556;0.7273;0.0004
0001838813;8.3318;2.4110;-0.3615;-0.0659;0.8517;0.0081
0001838821;8.5760;2.4493;-0.3448;-0.0663;0.8500;0.0056
0001838832;8.6072;2.0901;-0.3208;-0.0898;0.8434;0.0093
0001838840;9.0716;2.2458;-0.3280;-0.1156;0.8391;0.0109
0001838848;8.9447;2.0063;-0.4429;-0.1556;0.8339;0.0061
0001838859;9.0309;2.0423;-0.5770;-0.1929;0.8119;-0.0012
0001838867;9.1075;2.1955;-0.5100;-0.2234;0.8054;-0.0132
0001838878;8.9759;2.1739;-0.5076;-0.2579;0.7969;-0.0282
0001838886;8.8801;2.2913;-0.6847;-0.2733;0.7933;-0.0378
0001838897;8.4803;2.2817;-0.5842;-0.3046;0.8011;-0.0444
0001838905;8.3821;2.4014;-0.5626;-0.3098;0.8079;-0.0550
0001838916;8.2073;2.4493;-0.3472;-0.3138;0.8287;-0.0642
0001838924;8.1427;2.5043;-0.4094;-0.3027;0.8500;-0.0713
0001838932;8.1810;2.6767;-0.3208;-0.3008;0.8753;-0.0815
0001838943;8.3582;2.7078;-0.4262;-0.2994;0.9042;-0.0955
0001838951;8.3653;2.7557;-0.4405;-0.2960;0.9254;-0.1019
0001838962;8.5234;2.6360;-0.2801;-0.2916;0.9527;-0.1111
0001838970;8.6167;2.7461;-0.3065;-0.3020;0.9691;-0.1061
0001838981;8.6622;2.7629;-0.1700;-0.2915;0.9910;-0.1079
0001838989;8.9471;2.8084;-0.0599;-0.2900;1.0022;-0.1090
0001839000;9.1961;2.7940;-0.0431;-0.2711;1.0131;-0.1136
0001839008;8.8705;2.6336;0.0144;-0.2566;1.0218;-0.1298
0001839016;8.8107;2.5762;0.1077;-0.2376;1.0247;-0.1482
0001839070;8.1547;2.0063;0.6393;-0.3222;1.0793;-0.3483
0001839078;8.1642;2.1332;0.6129;-0.3435;1.0760;-0.3671
0001839089;8.3414;2.3056;0.6009;-0.3632;1.0623;-0.3944
0001839097;8.5928;2.2817;0.6273;-0.3788;1.0435;-0.4108
0001839108;8.7197;2.4014;0.5148;-0.3961;1.0413;-0.4297
0001839116;8.9926;2.5546;0.7087;-0.3992;1.0307;-0.4421
0001839127;9.1028;2.4660;0.6847;-0.3966;1.0040;-0.4731
0001839135;9.2656;2.5091;0.9002;-0.3924;0.9934;-0.4982
0001839143;9.7205;2.7078;1.0271;-0.3769;0.9737;-0.5144
0001839154;9.8761;2.4565;1.2570;-0.3513;0.9441;-0.5204
0001839162;10.1394;2.4205;1.2282;-0.3106;0.9050;-0.5239
0001839173;10.4100;2.1261;1.2546;-0.2739;0.8267;-0.5236
0001839181;10.6326;2.3056;1.1420;-0.2742;0.7797;-0.5247
0001839192;10.8457;2.0470;1.2115;-0.2911;0.7132;-0.5180
0001839200;10.9822;2.0423;1.3384;-0.3171;0.6582;-0.5277
0001839211;11.0564;1.8986;1.4102;-0.3549;0.6215;-0.5349
0001839219;10.9295;1.8866;1.4413;-0.3826;0.5990;-0.5586
0001839227;10.6231;1.8938;1.5323;-0.4002;0.5897;-0.5742
0001839238;10.1801;1.7071;1.5036;-0.4046;0.5714;-0.6118
0001839246;9.8952;1.7957;1.6017;-0.4004;0.5530;-0.6320
0001839257;8.9687;1.6472;2.0351;-0.3789;0.5196;-0.6654
0001839265;8.8753;1.8603;2.2817;-0.4089;0.4768;-0.6380
0001839319;6.9791;5.2768;2.3032;-1.3463;0.1351;0.0250
0001839327;6.6679;7.0413;1.7813;-1.7556;0.1260;0.4114
0001839335;5.3989;7.9152;0.6847;-2.1357;0.2738;0.7997
0001839346;4.5993;8.4443;0.2179;-2.2445;0.8464;1.0776
0001839354;4.2353;8.0804;1.6688;-1.8772;1.2335;0.9705
0001839365;3.9792;7.5800;3.8499;-1.0288;1.6896;0.6250
0001839373;3.7900;6.9695;4.5897;-0.3219;1.9252;0.3973
0001839384;3.6583;5.5043;3.6152;0.5355;2.0877;0.1957
0001839392;3.5937;4.6328;2.8730;0.8895;2.1314;0.1187
0001839400;2.9951;3.4907;2.2673;1.0591;2.1340;0.1114
0001839411;1.8651;2.4828;1.5203;1.0042;2.1316;0.1839
0001839419;1.4030;2.0494;1.1372;0.8099;2.1605;0.2918
0001839430;0.2969;1.5490;0.8284;0.4465;2.1607;0.3986
0001839438;-0.0024;1.3479;0.9337;0.1251;2.2689;0.4430
0001839449;-0.2658;1.4078;1.8699;-0.2872;2.3098;0.4102
0001839457;0.3735;1.6448;2.9377;-0.5401;2.3204;0.3027
0001839465;1.3982;2.5115;3.1364;-0.7777;2.3824;0.1895
0001839476;2.3750;4.0869;2.0470;-1.1363;2.4495;0.1296
0001839485;2.7940;4.9273;1.3216;-1.2922;2.4833;0.1633
0001839498;3.4500;5.6383;1.3671;-1.1474;2.4746;0.2657
0001839507;3.4596;5.3846;1.8268;-0.7818;2.4323;0.3084
0001839519;3.9289;5.0254;2.4253;-0.0886;2.3863;0.2773
0001839528;4.0701;4.4987;2.8539;0.3861;2.3659;0.2154
0001839537;3.7038;3.5841;2.6863;0.6785;2.3399;0.1623
0001839591;4.2329;-0.4693;2.3679;0.3696;2.5151;0.1764
0001839600;4.6735;-0.4597;2.2673;0.2477;2.5182;0.2714
0001839612;5.0350;-0.7159;2.0542;0.1085;2.5431;0.4054
0001839621;5.2960;-0.3208;2.0662;0.0205;2.5552;0.5239
0001839633;5.4468;-0.1652;2.0446;-0.0514;2.5847;0.6841
0001839642;5.5402;0.3783;2.0279;-0.0801;2.6097;0.7939
0001839651;5.3870;0.8236;2.2793;-0.1066;2.6179;0.8824
0001839663;5.2074;1.2474;2.3511;-0.1502;2.5995;0.9614
0001839672;5.1858;1.8914;2.5187;-0.1897;2.5855;0.9951
0001839684;5.2289;2.4828;2.7222;-0.2463;2.5846;1.0028
0001839693;5.0637;2.7629;2.9257;-0.2635;2.5842;0.9886
0001839705;4.9368;3.0718;3.2968;-0.2609;2.5858;0.9481
0001839714;5.1906;3.4477;3.6847;-0.2292;2.5880;0.9184
0001839723;5.1236;3.4093;3.8211;-0.1540;2.5810;0.8907
0001839737;5.3486;3.6296;3.8116;-0.0167;2.5917;0.8509
0001839746;5.3870;3.3447;3.9600;0.0694;2.5967;0.8078
0001839758;5.5545;3.1460;3.8547;0.1625;2.5973;0.7334
0001839767;5.6096;3.1556;3.7302;0.1931;2.6128;0.6768
0001839778;5.7700;3.0143;3.5051;0.2008;2.6183;0.6127
0001839787;5.7054;2.9544;3.4548;0.1825;2.6183;0.5761
0001839796;5.9711;3.1149;3.3064;0.1518;2.6049;0.5474
0001839850;7.1587;3.3974;2.3272;0.0845;2.3186;0.4826
0001839859;7.2449;3.5171;2.2003;0.1235;2.2619;0.4911
0001839870;7.2951;3.6057;2.3320;0.2017;2.1845;0.4835
0001839879;7.2927;3.3854;2.5426;0.2557;2.1193;0.4868
0001839891;7.5513;3.2920;2.6288;0.3467;2.0279;0.4859
0001839900;7.7381;2.8754;2.6121;0.3864;1.9638;0.4750
0001839909;7.7261;2.6719;2.6456;0.4129;1.8997;0.4525
0001839920;7.2616;2.2266;2.8635;0.4387;1.8329;0.4385
0001839929;7.2401;2.0853;3.0454;0.4711;1.7845;0.4295
0001839941;7.0773;1.5299;3.4381;0.5213;1.7104;0.4367
0001839950;7.1970;1.3671;3.6081;0.5199;1.6558;0.4606
0001839959;7.1611;1.1660;3.4548;0.4794;1.5909;0.4587
0001839970;7.0294;0.6393;3.2968;0.3565;1.5003;0.4499
0001839979;7.0749;0.4238;3.3543;0.1915;1.4249;0.4363
0001839991;7.1539;0.3855;3.0742;-0.0481;1.3086;0.4013
0001840000;7.1347;0.4334;2.6863;-0.2241;1.2043;0.3730
0001840011;7.1491;1.1061;2.2601;-0.4237;1.0885;0.3444
0001840020;7.2185;1.7047;2.0686;-0.5565;1.0174;0.3036
0001840029;7.0916;2.4756;1.9872;-0.6359;0.9487;0.2610
0001840041;7.1682;3.6990;2.2003;-0.6554;0.9068;0.2188
0001840050;7.1443;4.6424;2.6264;-0.5712;0.9029;0.2253
0001840061;6.6679;5.0805;3.1556;-0.3752;0.9366;0.2739
0001840070;5.8562;5.2481;3.5051;-0.1748;0.9418;0.3148
0001840125;5.9304;4.9129;1.0127;-0.4584;0.7225;-0.6475
0001840134;4.7405;5.2601;0.0694;-0.4450;0.7021;-0.6191
0001840145;2.8204;4.9799;-1.2665;-0.5083;0.7597;-0.5602
0001840154;1.6233;4.2808;-1.7190;-0.4088;0.8623;-0.3969
0001840163;0.7470;3.8595;-1.9297;-0.1760;1.0249;-0.1887
0001840175;1.4174;3.3255;-1.7573;0.1322;1.2979;-0.0052
0001840184;2.5139;2.8539;-0.8308;0.3894;1.5152;-0.0141
0001840195;3.8211;1.7214;-0.1269;0.6650;1.6782;-0.1248
0001840204;5.2457;1.3647;0.3496;0.7878;1.7352;-0.2126
0001840216;6.5027;0.8380;1.0151;0.7286;1.6605;-0.2738
0001840225;7.2856;0.8356;1.3072;0.5219;1.5436;-0.2614
0001840234;7.9320;0.7446;1.5155;0.2304;1.3646;-0.2008
0001840245;8.5904;1.1612;1.7861;-0.1467;1.1654;-0.1142
0001840254;8.8346;1.6041;1.0080;-0.3639;1.0237;-0.0236
0001840266;8.9639;2.2075;0.7685;-0.4726;0.9573;0.0746
0001840275;9.1051;2.8443;0.7494;-0.4478;0.8988;0.1351
0001840286;8.8035;3.5171;0.9026;-0.3741;0.8331;0.2149
0001840295;8.3055;3.3303;0.9649;-0.2956;0.7593;0.2414
0001840304;7.6998;3.1388;0.8763;-0.2208;0.6780;0.2718
0001840316;7.3191;3.0622;0.6823;-0.1885;0.5660;0.2747
0001840325;6.7684;2.6384;0.6321;-0.1953;0.5137;0.2469
0001840336;6.0813;2.4588;0.9050;-0.1797;0.4678;0.1928
0001840345;5.4923;2.3415;0.9792;-0.1503;0.4591;0.1506
0001840397;4.7022;1.5706;2.0375;0.2489;0.7510;-0.0278
0001840406;5.1284;1.5107;1.8890;0.1998;0.8098;-0.0425
0001840415;5.2768;1.1253;1.5921;0.1203;0.8326;-0.0448
0001840426;6.0071;1.1684;1.5299;0.0169;0.8335;-0.0482
0001840435;6.4093;1.3575;1.6113;-0.0509;0.8110;-0.0733
0001840447;6.9887;1.8579;1.7789;-0.1311;0.7542;-0.1055
0001840456;7.2568;2.1045;1.9249;-0.1789;0.6996;-0.1238
0001840467;7.5274;2.7797;1.9920;-0.1872;0.6279;-0.1475
0001840476;7.6782;3.2154;2.0279;-0.1677;0.5584;-0.1743
0001840488;7.7452;3.5362;2.0806;-0.0806;0.4771;-0.1923
0001840497;7.8961;3.6296;2.2146;0.0217;0.4157;-0.2113
0001840506;7.9440;3.5721;2.2338;0.1274;0.3801;-0.2226
0001840517;8.0421;3.6775;2.3559;0.2618;0.3359;-0.2582
0001840526;7.7931;3.3782;2.5762;0.3890;0.2951;-0.2911
0001840538;7.5322;3.0694;2.8132;0.5227;0.2269;-0.3171
0001840547;7.3430;3.0550;2.9616;0.5757;0.1426;-0.3312
0001840558;7.2808;3.0694;2.9951;0.5970;0.0197;-0.3439
0001840567;7.1275;3.1388;2.6791;0.5672;-0.0918;-0.3399
0001840576;7.3909;3.2585;2.1859;0.5129;-0.1611;-0.3561
0001840588;6.9145;3.1316;1.5610;0.4241;-0.2278;-0.3905
0001840597;6.3398;3.0382;1.1684;0.3187;-0.2362;-0.4195
0001840608;5.5522;2.5043;0.6967;0.1800;-0.2129;-0.4219
0001840617;5.1116;2.2027;1.2713;0.0530;-0.2419;-0.3496
0001840671;8.8514;5.0829;0.1413;-1.4202;-0.6881;0.8164
0001840680;7.4340;5.4851;-0.1317;-1.7822;-0.6538;0.9659
0001840689;5.6336;5.4396;-0.7638;-2.0022;-0.5145;1.1566
0001840700;3.8762;5.3391;-1.5347;-1.9765;-0.3609;1.3118
0001840709;3.6966;5.6264;-1.2450;-1.8337;-0.3497;1.3756
0001840721;3.7613;5.6431;-1.0415;-1.4851;-0.3601;1.2596
0001840730;4.0701;5.5186;-0.9361;-1.0704;-0.3463;1.0596
0001840741;4.7980;4.9584;-0.3424;-0.4389;-0.2984;0.7938
0001840750;5.6527;4.1228;0.3926;0.0458;-0.3115;0.6215
0001840762;6.4260;3.1029;0.7518;0.5646;-0.3058;0.4298
0001840771;6.1148;2.6743;0.6321;0.6759;-0.2813;0.3595
0001840780;5.6455;2.4421;0.6416;0.5244;-0.2176;0.3368
0001840791;4.8530;1.9273;0.8116;0.1905;-0.1085;0.3195
0001840800;4.3311;2.0111;1.0798;-0.0877;0.0179;0.2992
0001840812;3.5195;1.9369;0.9912;-0.3748;0.2340;0.2939
0001840821;2.5522;2.2314;0.9936;-0.5051;0.3656;0.2887
0001840832;1.9345;2.5714;0.5124;-0.5512;0.5435;0.2646
0001840841;1.5754;2.8874;0.1508;-0.4575;0.6598;0.1998
0001840850;1.6161;3.0526;0.2514;-0.3124;0.7518;0.1231
0001840862;1.8507;3.1268;0.3280;-0.0879;0.8908;0.0313
0001840871;2.2649;2.8515;0.9744;0.0249;0.9761;-0.0013
0001840882;2.9209;2.2170;1.6616;0.1156;1.0337;-0.0131
0001840891;3.9025;2.0183;2.0231;0.1151;1.0866;-0.0039
0001840946;8.1139;2.2027;1.9369;-0.2393;0.9771;0.2142
0001840955;8.0469;2.2410;1.9896;-0.1643;0.8884;0.1832
0001840964;7.9679;2.3104;2.0207;-0.0632;0.8118;0.1564
0001840975;7.4292;2.1237;2.0111;0.0598;0.7322;0.1347
0001840984;7.1323;2.1213;2.0566;0.1191;0.6844;0.1406
0001840996;6.6774;1.9058;2.1691;0.1371;0.6514;0.1893
0001841005;6.4524;1.9130;2.3008;0.1303;0.6344;0.2277
0001841016;6.2369;1.8531;2.4900;0.1146;0.6199;0.2803
0001841025;6.1842;1.9776;2.6719;0.1191;0.6054;0.3321
0001841034;6.3351;2.0662;2.6671;0.1324;0.5853;0.3832
0001841046;6.4189;2.2505;2.9616;0.1899;0.5502;0.4226
0001841055;6.5218;2.3535;2.6025;0.2184;0.5284;0.4507
0001841066;6.5721;2.5283;2.5546;0.2646;0.5077;0.4632
0001841075;6.4524;2.5474;2.4876;0.2910;0.5037;0.4627
0001841087;5.9113;2.3966;2.7150;0.3272;0.5140;0.4506
0001841096;5.7221;2.5450;2.7007;0.3393;0.5409;0.4251
0001841105;5.3391;2.4134;2.6791;0.3332;0.5774;0.3854
0001841116;4.6902;2.5283;2.7007;0.2658;0.6328;0.3196
0001841125;4.2162;2.5402;2.6480;0.1852;0.6683;0.2392
0001841138;4.1013;2.4972;2.5498;0.0529;0.6624;0.2082
0001841147;4.5945;2.6983;2.4469;0.0171;0.6382;0.2388
0001841156;5.0350;2.7797;2.3224;0.0031;0.6370;0.2686
0001841210;5.4277;4.0749;4.3742;0.0285;0.7937;0.3031
0001841219;4.6807;3.8954;4.0462;0.0152;0.7985;0.2216
0001841230;5.3582;4.8578;3.2178;-0.3107;0.7358;-0.1278
0001841239;6.2153;4.6759;2.3487;-0.6655;0.6387;-0.5521
0001841251;7.5226;4.0677;1.7142;-0.8416;0.4727;-0.9298
0001841260;7.3239;3.9648;1.2689;-0.9074;0.3536;-1.1171
0001841269;7.4986;4.5657;0.9888;-1.0124;0.2280;-1.2839
0001841280;6.9384;4.7884;0.1437;-1.1314;0.0994;-1.4242
0001841289;5.9328;4.4173;-0.6057;-1.0718;0.0513;-1.3840
0001841301;5.1380;3.9552;-0.8116;-0.6467;0.0695;-1.0652
0001841310;3.9672;3.5769;-0.3879;-0.2294;0.1629;-0.7233
0001841321;2.6911;3.5578;-0.9816;0.1364;0.3425;-0.3942
0001841330;2.7845;3.3710;-1.1301;0.2825;0.4592;-0.2840
0001841342;3.3040;2.6217;-1.2067;0.4203;0.6143;-0.3175
0001841351;4.5657;2.1548;-0.5722;0.5384;0.6901;-0.4186
0001841360;5.6695;1.9441;0.0431;0.6257;0.6564;-0.5151
0001841371;7.0868;2.0590;1.2522;0.5930;0.5297;-0.5785
0001841380;8.1570;2.3774;1.7119;0.4298;0.3448;-0.5774
0001841392;9.2656;2.5881;1.7119;0.0957;0.1139;-0.4862
0001841401;9.4810;2.7725;1.6544;-0.0793;-0.0573;-0.3810
0001841412;9.4212;3.1556;0.9816;-0.1739;-0.2084;-0.2264
0001841421;9.0836;3.7278;0.7350;-0.1520;-0.3320;-0.1178
0001841476;7.7428;3.7086;1.5036;0.7080;-0.8458;-0.0063
0001841485;7.0940;3.1340;1.4676;0.6889;-0.8567;-0.0128
0001841494;6.3949;2.6001;1.5155;0.6249;-0.8123;-0.0005
0001841505;5.2481;1.7119;1.5874;0.5454;-0.7598;0.0044
0001841514;4.4245;1.3623;1.5921;0.4607;-0.7065;0.0333
0001841526;3.9911;1.1636;1.5706;0.3559;-0.6439;0.0787
0001841535;3.6703;0.9242;1.7047;0.2847;-0.6079;0.0989
0001841546;3.6081;0.8092;1.7286;0.1901;-0.5368;0.1074
0001841555;3.7828;0.7925;1.8124;0.1435;-0.4915;0.0806
0001841564;4.3144;0.8523;2.0470;0.0910;-0.4458;0.0337
0001841576;4.7190;1.1660;2.2098;0.0401;-0.3896;-0.0364
0001841585;5.0733;1.6951;2.3463;0.0278;-0.3705;-0.0778
0001841596;4.9871;1.9082;2.3583;0.0093;-0.3269;-0.1049
0001841605;5.1571;2.2386;2.3822;0.0354;-0.2967;-0.1280
0001841617;5.1020;2.6504;2.5283;0.1134;-0.2389;-0.1460
0001841626;4.9895;2.6671;2.7438;0.2000;-0.1948;-0.1541
0001841635;5.1188;2.5331;3.0167;0.3055;-0.1518;-0.1692
0001841646;5.2241;2.4421;3.0909;0.4227;-0.1054;-0.1897
0001841655;5.5019;2.3200;2.9688;0.4842;-0.0636;-0.1977
0001841667;5.7557;2.1237;2.8754;0.5277;-0.0336;-0.2341
0001841676;5.9424;1.8100;2.8036;0.5253;-0.0264;-0.2501
0001841687;6.2776;1.7621;2.7749;0.5089;-0.0225;-0.2715
0001841696;6.2632;1.4341;2.6408;0.4834;-0.0418;-0.2586
0001841751;6.4308;2.1524;0.7973;-0.2455;-0.2082;-0.0196
0001841760;6.3470;2.5642;1.2426;-0.4044;-0.2609;-0.0115
0001841769;6.5290;2.8276;2.8754;-0.4523;-0.3922;-0.0176
0001841780;7.5944;3.5937;4.1300;-0.3653;-0.5736;-0.0556
0001841789;8.7724;4.4460;3.9624;-0.3199;-0.7554;-0.0426
0001841801;8.7077;6.8953;2.4229;-0.6261;-0.7718;0.3309
0001841810;7.6950;7.7093;1.4868;-1.0313;-0.6769;0.6820
0001841821;5.6479;7.0916;0.9098;-1.4095;-0.5874;1.0000
0001841830;4.6136;6.5266;0.2897;-1.5410;-0.4339;1.1871
0001841839;4.0318;6.1651;-0.5578;-1.5997;-0.3620;1.3897
0001841851;4.8961;5.9352;-0.9481;-1.5984;-0.4041;1.5519
0001841860;5.1715;5.4564;-1.0630;-1.4361;-0.4125;1.4882
0001841871;5.8012;5.2050;-0.9457;-1.0712;-0.4860;1.2526
0001841880;6.6559;4.9081;-0.7542;-0.7309;-0.5549;1.0114
0001841892;7.2089;4.1204;-0.0431;-0.2228;-0.6488;0.6831
0001841901;7.5992;3.1149;0.3998;0.2113;-0.6939;0.4466
0001841912;7.2736;2.1284;0.5004;0.6213;-0.7434;0.2406
0001841921;6.3805;1.4748;0.5219;0.7230;-0.7220;0.1829
0001841930;5.4779;1.4509;0.8835;0.5724;-0.6643;0.1669
0001841942;4.5035;1.4605;1.5419;0.1247;-0.5157;0.1737
0001841951;3.5698;1.4174;2.0494;-0.2579;-0.4017;0.2101
0001841962;2.6911;1.8627;1.9872;-0.6367;-0.2633;0.2826
0001841971;1.9178;2.4636;1.7430;-0.7967;-0.1399;0.3128
0001842026;3.0837;3.5219;1.6305;0.2150;0.4486;-0.1386
0001842035;3.7493;3.2513;2.0087;0.3028;0.4926;-0.1300
0001842044;4.4149;2.9449;2.2458;0.3336;0.5327;-0.1015
0001842055;5.2625;2.4014;2.4541;0.3164;0.5252;-0.0655
0001842064;5.9472;2.0016;2.4756;0.2526;0.5104;-0.0328
0001842076;6.7732;1.6328;2.5690;0.1367;0.4561;-0.0392
0001842085;7.3191;1.5251;2.4828;0.0645;0.4094;-0.0549
0001842096;7.8266;1.3743;2.3391;-0.0052;0.3099;-0.0823
0001842105;7.9080;1.4102;2.2338;-0.0410;0.2288;-0.0911
0001842117;7.8817;1.2163;2.1045;-0.0224;0.1104;-0.1102
0001842126;7.6064;1.0702;2.3822;-0.0165;0.0424;-0.0974
0001842135;7.3885;1.0487;2.4948;-0.0023;-0.0337;-0.0731
0001842146;7.1347;1.2857;2.6001;-0.0282;-0.0870;-0.0433
0001842155;6.7636;1.3647;2.7701;-0.0517;-0.1356;-0.0116
0001842167;6.5529;1.5586;3.0837;-0.0743;-0.1824;0.0401
0001842176;6.3279;1.7382;3.0430;-0.0572;-0.2033;0.0897
0001842187;5.8921;1.8555;3.2777;0.0349;-0.2374;0.1371
0001842196;6.1627;2.0279;3.3902;0.1046;-0.2517;0.1677
0001842205;5.8706;2.1835;3.4261;0.1809;-0.2737;0.1801
0001842217;5.4660;1.9561;3.3878;0.2557;-0.2878;0.1966
0001842226;5.3415;2.0351;3.3423;0.2878;-0.2972;0.2054
0001842237;5.3654;1.9297;3.1532;0.3034;-0.2939;0.2256
0001842246;5.3367;2.0375;2.8850;0.3139;-0.2886;0.2349
0001842300;5.7676;2.3583;1.3719;0.0699;-0.0462;0.0602
0001842309;6.1723;2.4038;1.6305;0.0164;0.0048;0.0823
0001842318;6.1794;2.3248;2.4804;-0.0328;0.0843;0.1147
0001842329;5.1332;2.4660;4.0941;-0.1184;0.2046;0.1597
0001842338;4.2306;2.7797;4.9584;-0.2045;0.3222;0.2044
0001842350;2.0159;3.3327;5.8251;-0.3986;0.5000;0.1817
0001842359;0.4525;4.1970;4.9153;-0.7052;0.5782;0.0516
0001842370;1.9609;6.3782;3.6368;-1.2472;0.4854;-0.4275
0001842379;3.5075;6.4141;2.1931;-1.4986;0.3738;-0.7232
0001842388;4.9177;6.4141;1.6520;-1.5132;0.2883;-0.9483
0001842400;7.1108;6.6750;0.6847;-1.3923;0.0332;-1.2934
0001842409;8.5521;6.6128;0.0982;-1.2223;-0.1287;-1.5549
0001842420;9.0046;5.8802;-0.6704;-0.8769;-0.2238;-1.5800
0001842429;8.6862;4.9632;-1.0127;-0.4159;-0.3134;-1.3869
0001842441;7.9559;3.7709;0.3065;0.2194;-0.2248;-0.9478
0001842450;5.8562;2.6217;0.4214;0.5501;-0.1629;-0.6246
0001842461;4.3072;1.9178;-0.0359;0.6623;-0.1935;-0.4499
0001842470;3.7709;1.2234;-0.7590;0.6243;-0.1639;-0.4559
0001842479;3.9385;0.8092;-0.7853;0.5292;-0.0982;-0.5420
0001842492;5.3917;0.9050;0.0766;0.4065;-0.0695;-0.7635
0001842501;5.8395;1.3982;1.1109;0.3648;-0.1672;-0.9245
0001842513;7.3047;2.6552;1.9058;0.2241;-0.4417;-1.0269
0001842522;7.8338;2.9736;2.1620;0.1086;-0.6660;-1.0212
0001842577;8.9783;5.2481;0.9074;0.2341;-1.3603;-0.2409
0001842586;8.8011;5.4420;1.3671;0.3977;-1.4681;-0.2499
0001842598;7.9464;5.2720;1.8890;0.6278;-1.5893;-0.3075
0001842607;7.3885;4.9105;2.1907;0.7600;-1.6020;-0.3087
0001842616;6.8043;4.2928;2.3200;0.8270;-1.5697;-0.2892
0001842627;6.1363;3.1603;2.3559;0.8391;-1.5122;-0.2066
0001842636;5.4157;2.3008;2.4612;0.7911;-1.4602;-0.1203
0001842648;4.9153;1.1684;2.3176;0.6787;-1.4015;-0.0161
0001842657;4.8435;0.8859;2.2577;0.5796;-1.3717;0.0340
0001842668;4.3694;0.2729;2.3032;0.4218;-1.3544;0.0522
0001842677;4.4053;0.4118;2.2505;0.3127;-1.3384;0.0159
0001842686;4.3574;0.7015;2.3535;0.2109;-1.3287;-0.0582
0001842698;4.3814;1.0654;2.7078;0.1402;-1.2975;-0.2072
0001842707;4.4365;1.4653;2.8299;0.1275;-1.2574;-0.3164
0001842718;4.3790;1.9010;2.9425;0.1532;-1.1783;-0.4120
0001842727;4.3167;2.3152;3.1077;0.1985;-1.1097;-0.4728
0001842739;4.1611;2.6193;2.9329;0.2876;-0.9884;-0.5349
0001842748;4.0366;2.7078;2.8922;0.3625;-0.8905;-0.5540
0001842759;3.8427;2.6624;2.8204;0.4479;-0.7773;-0.5680
0001842768;3.8930;2.6384;2.6504;0.5141;-0.6949;-0.5685
0001842777;4.2066;2.6336;2.7031;0.5828;-0.6305;-0.5626
0001842789;4.3096;2.5738;2.4948;0.6659;-0.5520;-0.5437
0001842798;4.4484;2.6767;2.4062;0.7125;-0.5255;-0.5372
0001842852;5.7557;1.5826;1.0032;0.5878;-0.4261;-0.3527
0001842861;5.8203;1.5850;1.3431;0.4323;-0.4578;-0.2794
0001842873;5.9544;1.5634;0.5938;0.2014;-0.4370;-0.1803
0001842882;5.6647;1.3384;-0.2322;0.0843;-0.3818;-0.1785
0001842891;5.5019;1.4126;0.2753;0.0273;-0.4134;-0.2201
0001842902;5.7988;1.6568;2.2649;0.0513;-0.5231;-0.2386
0001842911;6.5386;2.1284;3.4165;0.0897;-0.6355;-0.2445
0001842923;7.7189;2.7174;3.8068;0.1522;-0.8166;-0.2591
0001842931;8.6455;3.2537;3.4764;0.1755;-0.9411;-0.2797
0001842941;9.6271;3.6895;2.9568;0.1155;-1.0668;-0.2887
0001842949;9.5002;3.5985;2.4636;0.0336;-1.1250;-0.2986
0001842960;7.7883;2.9568;2.0039;-0.0097;-1.1238;-0.3329
0001842968;6.9288;2.4660;2.2051;0.0264;-1.2041;-0.3683
0001842976;6.5314;1.9968;2.4373;0.0710;-1.2357;-0.3440
0001842986;5.7844;1.8364;2.3679;0.0330;-1.2312;-0.2073
