time;acc_x;acc_y;acc_z;gyro_x;gyro_y;gyro_z
0000440975;4.6759;2.4014;3.1220;-0.0185;-0.0605;-0.0220
0000440983;4.5203;2.3727;3.1484;-0.0185;-0.0561;-0.0135
0000440990;4.7645;2.5426;3.0742;-0.0221;-0.0492;-0.0120
0000440998;4.6136;2.3990;3.1508;-0.0213;-0.0482;-0.0191
0000441007;4.8459;2.5019;3.1460;-0.0234;-0.0457;-0.0175
0000441015;4.8052;2.4900;3.0933;-0.0248;-0.0420;-0.0180
0000441027;4.7429;2.5450;3.0670;-0.0265;-0.0313;-0.0129
0000441035;4.7357;2.4995;3.2082;-0.0256;-0.0290;-0.0128
0000441043;4.7214;2.4157;3.1316;-0.0224;-0.0292;-0.0157
0000441054;4.7932;2.5402;3.2010;-0.0278;-0.0181;-0.0132
0000441062;4.7764;2.5187;3.1699;-0.0241;-0.0136;-0.0100
0000441130;4.7166;2.3511;3.1819;-0.0274;0.0029;-0.0024
0000441138;4.6448;2.2960;3.2226;-0.0230;0.0029;-0.0035
0000441149;4.7118;2.4708;3.1651;-0.0195;0.0103;0.0016
0000441157;4.5849;2.1332;3.2130;-0.0172;0.0096;-0.0005
0000441165;4.6687;2.3750;3.1987;-0.0177;0.0121;-0.0016
0000441177;4.5753;2.3727;3.1771;-0.0236;0.0216;0.0023
0000441185;4.6448;2.4157;3.0981;-0.0199;0.0211;-0.0044
0000441196;4.6974;2.4804;3.1723;-0.0220;0.0285;0.0024
0000441204;4.8267;2.3894;3.2633;-0.0185;0.0289;0.0021
0000441216;4.5610;2.3272;3.2010;-0.0171;0.0392;0.0091
0000441224;4.6783;2.4253;3.2154;-0.0135;0.0417;0.0068
0000441235;4.6591;2.3535;3.1675;-0.0151;0.0504;0.0119
0000441243;4.6424;2.3727;3.1316;-0.0132;0.0466;0.0081
0000441251;4.7453;2.5163;3.1388;-0.0221;0.0606;0.0135
0000441263;4.8123;2.4756;3.1723;-0.0225;0.0616;0.0069
0000441271;4.7285;2.4636;3.1244;-0.0260;0.0642;0.0108
0000441282;4.5107;2.2817;3.1603;-0.0237;0.0674;0.0147
0000441290;4.5801;2.4397;3.1699;-0.0193;0.0654;0.0123
0000441302;4.5250;2.2984;3.2034;-0.0157;0.0661;0.0133
0000441310;4.5394;2.2601;3.0670;-0.0147;0.0671;0.0107
0000441318;4.4556;2.3224;3.0574;-0.0137;0.0665;0.0132
0000441329;4.5610;2.1404;3.2154;-0.0085;0.0654;0.0108
0000441337;4.5729;2.4565;3.0598;-0.0112;0.0710;0.0191
0000441405;4.4700;2.3487;3.1029;0.0281;0.0484;0.0258
0000441413;4.5538;2.3822;3.0813;0.0325;0.0494;0.0294
0000441424;4.5849;2.3559;3.1196;0.0433;0.0440;0.0246
0000441432;4.6400;2.5187;3.0694;0.0433;0.0516;0.0241
0000441440;4.6208;2.4349;2.9975;0.0461;0.0508;0.0167
0000441452;4.5945;2.4708;2.9736;0.0409;0.0604;0.0201
0000441460;4.6519;2.4636;2.9113;0.0417;0.0624;0.0107
0000441471;4.6184;2.4325;2.9473;0.0302;0.0783;0.0203
0000441479;4.7046;2.4708;2.9688;0.0336;0.0741;0.0095
0000441487;4.6807;2.4086;2.9281;0.0317;0.0838;0.0160
0000441499;4.6807;2.3008;2.9951;0.0309;0.0927;0.0139
0000441507;4.6471;2.2553;3.0191;0.0320;0.1027;0.0101
0000441518;4.8123;2.6073;2.9425;0.0290;0.1127;0.0068
0000441526;4.7716;2.5307;2.9592;0.0225;0.1151;0.0040
0000441538;4.6591;2.4804;3.0382;0.0192;0.1210;0.0009
0000441546;4.8554;2.5977;3.0358;0.0160;0.1250;0.0079
0000441554;4.6855;2.6001;3.0646;0.0103;0.1218;0.0021
0000441565;4.5777;2.5618;3.0694;0.0032;0.1279;0.0175
0000441573;4.5897;2.5666;3.0885;-0.0012;0.1223;0.0100
0000441585;4.6974;2.6528;2.9688;-0.0059;0.1196;0.0173
0000441593;4.6663;2.5977;3.0335;-0.0061;0.1134;0.0127
0000441604;4.8267;2.6695;3.1795;-0.0136;0.1183;0.0233
0000441612;4.8530;2.5474;3.0694;-0.0207;0.1176;0.0257
0000441620;4.6926;2.5762;3.0430;-0.0139;0.1131;0.0240
0000441688;4.7118;2.5786;2.9640;-0.0292;0.1466;0.0537
0000441696;4.5873;2.5977;2.9401;-0.0417;0.1491;0.0629
0000441707;4.6256;2.6767;2.9209;-0.0509;0.1379;0.0620
0000441715;4.6855;2.7509;2.9736;-0.0657;0.1448;0.0698
0000441727;4.7262;2.7031;2.9497;-0.0802;0.1392;0.0666
0000441735;4.3766;2.4397;3.0167;-0.0786;0.1330;0.0625
0000441743;4.6232;2.5283;2.9449;-0.0811;0.1294;0.0638
0000441754;4.4796;2.4588;2.9568;-0.0865;0.1242;0.0646
0000441762;4.5059;2.4756;2.9233;-0.0925;0.1242;0.0677
0000441774;4.5394;2.4325;2.8587;-0.0975;0.1150;0.0577
0000441782;4.5610;2.5498;2.9377;-0.0909;0.1067;0.0609
0000441793;4.4484;2.3008;2.9736;-0.0994;0.1031;0.0568
0000441801;4.6304;2.4972;2.9137;-0.1003;0.1062;0.0564
0000441809;4.4652;2.4684;2.9640;-0.0959;0.0961;0.0542
0000441821;4.4580;2.4948;3.0454;-0.0950;0.0846;0.0544
0000441829;4.5753;2.5881;3.0765;-0.0813;0.0783;0.0478
0000441840;4.4412;2.3296;3.1053;-0.0770;0.0669;0.0492
0000441848;4.4341;2.4708;3.0909;-0.0719;0.0734;0.0549
0000441860;4.6160;2.3559;3.1388;-0.0681;0.0654;0.0458
0000441868;4.4772;2.4325;3.0095;-0.0693;0.0625;0.0462
0000441876;4.5538;2.4181;3.1244;-0.0645;0.0578;0.0406
0000441888;4.7357;2.6288;3.0861;-0.0629;0.0498;0.0345
0000441896;4.5442;2.3487;3.0981;-0.0629;0.0530;0.0368
0000441964;4.6663;2.5355;2.8922;-0.0754;0.0211;0.0237
0000441972;4.6735;2.4684;2.9281;-0.0782;0.0248;0.0246
0000441983;4.3814;2.3008;2.9568;-0.0842;0.0149;0.0280
0000441991;4.5035;2.4708;2.9329;-0.0861;0.0027;0.0215
0000441999;4.6376;2.3559;3.0933;-0.0862;0.0016;0.0199
0000442011;4.4269;2.4134;2.9473;-0.0809;-0.0131;0.0317
0000442019;4.5969;2.5283;3.0646;-0.0958;-0.0137;0.0444
0000442030;4.6471;2.4421;3.0550;-0.0919;-0.0221;0.0394
0000442038;4.5897;2.3463;3.2298;-0.0782;-0.0258;0.0350
0000442050;4.5729;2.3966;3.1053;-0.0532;-0.0337;0.0064
0000442058;4.4173;2.3559;3.0909;-0.0482;-0.0352;0.0092
0000442069;4.6256;2.4948;3.1029;-0.0437;-0.0418;0.0067
0000442077;4.7309;2.5379;3.0694;-0.0489;-0.0457;0.0052
0000442085;4.8411;2.5953;3.1292;-0.0541;-0.0440;0.0081
0000442097;4.6639;2.4565;3.0598;-0.0683;-0.0426;0.0105
0000442105;4.7956;2.4062;3.1484;-0.0702;-0.0356;0.0039
0000442116;4.9153;2.4636;3.0765;-0.0729;-0.0325;0.0041
0000442124;4.8267;2.3798;3.1508;-0.0713;-0.0302;-0.0001
0000442136;4.7908;2.3535;3.1699;-0.0545;-0.0288;-0.0067
0000442144;4.7357;2.2936;3.2585;-0.0458;-0.0225;-0.0052
0000442152;4.9464;2.3607;3.2034;-0.0400;-0.0163;0.0005
0000442163;4.5849;2.2601;3.1627;-0.0226;-0.0215;-0.0083
0000442171;4.7262;2.5043;3.0885;-0.0262;-0.0195;-0.0137
0000442239;4.4317;2.4038;3.0598;-0.0133;-0.0865;-0.0233
0000442247;4.5490;2.3296;3.1939;-0.0175;-0.0879;-0.0212
0000442258;4.5226;2.3367;3.2058;-0.0252;-0.0985;-0.0184
0000442266;4.6400;2.3822;3.1939;-0.0220;-0.1053;-0.0262
0000442278;4.7621;2.3607;3.2681;-0.0208;-0.1098;-0.0226
0000442286;4.8339;2.3870;3.1843;-0.0191;-0.1124;-0.0250
0000442294;4.8339;2.4636;3.1412;-0.0204;-0.1110;-0.0189
0000442305;4.7477;2.5402;3.1149;-0.0238;-0.1199;-0.0222
0000442313;4.6424;2.4636;3.1244;-0.0306;-0.1287;-0.0253
0000442325;4.5514;2.3990;3.1460;-0.0366;-0.1304;-0.0284
0000442333;4.7214;2.4086;3.2154;-0.0338;-0.1370;-0.0340
0000442344;4.6232;2.3248;3.2848;-0.0304;-0.1299;-0.0305
0000442352;4.8291;2.3176;3.3208;-0.0183;-0.1362;-0.0361
0000442364;4.8698;2.3703;3.2417;-0.0133;-0.1319;-0.0301
0000442372;5.0518;2.4517;3.3399;-0.0071;-0.1274;-0.0302
0000442380;4.8746;2.3367;3.2968;-0.0064;-0.1290;-0.0340
0000442392;4.7692;2.3870;3.2346;-0.0123;-0.1207;-0.0382
0000442400;4.9153;2.4277;3.2489;-0.0164;-0.1122;-0.0261
0000442411;4.9153;2.4373;3.2537;-0.0171;-0.1071;-0.0381
0000442419;4.8961;2.4852;3.2609;-0.0261;-0.0961;-0.0309
0000442431;4.7262;2.3248;3.2825;-0.0274;-0.0889;-0.0317
0000442439;4.8794;2.5139;3.2537;-0.0326;-0.0781;-0.0248
0000442506;4.8028;2.4253;3.2920;-0.0172;-0.0714;-0.0228
0000442514;4.6807;2.4972;3.3495;-0.0234;-0.0675;-0.0148
0000442522;4.7716;2.4421;3.2250;-0.0216;-0.0725;-0.0196
0000442534;4.7716;2.4373;3.3064;-0.0213;-0.0715;-0.0272
0000442542;4.9225;2.4397;3.2777;-0.0293;-0.0725;-0.0265
0000442553;4.8076;2.4708;3.1891;-0.0321;-0.0677;-0.0192
0000442561;4.6184;2.3200;3.2633;-0.0293;-0.0713;-0.0274
0000442573;4.6878;2.2458;3.2106;-0.0313;-0.0741;-0.0249
0000442581;4.5011;2.1979;3.2920;-0.0208;-0.0814;-0.0286
0000442592;4.7764;2.5067;3.2992;-0.0240;-0.0797;-0.0205
0000442600;4.6878;2.3750;3.2082;-0.0216;-0.0821;-0.0220
0000442608;4.6950;2.4541;3.2920;-0.0249;-0.0870;-0.0278
0000442620;4.5610;2.3679;3.2489;-0.0322;-0.0914;-0.0242
0000442628;4.4628;2.3463;3.2920;-0.0330;-0.1015;-0.0338
0000442639;4.6184;2.3679;3.2896;-0.0382;-0.1011;-0.0242
0000442647;4.7166;2.3343;3.2633;-0.0377;-0.1055;-0.0244
0000442659;4.7549;2.3942;3.3064;-0.0304;-0.1081;-0.0297
0000442667;4.8052;2.3894;3.3255;-0.0330;-0.1018;-0.0273
0000442678;4.8554;2.3439;3.3232;-0.0298;-0.0978;-0.0213
0000442686;4.8315;2.3870;3.3710;-0.0274;-0.0993;-0.0252
0000442694;4.7070;2.3200;3.2777;-0.0258;-0.0939;-0.0205
0000442706;4.7980;2.3320;3.3255;-0.0281;-0.0879;-0.0163
0000442714;4.8674;2.3367;3.2944;-0.0253;-0.0803;-0.0143
0000442781;4.7022;2.4253;3.3303;-0.0249;-0.0405;-0.0032
0000442789;4.6543;2.3343;3.2561;-0.0325;-0.0308;0.0067
0000442801;4.5753;2.2913;3.2489;-0.0389;-0.0296;0.0107
0000442809;4.8315;2.3918;3.3160;-0.0434;-0.0265;0.0145
0000442820;4.7597;2.3343;3.3591;-0.0417;-0.0264;0.0087
0000442828;4.7621;2.3966;3.3495;-0.0453;-0.0282;0.0096
0000442836;4.7764;2.2458;3.2872;-0.0428;-0.0236;0.0149
0000442848;4.8339;2.3583;3.4237;-0.0438;-0.0195;0.0131
0000442856;4.8147;2.4014;3.2513;-0.0504;-0.0120;0.0173
0000442867;4.7549;2.3607;3.2250;-0.0517;-0.0087;0.0165
0000442875;4.8435;2.4110;3.2394;-0.0545;-0.0092;0.0121
0000442887;4.6136;2.2434;3.2657;-0.0602;-0.0077;0.0153
0000442895;4.8937;2.2936;3.3591;-0.0678;0.0012;0.0191
0000442906;4.7980;2.4110;3.3830;-0.0701;0.0001;0.0176
0000442914;4.7836;2.3870;3.3662;-0.0644;-0.0116;0.0120
0000442922;4.6687;2.3655;3.3710;-0.0661;-0.0109;0.0160
0000442934;4.6855;2.4014;3.3327;-0.0644;-0.0216;0.0149
0000442942;4.5586;2.2649;3.2465;-0.0678;-0.0213;0.0168
0000442953;4.7238;2.3152;3.3830;-0.0666;-0.0296;0.0107
0000442961;4.6448;2.2482;3.3591;-0.0669;-0.0250;0.0120
0000442973;4.8411;2.3343;3.4381;-0.0541;-0.0232;0.0096
0000442981;4.7046;2.3894;3.3734;-0.0454;-0.0250;0.0041
0000442989;4.8890;2.3343;3.4165;-0.0484;-0.0140;0.0056
0000443056;4.7501;2.2769;3.3974;-0.0578;-0.0153;0.0000
0000443064;4.8435;2.3750;3.4165;-0.0576;-0.0132;0.0069
0000443076;4.9488;2.3918;3.3495;-0.0553;-0.0232;0.0056
0000443084;4.8315;2.3104;3.4357;-0.0497;-0.0238;0.0065
0000443095;4.7238;2.3248;3.3902;-0.0452;-0.0245;0.0003
0000443103;4.7669;2.3439;3.3926;-0.0498;-0.0245;0.0056
0000443115;4.9177;2.3032;3.4237;-0.0494;-0.0248;-0.0015
0000443123;4.9057;2.2051;3.4117;-0.0497;-0.0151;0.0003
0000443131;4.9728;2.4205;3.4333;-0.0480;-0.0192;-0.0037
0000443142;4.8722;2.3176;3.4141;-0.0493;-0.0151;-0.0084
0000443150;4.9225;2.4157;3.3710;-0.0440;-0.0188;-0.0129
0000443162;4.9560;2.4493;3.4165;-0.0452;-0.0143;-0.0116
0000443170;4.9919;2.4565;3.3399;-0.0384;-0.0215;-0.0173
0000443181;5.0350;2.4493;3.4309;-0.0458;-0.0196;-0.0151
0000443189;4.7573;2.3487;3.3208;-0.0550;-0.0121;-0.0101
0000443201;4.9560;2.5833;3.3758;-0.0670;-0.0156;-0.0113
0000443209;4.8602;2.3320;3.4596;-0.0702;-0.0234;-0.0121
0000443217;4.7094;2.2936;3.3806;-0.0687;-0.0204;-0.0104
0000443228;4.7956;2.3703;3.5003;-0.0737;-0.0272;-0.0083
0000443236;4.8219;2.3104;3.4046;-0.0670;-0.0261;-0.0004
0000443248;4.8411;2.2577;3.4500;-0.0617;-0.0308;0.0047
0000443256;4.7669;2.3343;3.4046;-0.0581;-0.0313;0.0024
0000443323;4.5921;2.2242;3.4189;-0.0699;-0.0488;-0.0059
0000443331;4.5633;2.1476;3.4931;-0.0715;-0.0505;0.0011
0000443339;4.6735;2.1380;3.5889;-0.0663;-0.0510;0.0012
0000443351;4.4700;2.0782;3.4237;-0.0530;-0.0644;-0.0037
0000443359;4.5298;2.3320;3.4213;-0.0576;-0.0655;-0.0024
0000443370;4.6902;2.3463;3.5099;-0.0616;-0.0798;-0.0087
0000443378;4.6256;2.4277;3.4141;-0.0674;-0.0778;-0.0100
0000443390;4.5945;2.1763;3.4907;-0.0722;-0.0845;-0.0097
0000443398;4.5825;2.2386;3.4405;-0.0710;-0.0934;-0.0163
0000443409;4.8483;2.5450;3.4046;-0.0721;-0.0914;-0.0156
0000443417;4.9273;2.3080;3.4668;-0.0750;-0.0862;-0.0141
0000443425;4.9009;2.3176;3.4141;-0.0747;-0.0829;-0.0096
0000443437;4.8530;2.2218;3.4644;-0.0757;-0.0687;-0.0075
0000443445;5.0374;2.5091;3.3423;-0.0763;-0.0690;-0.0061
0000443456;5.0494;2.4277;3.4357;-0.0734;-0.0554;0.0051
0000443464;4.9057;2.3272;3.3974;-0.0730;-0.0474;0.0076
0000443476;4.9249;2.3655;3.4477;-0.0682;-0.0346;0.0177
0000443484;4.8219;2.3846;3.4524;-0.0717;-0.0310;0.0157
0000443495;4.9871;2.4325;3.4884;-0.0886;-0.0213;0.0209
0000443503;4.8291;2.3224;3.4453;-0.0890;-0.0159;0.0249
0000443511;5.0470;2.5187;3.4836;-0.0934;-0.0067;0.0317
0000443523;4.8387;2.3296;3.4572;-0.0963;0.0055;0.0362
0000443531;4.9297;2.3152;3.4860;-0.0925;0.0097;0.0390
0000443598;4.8507;2.2122;3.5841;-0.0990;-0.0172;0.0457
0000443606;4.9919;2.4134;3.5171;-0.0857;-0.0185;0.0481
0000443618;4.8674;2.2769;3.4117;-0.0761;-0.0129;0.0508
0000443626;4.7884;2.2170;3.3950;-0.0750;-0.0136;0.0476
0000443637;4.8483;2.2889;3.4572;-0.0761;-0.0084;0.0474
0000443645;4.8147;2.3631;3.4788;-0.0853;0.0004;0.0552
0000443653;4.8123;2.5211;3.3926;-0.0959;-0.0029;0.0494
0000443665;4.8076;2.5235;3.4812;-0.1147;-0.0015;0.0533
0000443673;4.7932;2.4684;3.3543;-0.1255;0.0024;0.0624
0000443684;4.6878;2.3679;3.4381;-0.1406;0.0041;0.0670
0000443692;4.9105;2.5043;3.3830;-0.1390;0.0088;0.0815
0000443704;4.5370;2.2936;3.4022;-0.1370;0.0143;0.0937
0000443712;4.6783;2.3727;3.4165;-0.1238;0.0153;0.1027
0000443720;4.8028;2.3990;3.4333;-0.1186;0.0289;0.1164
0000443731;4.9416;2.3942;3.4477;-0.1026;0.0317;0.1256
0000443739;4.9177;2.4325;3.4931;-0.1013;0.0462;0.1404
0000443751;4.9201;2.5690;3.3830;-0.0953;0.0699;0.1556
0000443759;5.0709;2.6767;3.4357;-0.0982;0.0813;0.1601
0000443771;4.9536;2.6264;3.2274;-0.1148;0.1067;0.1657
0000443779;5.1427;2.8683;3.1580;-0.1294;0.1283;0.1720
0000443787;5.1906;2.8156;3.1819;-0.1428;0.1487;0.1621
0000443851;4.4796;2.3056;3.2322;-0.0770;0.1955;0.1191
0000443859;4.2952;2.4038;3.3998;-0.0685;0.1993;0.1247
0000443871;4.2401;2.6312;3.3064;-0.0695;0.1880;0.1410
0000443879;4.0486;2.6480;3.3639;-0.0762;0.1771;0.1498
0000443890;4.2186;2.8467;3.4333;-0.0893;0.1479;0.1616
0000443898;4.2473;2.8467;3.2441;-0.1066;0.1203;0.1752
0000443906;4.3239;2.6456;3.3950;-0.1275;0.0905;0.1840
0000443918;4.2473;2.3463;3.5362;-0.1632;0.0436;0.1984
0000443926;4.2808;1.8100;3.4620;-0.1745;0.0115;0.2102
0000443937;4.3359;1.3264;3.3782;-0.1557;-0.0284;0.2220
0000443945;4.4317;0.9146;3.5147;-0.1302;-0.0593;0.2362
0000443957;4.4197;0.5435;3.7397;-0.1045;-0.1134;0.2842
0000443965;4.7525;0.6033;4.2162;-0.0947;-0.1435;0.3325
0000443973;5.0446;0.9553;4.5298;-0.0925;-0.1748;0.3924
0000443984;6.0956;1.5754;4.9775;-0.1208;-0.1725;0.4820
0000443992;6.6918;1.8699;5.0159;-0.1847;-0.1639;0.5209
0000444004;7.7668;2.7294;3.4285;-0.4112;-0.1296;0.6014
0000444012;8.2552;2.6815;1.9992;-0.6587;-0.0966;0.6700
0000444023;9.1937;1.5682;1.2378;-1.0560;-0.0232;0.7226
0000444031;9.5481;0.1556;1.5323;-1.2700;0.0222;0.6977
0000444043;9.0501;-1.9489;1.6352;-1.4564;0.0855;0.5891
0000444051;8.7197;-2.9090;2.0518;-1.4853;0.1123;0.4703
0000444059;8.1020;-3.6392;1.8890;-1.4132;0.1207;0.2894
0000444126;3.7014;-3.7038;-1.9609;-0.8815;0.8252;-0.5193
0000444134;2.9018;-2.8323;-1.2163;-0.8239;0.8355;-0.2166
0000444146;2.6504;-1.3024;2.7031;-0.3167;0.7615;0.2082
0000444154;2.6240;-0.3974;5.0661;0.1693;0.6311;0.4029
0000444165;2.8850;0.2825;3.9433;0.5648;0.4840;0.5403
0000444173;3.0813;0.2921;0.5818;0.5277;0.3893;0.5395
0000444181;3.3974;0.4405;-2.5546;0.2903;0.3170;0.5191
0000444193;3.9744;0.6823;-4.6543;-0.1919;0.2561;0.4971
0000444201;4.5993;0.7230;-4.3120;-0.5161;0.2855;0.4639
0000444212;5.8203;0.2490;-1.6664;-0.8824;0.3818;0.2944
0000444220;6.2896;-0.2155;0.1700;-1.0237;0.4281;0.1091
0000444232;5.8826;0.1460;1.4437;-0.9907;0.4862;-0.0922
0000444240;5.3989;0.6680;1.7214;-0.7666;0.5060;-0.1298
0000444248;5.1715;1.2234;2.2913;-0.4623;0.4991;-0.1066
0000444259;5.1547;2.6240;3.4309;0.0107;0.4994;-0.0774
0000444267;4.8602;3.9576;4.0510;0.2503;0.4847;-0.0481
0000444279;3.8068;5.4755;4.0127;0.3485;0.4309;-0.0200
0000444287;2.2410;6.5505;3.4429;0.4016;0.4555;0.0140
0000444298;1.2953;7.8219;1.9154;0.5626;0.5385;0.0450
0000444306;0.7087;8.3079;1.1708;0.6694;0.5628;0.0256
0000444314;0.5578;8.5066;0.8021;0.6707;0.5343;0.0076
0000444326;0.7638;7.9727;1.6520;0.5348;0.3496;-0.0781
0000444334;0.5578;7.1635;2.0087;0.4106;0.1939;-0.1668
0000444401;3.8762;7.0557;3.0526;0.4166;-0.3621;-0.0846
0000444409;4.9129;7.4915;3.8786;0.5534;-0.2694;0.0376
0000444421;5.5785;8.0373;4.8746;0.5215;-0.1624;0.1220
0000444429;5.8993;8.3438;4.7597;0.2745;-0.1676;0.1488
0000444437;6.4596;8.0852;5.0757;-0.0990;-0.1916;0.1136
0000444448;6.9001;6.5649;4.5131;-0.6876;-0.1840;-0.0791
0000444456;6.4763;5.2433;3.9744;-1.1807;-0.1258;-0.2124
0000444468;5.2696;3.6296;3.7038;-1.8818;-0.0031;-0.2847
0000444476;4.3144;2.5307;3.5626;-2.1498;0.0590;-0.2050
0000444487;3.2346;0.7111;3.6272;-2.2464;0.1202;0.0939
0000444495;2.9305;-0.6871;3.9121;-2.1971;0.1352;0.3447
0000444507;3.1891;-2.6384;4.0175;-2.0388;0.1368;0.6299
0000444515;3.7206;-3.2465;3.6631;-1.9268;0.0284;0.7021
0000444523;4.0773;-4.1635;3.0358;-1.8251;-0.1559;0.7230
0000444534;4.8387;-4.7692;2.3511;-1.7100;-0.4999;0.6861
0000444542;5.5210;-5.0949;1.8244;-1.6739;-0.7349;0.6269
0000444554;5.9496;-5.6575;1.9010;-1.7706;-1.0716;0.4899
0000444562;5.9735;-6.0190;3.7493;-2.1130;-1.3173;0.3728
0000444573;5.9089;-6.3782;14.8608;-3.6886;-1.7942;0.1755
0000444581;5.4971;-5.6527;36.6624;-4.3657;-2.5961;-0.1264
0000444593;-7.1180;-0.7326;62.0888;-4.3657;-3.1031;-0.4811
0000444601;-6.1531;-0.3041;51.6764;-4.3657;-2.9878;-0.4699
0000444668;8.1020;6.4763;-1.6281;0.1170;-1.3837;2.7126
0000444676;9.3709;7.6591;-4.4412;-1.1674;-1.3010;3.1752
0000444684;11.4179;9.1099;-4.8770;-2.4003;-1.1659;3.3104
0000444696;12.9407;10.4866;-1.0918;-3.7459;-1.0076;2.8867
0000444704;11.7843;10.0940;1.9656;-4.2378;-0.8877;2.2347
0000444715;6.8570;8.6072;3.5602;-4.3657;-0.6632;1.2388
0000444723;5.3247;7.9942;4.8195;-4.2791;-0.5730;0.7685
0000444735;3.1316;6.3614;2.3822;-3.8832;-0.7914;0.6114
0000444743;3.1508;5.7844;-0.1245;-3.5313;-0.9117;0.6969
0000444754;4.2521;6.3949;-3.5386;-3.2318;-0.9268;0.9042
0000444762;4.5490;6.3446;-3.7972;-3.2387;-0.8784;1.0813
0000444770;4.8770;5.4277;-3.2513;-3.3257;-0.8791;1.1882
0000444782;5.3678;3.3423;-2.2984;-3.4558;-0.7911;1.2641
0000444790;5.2577;1.6089;-2.1644;-3.4952;-0.7286;1.2564
0000444801;6.0406;-0.5100;-2.7078;-3.6131;-0.6102;1.2425
0000444809;6.2632;-1.8842;-2.9856;-3.7335;-0.5152;1.2549
0000444821;6.4500;-4.0749;-2.8491;-3.8542;-0.4698;1.3594
0000444829;6.5194;-4.9440;-2.5570;-3.9297;-0.5404;1.4397
0000444840;6.4620;-5.6743;-1.6305;-3.8445;-0.6728;1.4715
0000444848;6.4045;-5.8419;-0.9697;-3.6369;-0.7095;1.4529
0000444856;6.5649;-6.1004;-0.7973;-3.3813;-0.6901;1.4150
0000444868;6.7660;-6.3351;-0.4621;-2.9673;-0.6731;1.3118
0000444876;6.6391;-6.6200;-0.3112;-2.7324;-0.6646;1.2288
0000444943;23.1639;-53.8695;30.5907;-2.3767;-0.1549;0.3200
0000444951;26.6690;-55.7514;17.0324;-3.0028;0.1768;-0.3929
0000444963;21.1288;-36.1477;-5.4277;-4.3657;1.6158;-0.9379
0000444971;17.0898;-27.9212;-6.3590;-4.3657;2.1850;-0.9918
0000444982;13.0819;-21.5215;-2.5259;-4.3657;2.8094;-0.6808
0000444990;12.2823;-18.0307;1.0080;-4.3657;3.0166;-0.4839
0000445002;11.8250;-12.6701;3.7685;-3.4639;2.6179;-0.5397
0000445010;9.5624;-9.6630;4.1899;-1.3652;2.4588;-0.3537
0000445021;7.5178;-9.9934;4.1707;1.7596;2.7833;0.7802
0000445029;8.2672;-13.8385;3.0598;3.1810;2.6272;1.3231
0000445037;7.9535;-16.6373;3.1149;3.9448;2.3906;1.7277
0000445049;7.0126;-19.1800;3.5698;4.3656;1.9817;2.1911
0000445057;6.7516;-19.3284;3.0047;4.3656;1.6750;2.4897
0000445068;8.2193;-16.7355;4.4245;4.3656;1.2712;2.7218
0000445076;8.0445;-16.1800;7.4627;4.3656;1.2215;2.7214
0000445088;8.3989;-17.5591;11.6550;4.3656;1.5799;2.6001
0000445096;8.9639;-16.2878;9.4260;4.3656;2.0983;2.3634
0000445104;9.1291;-14.8369;7.2688;4.3656;2.6029;1.9855
0000445116;8.1283;-10.6925;12.4163;4.3656;3.5903;1.0790
0000445124;8.0206;-1.8914;23.5422;2.8685;3.9207;0.1955
0000445136;-1.7190;4.3814;43.5218;-2.5887;2.5973;-0.6789
0000445144;-5.8490;-6.1052;41.6352;-3.6248;1.0552;-1.0143
0000445212;3.0215;-13.2112;3.5123;0.7973;-0.5686;0.8579
0000445220;3.9169;-11.4275;2.6025;0.7374;-0.3303;1.2549
0000445231;4.4843;-11.3174;3.0765;0.6738;-0.0815;1.6621
0000445239;3.4022;-13.1777;5.0589;0.7400;0.0762;1.9694
0000445247;3.2513;-16.2207;10.0341;1.0479;0.2411;2.2487
0000445259;5.7078;-20.3962;15.8783;1.9201;0.0878;2.1101
0000445267;7.5848;-17.8895;13.4626;2.1372;-0.2429;1.4631
0000445279;7.1754;-11.1474;8.9902;1.6066;-0.4624;0.3289
0000445287;6.9552;-7.5705;9.7731;0.8643;-0.1398;-0.3984
0000445299;7.1754;-4.2593;13.4602;-0.2479;0.6127;-1.4210
0000445307;7.0174;-3.9049;12.7659;-0.6358;0.7829;-1.6788
0000445319;5.6910;-4.1420;10.3789;-0.6773;0.6111;-1.5556
0000445327;5.5162;-4.5298;8.7436;-0.4572;0.3964;-1.3785
0000445339;5.4444;-5.0925;9.3996;-0.0981;-0.0100;-1.0685
0000445347;4.6855;-5.2720;9.9216;0.2639;-0.1884;-0.8599
0000445355;4.2018;-5.9352;10.1275;0.5782;-0.2802;-0.6174
0000445366;4.5370;-7.5848;11.4706;0.8286;-0.2725;-0.2795
0000445374;5.1427;-8.5856;11.9327;0.8989;-0.3242;-0.1043
0000445386;5.1236;-9.7779;10.9415;0.9569;-0.4679;0.0731
0000445394;4.8722;-10.0030;9.9623;0.9506;-0.5658;0.1565
0000445406;4.2353;-9.8043;8.5018;0.9094;-0.6356;0.2834
0000445414;4.0175;-8.9519;7.0150;0.8901;-0.6446;0.3700
0000445482;6.3279;-3.9816;10.4291;-0.2422;-0.8163;-0.4338
0000445490;6.5146;-3.9552;11.1618;-0.1953;-0.7957;-0.3476
0000445498;6.5960;-4.2784;12.2846;-0.0492;-0.7862;-0.2377
0000445509;7.2089;-5.0135;12.3349;0.2136;-0.7470;-0.1091
0000445517;7.6064;-5.4468;10.7476;0.3134;-0.6720;-0.0296
0000445529;8.1690;-5.8873;8.0254;0.2878;-0.5164;0.0532
0000445537;8.2049;-6.3805;6.7828;0.1916;-0.4262;0.0826
0000445548;8.1786;-7.2999;6.0525;-0.0005;-0.3560;0.1022
0000445556;8.1475;-8.1331;6.7325;-0.0923;-0.3535;0.0898
0000445568;7.5298;-9.5936;8.6239;-0.0028;-0.4371;0.0576
0000445576;6.8354;-10.0341;9.2033;0.1962;-0.5251;0.0330
0000445584;6.2632;-9.9742;9.3230;0.4105;-0.5901;0.0441
0000445595;6.0478;-9.5840;9.5624;0.6083;-0.6687;0.0810
0000445603;6.3686;-8.5808;10.0940;0.6522;-0.7025;0.1039
0000445615;7.2568;-6.5936;10.4794;0.4696;-0.7313;0.1596
0000445623;8.2193;-4.9943;10.6925;0.2762;-0.7079;0.1848
0000445634;8.9902;-3.7182;10.4052;0.1549;-0.6009;0.1384
0000445642;9.0932;-3.2848;9.5361;0.1569;-0.4783;0.0261
0000445654;8.9088;-3.4381;8.1762;0.1788;-0.2689;-0.1843
0000445662;8.4611;-4.2090;8.0876;0.1565;-0.1354;-0.3007
0000445670;8.1475;-4.7669;8.6000;0.1363;-0.0718;-0.3780
0000445682;7.0294;-6.1962;10.1059;0.1410;-0.0945;-0.4037
0000445690;6.3087;-7.1754;10.9343;0.1564;-0.1683;-0.3788
0000445758;8.6239;-5.5785;9.9695;0.0695;-0.4886;-0.2333
0000445766;8.8202;-5.4157;9.6822;0.1100;-0.4020;-0.2986
0000445778;8.7532;-5.4396;9.1913;0.1375;-0.2678;-0.3730
0000445786;8.4204;-5.6886;8.9854;0.1476;-0.2048;-0.4206
0000445798;8.0517;-6.2010;9.0836;0.1347;-0.1819;-0.4704
0000445806;8.0637;-6.3614;9.3111;0.1402;-0.1989;-0.4900
0000445817;7.6782;-6.4835;9.5696;0.1603;-0.2369;-0.4575
0000445825;7.5896;-6.4500;9.5337;0.1633;-0.2582;-0.4138
0000445833;7.4555;-6.4739;9.4523;0.1560;-0.2783;-0.3549
0000445845;7.6136;-6.3710;9.6367;0.1150;-0.3074;-0.2462
0000445853;7.7021;-6.2249;9.7971;0.0749;-0.3243;-0.1604
0000445864;7.9416;-6.1004;9.8641;0.0394;-0.3505;-0.0795
0000445872;8.2672;-5.9759;9.7540;0.0381;-0.3515;-0.0325
0000445884;8.5138;-5.8586;9.6702;0.0377;-0.3224;0.0028
0000445892;8.5329;-5.6814;9.4284;0.0353;-0.2844;0.0021
0000445900;8.6526;-5.7461;9.3853;0.0233;-0.2360;0.0003
0000445912;8.8705;-5.5258;9.1674;-0.0071;-0.1486;-0.0029
0000445920;8.9926;-5.4684;9.1243;-0.0257;-0.1043;-0.0032
0000445932;8.9495;-5.4923;8.9304;-0.0369;-0.0338;0.0167
0000445940;8.6814;-5.7030;8.8059;-0.0581;-0.0101;0.0238
0000445952;8.6550;-5.6934;8.6095;-0.1156;0.0310;0.0778
0000445960;8.6981;-5.7628;8.7053;-0.1572;0.0488;0.1063
0000446029;8.3031;-6.4548;9.6223;-0.1783;0.0589;0.1808
0000446038;8.4707;-6.4835;10.0054;-0.1387;0.0799;0.1467
0000446047;8.2073;-6.5745;9.9168;-0.0751;0.0886;0.1067
0000446060;7.8266;-6.5410;9.8043;0.0169;0.0895;0.0516
0000446069;8.0709;-6.2848;9.6031;0.0711;0.0821;0.0140
0000446082;7.9033;-6.0621;9.3446;0.1022;0.0875;-0.0149
0000446091;7.7213;-5.9568;9.3613;0.1023;0.0939;-0.0226
0000446104;7.7357;-5.7461;9.4092;0.0638;0.0917;-0.0341
0000446113;7.4388;-5.9280;9.3781;0.0308;0.0713;-0.0385
0000446126;7.3909;-5.9065;9.4403;-0.0168;0.0216;-0.0203
0000446135;7.4675;-6.0406;9.4092;-0.0386;-0.0364;-0.0059
0000446144;7.4316;-6.1507;9.2296;-0.0576;-0.0730;0.0117
0000446156;7.7189;-6.3015;9.2057;-0.0737;-0.1118;0.0325
0000446165;8.0828;-6.1842;9.2464;-0.0801;-0.1252;0.0422
0000446178;8.2648;-6.3853;9.2344;-0.0813;-0.1114;0.0490
0000446187;8.4874;-6.3446;9.3565;-0.0779;-0.0997;0.0402
0000446199;8.3773;-6.4332;9.3374;-0.0727;-0.0606;0.0298
0000446208;8.4396;-6.4859;9.4882;-0.0597;-0.0300;0.0241
0000446221;8.3390;-6.4667;9.5433;-0.0494;0.0044;0.0124
0000446230;8.3222;-6.4021;9.5600;-0.0280;0.0092;-0.0055
0000446239;7.8961;-6.5673;9.5936;-0.0107;0.0229;-0.0125
0000446252;7.7237;-6.4596;9.6606;0.0199;0.0108;-0.0211
0000446261;7.5393;-6.5601;9.6103;0.0316;-0.0117;-0.0159
0000446330;8.3007;-6.2728;9.4739;-0.0179;-0.1100;0.0164
0000446339;8.3366;-6.1339;9.3206;-0.0129;-0.0951;0.0143
0000446351;8.2049;-6.3446;9.2967;-0.0093;-0.0695;-0.0044
0000446360;8.1954;-6.2680;9.2296;-0.0159;-0.0430;-0.0003
0000446373;8.3151;-5.9783;9.4044;-0.0168;-0.0185;-0.0037
0000446382;8.1499;-6.1507;9.4451;-0.0112;-0.0108;-0.0067
0000446391;8.0852;-6.2034;9.4523;0.0007;-0.0121;-0.0212
0000446404;7.9990;-6.0190;9.3254;-0.0036;-0.0165;-0.0284
0000446413;7.9176;-6.0501;9.2632;-0.0160;-0.0147;-0.0248
0000446426;7.9511;-6.0286;9.1674;-0.0449;-0.0294;-0.0249
0000446435;7.9607;-6.0430;9.2177;-0.0637;-0.0404;-0.0234
0000446448;7.9918;-6.1890;9.3972;-0.0801;-0.0486;-0.0093
0000446457;8.1116;-6.1818;9.4164;-0.0937;-0.0496;0.0028
0000446470;8.0900;-6.2465;9.5002;-0.0878;-0.0521;0.0067
0000446479;8.1211;-6.3183;9.4691;-0.0759;-0.0529;0.0032
0000446492;8.2528;-6.4212;9.4954;-0.0596;-0.0436;0.0036
0000446501;8.0900;-6.5505;9.4547;-0.0480;-0.0400;-0.0003
0000446510;8.0828;-6.5529;9.4667;-0.0276;-0.0364;-0.0060
0000446523;8.0110;-6.4572;9.3494;-0.0148;-0.0286;-0.0147
0000446532;8.1738;-6.3734;9.4092;-0.0059;-0.0302;-0.0169
0000446548;8.1331;-6.2537;9.3877;-0.0139;-0.0245;-0.0153
0000446557;7.9775;-6.3183;9.5146;-0.0169;-0.0310;-0.0117
0000446626;8.0565;-6.3207;9.5170;-0.0260;-0.0565;-0.0011
0000446635;8.0421;-6.4500;9.5792;-0.0188;-0.0612;0.0021
0000446647;8.0158;-6.4332;9.3781;-0.0057;-0.0673;-0.0033
0000446656;8.0469;-6.3494;9.4236;-0.0123;-0.0629;-0.0007
0000446665;8.1594;-6.2920;9.4715;-0.0036;-0.0654;-0.0096
0000446678;8.2648;-6.1220;9.3901;-0.0029;-0.0568;-0.0072
0000446687;8.1523;-6.2632;9.4092;-0.0155;-0.0505;-0.0024
0000446699;8.2863;-6.0861;9.2847;-0.0232;-0.0434;-0.0045
0000446708;8.1092;-6.2393;9.3829;-0.0292;-0.0422;-0.0043
0000446721;8.0996;-6.2225;9.3948;-0.0354;-0.0352;-0.0017
0000446730;8.0661;-6.2872;9.3805;-0.0373;-0.0309;0.0019
0000446742;7.9487;-6.5266;9.4332;-0.0389;-0.0350;-0.0039
0000446751;8.1427;-6.3877;9.4260;-0.0304;-0.0344;-0.0085
0000446764;8.0110;-6.4596;9.4858;-0.0253;-0.0330;-0.0108
0000446773;7.7668;-6.4883;9.5792;-0.0246;-0.0277;-0.0056
0000446782;8.0230;-6.3710;9.5816;-0.0119;-0.0396;-0.0085
0000446794;7.8506;-6.4596;9.6462;0.0013;-0.0458;-0.0063
0000446803;7.9152;-6.4021;9.6678;0.0088;-0.0496;-0.0068
0000446872;8.1403;-6.1842;9.9910;0.0149;-0.0304;-0.0208
0000446881;8.1355;-6.2130;10.1131;0.0318;-0.0301;-0.0292
0000446893;8.0852;-6.0549;9.3398;0.0236;-0.0330;-0.0494
0000446902;8.2097;-5.8323;8.4491;-0.0361;-0.0308;-0.0509
0000446915;8.5018;-5.7916;8.0014;-0.1560;-0.0305;-0.0622
0000446924;8.7987;-5.7940;8.4755;-0.2618;-0.0036;-0.0633
0000446936;9.1722;-6.0382;9.5744;-0.3304;0.0244;-0.0749
0000446945;9.0764;-6.3279;9.9455;-0.3170;0.0397;-0.0717
0000446954;8.8873;-6.5410;10.0844;-0.2729;0.0693;-0.0634
0000446967;8.4922;-7.0413;9.8617;-0.1697;0.1482;-0.0290
0000446976;8.1307;-7.3861;9.5744;-0.0714;0.1992;-0.0161
0000446988;7.7740;-7.4244;9.4164;0.0412;0.2336;0.0237
0000446997;7.8817;-7.0270;9.4834;0.1132;0.2228;0.0364
0000447010;7.5202;-7.0892;9.6438;0.1739;0.1984;0.0486
0000447019;7.4292;-6.6774;9.6534;0.1888;0.1787;0.0366
0000447028;7.2257;-6.4835;9.6630;0.1925;0.1423;0.0049
0000447040;7.4484;-6.0190;9.2249;0.1717;0.0893;-0.0181
0000447049;7.2688;-6.0214;9.0477;0.1356;0.0526;-0.0080
0000447062;7.4364;-5.8275;9.0836;0.0520;0.0129;0.0152
0000447071;7.4388;-5.8179;9.1794;0.0001;-0.0020;0.0317
0000447083;7.6136;-5.8658;9.4308;-0.0498;-0.0088;0.0384
0000447092;7.6471;-6.0310;9.5984;-0.0655;-0.0119;0.0207
0000447161;7.8602;-6.2393;9.0453;-0.0276;0.0606;-0.0666
0000447170;7.6926;-6.0789;9.0118;-0.0528;0.0691;-0.0533
0000447179;7.5441;-6.2010;8.9471;-0.0782;0.0822;-0.0200
0000447191;7.2472;-6.3829;9.1267;-0.0802;0.0785;0.0112
0000447200;7.2927;-6.4308;9.2775;-0.0671;0.0644;0.0318
0000447213;7.4077;-6.4452;9.5122;-0.0356;0.0252;0.0425
0000447222;7.2305;-6.5553;9.6558;-0.0153;-0.0093;0.0356
0000447234;7.1802;-6.3542;9.4523;-0.0196;-0.0593;0.0290
0000447243;7.4316;-6.1483;9.2009;-0.0448;-0.0903;0.0228
0000447256;7.7093;-5.9400;8.9998;-0.1172;-0.1163;0.0061
0000447265;7.7740;-5.9065;9.2392;-0.1531;-0.1243;-0.0051
0000447274;8.0565;-5.8849;9.7133;-0.1897;-0.1162;-0.0061
0000447286;8.0062;-6.2082;10.2232;-0.1784;-0.1150;-0.0169
0000447295;7.9751;-6.4979;10.5177;-0.1295;-0.1155;-0.0316
0000447308;7.8171;-6.7133;10.2208;-0.0500;-0.1086;-0.0340
0000447317;7.8578;-6.7109;9.5912;-0.0059;-0.0867;-0.0188
0000447329;7.9655;-6.8666;9.1770;0.0187;-0.0754;-0.0157
0000447338;8.1331;-6.6822;9.1770;0.0089;-0.0741;-0.0216
0000447351;8.1259;-6.5721;9.2368;-0.0248;-0.0642;-0.0245
0000447360;8.0182;-6.5817;9.3302;-0.0334;-0.0663;-0.0322
0000447369;8.2552;-6.2800;9.2943;-0.0444;-0.0502;-0.0273
0000447381;7.9918;-6.4452;9.4092;-0.0325;-0.0272;-0.0097
0000447390;7.8865;-6.5625;9.4523;-0.0169;-0.0183;0.0031
0000447459;7.9368;-6.4452;9.3326;-0.0112;-0.0221;-0.0017
0000447468;7.9990;-6.1890;9.1315;-0.0281;-0.0027;-0.0028
0000447480;7.7931;-6.3135;9.3972;-0.0188;0.0091;-0.0120
0000447489;7.8745;-6.2848;9.5385;-0.0003;0.0068;-0.0116
0000447502;7.8386;-6.2345;9.5170;0.0464;-0.0117;-0.0121
0000447511;7.6375;-6.4093;9.4882;0.0597;-0.0248;0.0001
0000447523;7.5561;-6.2991;9.4116;0.0536;-0.0452;0.0175
0000447532;7.5729;-6.2393;9.2703;0.0280;-0.0677;0.0253
0000447541;7.1946;-6.3518;9.2081;-0.0236;-0.0695;0.0482
0000447554;6.9456;-6.2417;8.9184;-0.0966;-0.0787;0.0765
0000447563;7.2520;-6.1220;8.8322;-0.1386;-0.1022;0.0826
0000447575;7.0844;-6.4931;9.2536;-0.1965;-0.1552;0.0774
0000447584;7.5465;-6.5170;9.6438;-0.2172;-0.2190;0.0533
0000447597;7.7668;-6.7756;10.0820;-0.2046;-0.2769;0.0156
0000447606;8.0709;-6.9216;10.1945;-0.1695;-0.2563;0.0019
0000447618;8.3701;-7.1611;10.5896;-0.0679;-0.1869;-0.0224
0000447627;8.4108;-7.1323;10.7907;0.0394;-0.1360;-0.0488
0000447636;8.6933;-6.9719;10.3717;0.1408;-0.0846;-0.0757
0000447649;8.8346;-6.8761;9.7875;0.2289;-0.0071;-0.1114
0000447658;8.9184;-6.6224;9.6534;0.2566;0.0280;-0.1507
0000447670;8.6718;-6.4452;9.4978;0.2434;0.0671;-0.1676
0000447679;8.3462;-6.2034;9.4020;0.2325;0.0743;-0.1563
0000447748;7.7165;-6.5936;9.6199;-0.0378;-0.1190;0.0687
0000447757;8.2384;-6.5481;9.7229;-0.0322;-0.1202;0.0738
0000447769;8.2983;-6.7205;10.0700;-0.0163;-0.0902;0.0460
0000447778;8.3701;-6.5481;9.8737;-0.0008;-0.0534;0.0135
0000447787;8.1523;-6.6439;9.4332;0.0121;-0.0226;-0.0136
0000447800;7.9966;-6.5817;8.9376;0.0207;0.0044;-0.0448
0000447809;7.6184;-6.5864;8.5784;0.0080;0.0100;-0.0593
0000447821;7.2185;-6.3494;8.6910;-0.0164;-0.0016;-0.0765
0000447830;7.1826;-6.1914;9.2273;-0.0324;-0.0048;-0.0637
0000447843;7.2712;-6.1914;10.0126;0.0095;-0.0318;-0.0320
0000447852;7.3933;-6.0813;10.3477;0.0589;-0.0659;-0.0252
0000447864;7.4627;-6.0478;10.2232;0.1107;-0.0946;-0.0204
0000447873;7.6591;-6.0190;9.7276;0.1291;-0.1086;-0.0232
0000447882;7.6926;-5.9568;9.2823;0.1231;-0.1243;-0.0248
0000447895;8.0062;-5.9496;9.0166;0.0445;-0.1139;-0.0442
0000447904;8.0182;-5.9113;9.1315;-0.0381;-0.0930;-0.0452
0000447916;7.6926;-6.2273;9.3015;-0.1091;-0.0842;-0.0249
0000447925;7.6279;-6.2345;8.9639;-0.1447;-0.0959;0.0184
0000447938;7.3646;-6.4428;8.2145;-0.1998;-0.1195;0.0806
0000447947;7.2137;-6.3901;8.2145;-0.2625;-0.1364;0.0939
0000447959;7.4340;-6.4021;8.7580;-0.3455;-0.1528;0.1019
0000447968;7.6279;-6.5218;9.4020;-0.3728;-0.1532;0.0989
0000447977;7.9320;-6.6415;10.2807;-0.3220;-0.1603;0.0850
0000448046;8.0230;-5.9352;8.0709;0.0528;0.0033;-0.0584
0000448055;7.7524;-5.8275;8.2528;-0.0260;0.0173;-0.0252
0000448066;7.7405;-5.5976;8.5952;-0.1148;-0.0140;0.0085
0000448075;7.4771;-5.9256;8.8083;-0.1892;-0.0675;0.0226
0000448089;7.9224;-6.1100;9.2177;-0.2679;-0.1681;0.0468
0000448098;8.1954;-6.3662;9.5888;-0.3115;-0.2150;0.0606
0000448111;8.3486;-6.8307;10.1131;-0.3312;-0.2220;0.0762
0000448120;8.5258;-7.0940;10.3406;-0.3010;-0.1936;0.0709
0000448132;8.6910;-7.4268;10.4746;-0.2090;-0.1426;0.0372
0000448141;8.9471;-7.6279;10.2376;-0.1256;-0.0855;0.0127
0000448150;8.8131;-7.5034;9.9120;-0.0196;-0.0466;-0.0184
0000448163;8.7604;-7.2305;9.3565;0.1010;0.0140;-0.0353
0000448172;8.4707;-6.9839;9.0549;0.1419;0.0476;-0.0422
0000448184;8.2911;-6.4763;8.9950;0.1704;0.0853;-0.0556
0000448193;8.0589;-6.2584;9.0477;0.1629;0.0998;-0.0593
0000448206;7.7165;-5.9927;9.3398;0.1248;0.0895;-0.0690
0000448215;7.7428;-5.8466;9.3613;0.0859;0.0540;-0.0641
0000448227;7.8290;-5.7509;9.4786;0.0164;-0.0023;-0.0572
0000448236;7.7381;-5.9831;9.4882;-0.0410;-0.0418;-0.0410
0000448245;7.9272;-6.1914;9.4044;-0.0899;-0.0650;-0.0204
0000448258;7.9559;-6.6655;9.4858;-0.1384;-0.0679;0.0041
0000448267;7.9487;-6.7588;9.4523;-0.1374;-0.0649;0.0125
0000448336;8.1187;-6.3566;9.2536;0.0883;0.0191;-0.0478
0000448345;7.9392;-6.3997;9.3494;0.0557;0.0193;-0.0481
0000448358;7.9464;-6.1579;9.2584;-0.0012;0.0060;-0.0402
0000448367;7.7237;-6.4596;9.3254;-0.0324;-0.0057;-0.0334
0000448379;7.6782;-6.5553;9.4499;-0.0634;-0.0193;-0.0189
0000448388;7.8386;-6.5003;9.6055;-0.0578;-0.0180;-0.0021
0000448397;7.7740;-6.7133;9.8857;-0.0085;-0.0365;-0.0040
0000448410;7.9128;-6.8043;10.1418;0.0898;-0.0282;-0.0028
0000448419;8.0589;-6.7947;10.1945;0.1668;-0.0048;-0.0056
0000448431;8.2815;-6.6894;10.0628;0.2567;0.0232;-0.0195
0000448440;8.2839;-6.5625;9.5241;0.2962;0.0115;-0.0366
0000448453;8.0996;-6.1986;8.7436;0.2614;-0.0143;-0.0445
0000448462;7.8123;-6.0597;8.2097;0.1677;-0.0112;-0.0360
0000448474;7.6136;-5.7700;8.1163;-0.0051;-0.0115;-0.0161
0000448483;7.5465;-5.6216;8.2959;-0.1395;-0.0264;0.0055
0000448492;7.5178;-5.7461;8.6526;-0.2529;-0.0570;0.0357
0000448505;7.5369;-6.3063;9.2177;-0.3222;-0.1308;0.0597
0000448514;7.7692;-6.5386;9.8090;-0.3151;-0.1744;0.0640
0000448526;8.2672;-6.9791;10.8745;-0.2048;-0.1657;0.0501
0000448535;8.5042;-7.3430;11.4850;-0.0489;-0.1347;0.0228
0000448548;9.0884;-7.3813;11.3174;0.2072;-0.0877;-0.0257
0000448557;9.1171;-7.2257;10.4914;0.3367;-0.0578;-0.0669
0000448625;6.9935;-5.7868;8.1092;-0.3111;0.0195;0.0132
0000448634;6.8283;-5.9185;8.3869;-0.4124;-0.0498;0.0500
0000448643;7.1084;-6.1148;9.2296;-0.4726;-0.1009;0.1120
0000448656;7.6471;-6.6128;11.0397;-0.4604;-0.1903;0.1478
0000448665;8.1020;-7.1108;12.3876;-0.3487;-0.2189;0.1454
0000448677;8.7628;-7.7620;13.3285;-0.0474;-0.2162;0.0897
0000448686;8.9160;-8.1020;13.0604;0.1935;-0.1962;0.0218
0000448699;8.7604;-7.8123;10.9367;0.4530;-0.1663;-0.0753
0000448708;8.6383;-7.3885;9.0716;0.5241;-0.1264;-0.1148
0000448720;8.0565;-6.6032;7.3622;0.4783;-0.0055;-0.1164
0000448729;7.8171;-6.2201;6.8331;0.3789;0.0941;-0.0958
0000448742;7.5609;-5.5091;6.7852;0.1913;0.1540;-0.0723
0000448751;7.5322;-5.1308;7.0461;0.0240;0.1150;-0.0598
0000448760;7.2377;-4.9464;7.3406;-0.1512;0.0568;-0.0374
0000448772;7.0126;-5.2313;7.8075;-0.3507;-0.0706;-0.0080
0000448781;7.0413;-5.4205;8.2121;-0.4736;-0.1551;0.0213
0000448794;7.5369;-5.6958;9.3925;-0.6074;-0.2654;0.0667
0000448803;7.9871;-6.0645;10.3980;-0.6322;-0.3313;0.0825
0000448815;8.2696;-6.7900;11.2791;-0.5589;-0.3643;0.0667
0000448824;8.5258;-7.1371;11.4970;-0.4383;-0.3535;0.0470
0000448837;8.7652;-7.6399;11.1235;-0.2390;-0.2935;0.0276
0000448846;8.7101;-7.8841;10.5321;-0.1034;-0.2561;0.0119
0000448855;8.7867;-7.8195;10.0485;0.0173;-0.2210;0.0113
0000448924;8.0996;-5.7676;8.8921;0.0617;0.0755;-0.0514
0000448933;7.9655;-5.7557;8.9639;-0.0482;0.0368;-0.0410
0000448946;7.8243;-6.2513;9.4858;-0.1696;-0.0381;-0.0095
0000448955;7.8554;-6.5888;9.7516;-0.2078;-0.0634;0.0148
0000448967;7.9559;-6.8977;9.8928;-0.1904;-0.1003;0.0325
0000448976;8.1044;-7.1587;9.9623;-0.1443;-0.1114;0.0428
0000448989;8.4635;-7.3310;9.7827;-0.0362;-0.1126;0.0454
0000448998;8.6550;-7.2185;9.6678;0.0490;-0.0982;0.0294
0000449007;8.6167;-7.0437;9.3781;0.1166;-0.0617;0.0145
0000449019;8.6215;-6.8211;9.2201;0.1576;-0.0105;-0.0137
0000449028;8.4563;-6.5434;9.1387;0.1527;0.0252;-0.0289
0000449041;8.3486;-6.3662;9.1889;0.1276;0.0588;-0.0489
0000449050;8.0589;-6.4356;9.1674;0.0973;0.0642;-0.0508
0000449062;7.9080;-6.4428;9.3470;0.0536;0.0505;-0.0461
0000449071;7.7692;-6.4380;9.4739;0.0269;0.0241;-0.0406
0000449084;7.9104;-6.2872;9.5481;0.0032;-0.0246;-0.0321
0000449093;7.7979;-6.4236;9.6414;0.0019;-0.0606;-0.0245
0000449102;8.1187;-6.3159;9.5385;0.0032;-0.0786;-0.0199
0000449114;8.2911;-6.2441;9.3709;0.0092;-0.0853;-0.0084
0000449123;8.1451;-6.4189;9.2943;0.0143;-0.0830;-0.0100
0000449136;8.2887;-6.3782;9.2584;0.0131;-0.0640;-0.0105
0000449145;8.3390;-6.4620;9.2488;0.0021;-0.0410;-0.0159
0000449214;8.0661;-6.6798;9.4906;-0.0234;-0.0409;-0.0037
0000449223;8.2313;-6.5505;9.4667;-0.0153;-0.0478;-0.0113
0000449236;8.2624;-6.4548;9.3661;-0.0052;-0.0293;-0.0113
0000449245;8.2791;-6.3542;9.3972;0.0085;-0.0301;-0.0157
0000449254;8.1092;-6.5434;9.3781;0.0089;-0.0284;-0.0069
0000449266;8.1690;-6.4883;9.2967;-0.0008;-0.0377;-0.0088
0000449275;8.0038;-6.4715;9.2488;-0.0075;-0.0493;-0.0099
0000449288;8.2696;-6.3231;9.2320;-0.0274;-0.0614;-0.0049
0000449297;8.0541;-6.5290;9.2680;-0.0476;-0.0577;-0.0001
0000449309;8.4467;-6.2728;9.3302;-0.0552;-0.0444;0.0012
0000449318;8.1858;-6.5529;9.3709;-0.0622;-0.0342;-0.0051
0000449331;8.4372;-6.5410;9.4068;-0.0474;-0.0253;-0.0089
0000449340;8.3941;-6.5074;9.5193;-0.0504;-0.0091;-0.0093
0000449352;8.4898;-6.3303;9.5505;-0.0333;-0.0067;-0.0207
0000449361;8.1499;-6.6487;9.5720;-0.0207;-0.0051;-0.0213
0000449370;8.1475;-6.4955;9.5816;0.0008;-0.0160;-0.0268
0000449383;8.0373;-6.4620;9.5050;0.0188;-0.0169;-0.0256
0000449392;8.0972;-6.4260;9.4619;0.0132;-0.0167;-0.0187
0000449404;7.9918;-6.6128;9.5074;0.0125;-0.0428;-0.0167
0000449413;8.0661;-6.4979;9.4403;0.0097;-0.0649;-0.0099
0000449426;8.0756;-6.4069;9.3565;-0.0048;-0.0791;-0.0020
0000449435;8.2097;-6.4332;9.3398;-0.0099;-0.0911;-0.0073
0000449504;8.3390;-6.5481;9.3589;-0.0107;-0.0364;-0.0191
0000449513;8.3222;-6.5577;9.4188;-0.0009;-0.0400;-0.0224
0000449522;8.2241;-6.6343;9.4954;-0.0025;-0.0354;-0.0151
0000449536;8.2815;-6.4931;9.4691;0.0093;-0.0444;-0.0135
0000449545;8.1451;-6.5266;9.4284;0.0056;-0.0398;-0.0056
0000449558;8.3175;-6.4524;9.3350;0.0079;-0.0448;-0.0059
0000449567;8.3677;-6.3782;9.3087;-0.0008;-0.0412;0.0012
0000449579;8.2791;-6.4691;9.4164;-0.0059;-0.0393;-0.0043
0000449588;8.3055;-6.3662;9.3757;-0.0041;-0.0388;-0.0115
0000449601;8.3629;-6.4189;9.3757;-0.0065;-0.0328;-0.0135
0000449610;8.0469;-6.5817;9.4212;-0.0059;-0.0273;-0.0105
0000449619;8.1882;-6.4500;9.4044;-0.0009;-0.0346;-0.0152
0000449631;8.1523;-6.5003;9.4116;-0.0001;-0.0318;-0.0131
0000449640;8.1547;-6.5290;9.4332;0.0051;-0.0350;-0.0164
0000449653;8.1666;-6.4763;9.4284;0.0048;-0.0305;-0.0151
0000449662;8.3629;-6.3638;9.4547;0.0044;-0.0310;-0.0121
0000449674;8.2624;-6.4284;9.4308;0.0132;-0.0390;-0.0148
0000449683;8.2408;-6.5146;9.3901;0.0111;-0.0312;-0.0052
0000449696;8.2169;-6.5362;9.4164;0.0133;-0.0421;-0.0093
0000449705;8.2337;-6.4835;9.3446;0.0189;-0.0548;-0.0197
0000449717;8.2121;-6.4667;9.4116;0.0119;-0.0568;-0.0216
0000449726;8.1523;-6.5242;9.4403;0.0189;-0.0605;-0.0204
0000449735;8.2073;-6.4524;9.3470;0.0096;-0.0557;-0.0156
0000449804;8.4252;-6.3542;9.4236;-0.0217;-0.0500;-0.0180
0000449813;8.4539;-6.3997;9.3709;-0.0360;-0.0413;-0.0149
0000449825;8.3653;-6.4524;9.4332;-0.0306;-0.0425;-0.0250
0000449834;8.5712;-6.3375;9.5050;-0.0270;-0.0368;-0.0225
0000449847;8.3701;-6.4907;9.4332;-0.0120;-0.0325;-0.0254
0000449856;8.3151;-6.4093;9.3398;-0.0027;-0.0256;-0.0217
0000449868;8.2696;-6.3997;9.3182;0.0031;-0.0185;-0.0234
0000449877;8.4228;-6.3422;9.2273;0.0032;-0.0144;-0.0157
0000449886;8.3893;-6.2944;9.2392;-0.0027;-0.0149;-0.0176
0000449899;8.2121;-6.4165;9.2344;-0.0195;-0.0218;-0.0125
0000449908;8.2672;-6.4093;9.2943;-0.0285;-0.0249;-0.0067
0000449920;8.3534;-6.3087;9.4379;-0.0349;-0.0281;-0.0049
0000449929;8.1642;-6.2656;9.3541;-0.0497;-0.0183;0.0031
0000449942;8.2001;-6.3327;9.4092;-0.0580;-0.0111;0.0120
0000449951;8.2768;-6.3327;9.5193;-0.0520;-0.0211;-0.0004
0000449963;7.9559;-6.6559;9.5385;-0.0546;-0.0211;0.0047
0000449972;8.0373;-6.5242;9.4643;-0.0516;-0.0325;0.0088
0000449985;8.2576;-6.5218;9.5888;-0.0381;-0.0372;0.0092
0000449994;8.1379;-6.5649;9.4858;-0.0293;-0.0452;0.0097
0000450003;8.2073;-6.6056;9.5241;-0.0157;-0.0524;0.0001
0000450015;8.0756;-6.8139;9.4595;-0.0020;-0.0572;-0.0092
0000450024;8.2839;-6.5673;9.4236;-0.0060;-0.0440;-0.0039
0000450093;8.3246;-6.2082;9.3302;0.0008;-0.0536;-0.0180
0000450102;8.2432;-6.3782;9.2943;-0.0109;-0.0492;-0.0157
0000450114;8.1977;-6.4835;9.3613;-0.0225;-0.0494;-0.0091
0000450123;8.3701;-6.4548;9.3853;-0.0257;-0.0473;-0.0113
0000450136;8.1547;-6.5601;9.3733;-0.0309;-0.0346;-0.0104
0000450145;8.2815;-6.3997;9.4236;-0.0324;-0.0333;-0.0099
0000450154;8.3797;-6.4620;9.4355;-0.0308;-0.0260;-0.0107
0000450166;8.4132;-6.3901;9.2775;-0.0179;-0.0309;-0.0141
0000450175;8.2337;-6.5290;9.3829;-0.0159;-0.0278;-0.0079
0000450188;8.2552;-6.5314;9.3302;-0.0177;-0.0314;-0.0088
0000450197;8.1906;-6.5793;9.3637;-0.0085;-0.0352;-0.0135
0000450209;8.4348;-6.4596;9.3853;-0.0137;-0.0266;-0.0092
0000450218;8.3821;-6.4715;9.3901;-0.0124;-0.0215;-0.0128
0000450231;8.3079;-6.4620;9.4044;-0.0136;-0.0156;-0.0127
0000450240;8.2217;-6.6367;9.4667;-0.0164;-0.0141;-0.0139
0000450252;8.2121;-6.5625;9.4068;-0.0119;-0.0143;-0.0105
0000450261;8.0278;-6.5673;9.4188;-0.0055;-0.0215;-0.0137
0000450270;8.2744;-6.4715;9.4044;0.0032;-0.0257;-0.0129
0000450283;8.0780;-6.4763;9.4140;0.0045;-0.0314;-0.0091
0000450292;8.1020;-6.4620;9.4140;0.0015;-0.0337;-0.0020
0000450304;8.1570;-6.5817;9.4164;-0.0033;-0.0389;-0.0071
0000450313;8.1954;-6.5027;9.3757;-0.0104;-0.0422;-0.0088
0000450382;8.1738;-6.4165;9.3637;0.0028;-0.0426;-0.0184
0000450391;8.3797;-6.3542;9.3111;-0.0005;-0.0414;-0.0160
0000450403;8.3175;-6.5242;9.4164;-0.0048;-0.0397;-0.0188
0000450412;8.4898;-6.3375;9.4164;-0.0052;-0.0397;-0.0177
0000450421;8.2456;-6.4093;9.3805;-0.0101;-0.0417;-0.0157
0000450434;8.1834;-6.3853;9.2775;-0.0109;-0.0522;-0.0153
0000450443;8.2001;-6.4883;9.4164;-0.0246;-0.0553;-0.0087
0000450455;8.2672;-6.4811;9.3422;-0.0362;-0.0652;-0.0092
0000450464;8.0493;-6.5936;9.3757;-0.0400;-0.0706;-0.0083
0000450477;8.2456;-6.5027;9.4523;-0.0474;-0.0721;-0.0116
0000450486;8.3007;-6.5290;9.5457;-0.0377;-0.0644;-0.0116
0000450498;8.4132;-6.5505;9.6367;-0.0095;-0.0509;-0.0197
0000450507;8.5736;-6.5553;9.6678;0.0192;-0.0313;-0.0224
0000450520;8.6407;-6.6080;9.6151;0.0638;-0.0003;-0.0326
0000450529;8.5281;-6.5912;9.6726;0.0977;0.0226;-0.0440
0000450538;8.5401;-6.7109;9.5984;0.1358;0.0524;-0.0460
0000450550;8.3342;-6.6415;9.3470;0.1699;0.0654;-0.0580
0000450559;8.3103;-6.4811;9.2105;0.1723;0.0496;-0.0685
0000450572;7.9823;-6.1770;8.7819;0.1179;0.0072;-0.0726
0000450581;7.8626;-5.8778;8.8131;0.0433;-0.0321;-0.0723
0000450593;8.1307;-5.8131;8.9830;-0.0866;-0.0580;-0.0558
0000450602;8.1570;-5.8251;9.0333;-0.1584;-0.0594;-0.0297
0000450670;8.6742;-6.8235;9.4810;-0.0368;0.0622;-0.0670
0000450679;8.1858;-6.9719;9.4739;-0.0079;0.0743;-0.0566
0000450688;8.0373;-6.8642;9.3350;0.0148;0.0851;-0.0497
0000450700;7.9272;-6.7852;9.3134;0.0390;0.0843;-0.0322
0000450709;7.8626;-6.5841;9.3111;0.0481;0.0682;-0.0321
0000450722;7.6543;-6.4620;9.2560;0.0492;0.0329;-0.0197
0000450731;7.8051;-6.1387;9.4547;0.0313;0.0148;-0.0057
0000450743;7.8338;-6.1052;9.4308;0.0143;-0.0293;-0.0055
0000450752;7.8769;-6.0956;9.5026;-0.0064;-0.0428;0.0035
0000450765;8.0924;-6.1292;9.4930;-0.0324;-0.0510;0.0028
0000450774;8.1666;-6.2896;9.5217;-0.0462;-0.0482;-0.0001
0000450783;8.2241;-6.4715;9.4858;-0.0542;-0.0473;-0.0076
0000450795;8.2887;-6.4859;9.4691;-0.0578;-0.0360;-0.0208
0000450804;8.0254;-6.7684;9.4571;-0.0381;-0.0326;-0.0374
0000450817;8.2289;-6.6032;9.4715;-0.0072;-0.0236;-0.0474
0000450826;8.0828;-6.6295;9.4332;0.0113;-0.0155;-0.0477
0000450838;7.9823;-6.6056;9.4355;0.0280;-0.0201;-0.0430
0000450847;8.0469;-6.5170;9.5193;0.0413;-0.0325;-0.0465
0000450860;8.1475;-6.3470;9.4308;0.0320;-0.0366;-0.0380
0000450869;8.2025;-6.1794;9.4667;0.0151;-0.0421;-0.0265
0000450878;8.1786;-6.3327;9.3374;-0.0029;-0.0456;-0.0212
0000450890;8.2624;-6.3782;9.2656;-0.0277;-0.0546;-0.0201
0000450899;8.2624;-6.3351;9.4547;-0.0326;-0.0470;-0.0101
0000450968;8.1547;-6.3351;9.3541;0.0135;-0.0362;-0.0171
0000450977;8.2097;-6.3039;9.5265;0.0079;-0.0254;-0.0051
0000450989;8.0756;-6.4620;9.4068;0.0016;-0.0344;-0.0097
0000450998;8.3773;-6.3686;9.4571;-0.0095;-0.0324;-0.0067
0000451012;8.1403;-6.4907;9.3757;-0.0105;-0.0401;-0.0147
0000451021;8.2121;-6.3877;9.3709;-0.0068;-0.0466;-0.0176
0000451034;8.0302;-6.6008;9.4355;-0.0053;-0.0482;-0.0240
0000451043;8.0589;-6.5338;9.4284;-0.0045;-0.0384;-0.0153
0000451052;8.2121;-6.3901;9.4164;0.0059;-0.0368;-0.0220
0000451064;7.9487;-6.5098;9.4571;0.0160;-0.0357;-0.0177
0000451073;8.1810;-6.3135;9.4475;0.0097;-0.0365;-0.0183
0000451086;8.3677;-6.3015;9.4403;0.0077;-0.0381;-0.0161
0000451095;8.2672;-6.2896;9.3589;0.0096;-0.0469;-0.0192
0000451107;8.1475;-6.3925;9.4044;-0.0052;-0.0498;-0.0125
0000451116;8.0637;-6.4524;9.2799;-0.0071;-0.0478;-0.0160
0000451129;7.9727;-6.4189;9.2296;-0.0203;-0.0498;-0.0061
0000451138;8.1475;-6.4236;9.4523;-0.0293;-0.0509;-0.0036
0000451147;8.0589;-6.4212;9.3470;-0.0241;-0.0637;-0.0072
0000451159;8.4491;-6.3590;9.4092;-0.0250;-0.0596;-0.0016
0000451168;8.3342;-6.3805;9.3948;-0.0191;-0.0621;-0.0068
0000451237;8.2528;-6.2680;9.3518;-0.0156;-0.0237;-0.0105
0000451246;8.0038;-6.4620;9.3446;-0.0197;-0.0229;-0.0085
0000451258;8.1427;-6.4069;9.3829;-0.0187;-0.0294;-0.0061
0000451267;8.2289;-6.1938;9.3230;-0.0171;-0.0376;-0.0019
0000451280;8.1355;-6.3255;9.3733;-0.0308;-0.0378;-0.0020
0000451289;8.1427;-6.2704;9.4140;-0.0478;-0.0356;0.0047
0000451301;8.0349;-6.4859;9.4188;-0.0528;-0.0484;-0.0031
0000451310;8.2456;-6.4236;9.3853;-0.0469;-0.0397;0.0015
0000451319;8.3510;-6.4811;9.4332;-0.0497;-0.0385;-0.0005
0000451332;8.2361;-6.4955;9.3709;-0.0369;-0.0356;-0.0065
0000451341;8.3055;-6.4691;9.3853;-0.0376;-0.0286;-0.0104
0000451353;8.2313;-6.4955;9.4403;-0.0232;-0.0288;-0.0168
0000451362;8.2049;-6.5338;9.3637;-0.0220;-0.0236;-0.0112
0000451375;8.1738;-6.4955;9.3709;-0.0155;-0.0330;-0.0189
0000451384;8.2696;-6.4069;9.2847;-0.0105;-0.0306;-0.0151
0000451396;8.0852;-6.5050;9.3972;-0.0222;-0.0273;-0.0113
0000451405;8.3390;-6.2944;9.2967;-0.0205;-0.0306;-0.0176
0000451418;8.1738;-6.2704;9.4810;-0.0258;-0.0293;-0.0144
0000451427;8.2097;-6.3494;9.3805;-0.0290;-0.0266;-0.0109
0000451436;8.3175;-6.3470;9.5529;-0.0289;-0.0316;-0.0092
0000451448;8.2935;-6.3997;9.4715;-0.0188;-0.0425;-0.0157
0000451457;8.1810;-6.4117;9.4044;-0.0208;-0.0401;-0.0087
0000451522;8.3151;-6.4284;9.3853;-0.0226;-0.0294;-0.0132
0000451531;8.2289;-6.4428;9.4164;-0.0213;-0.0330;-0.0067
0000451543;8.3318;-6.4715;9.4595;-0.0209;-0.0325;-0.0099
0000451552;8.2456;-6.5050;9.4475;-0.0216;-0.0334;-0.0115
0000451565;8.2983;-6.4907;9.4188;-0.0180;-0.0338;-0.0147
0000451574;8.3246;-6.3829;9.4140;-0.0181;-0.0310;-0.0135
0000451583;8.4060;-6.3734;9.3613;-0.0157;-0.0293;-0.0144
0000451595;8.1594;-6.4739;9.2895;-0.0180;-0.0203;-0.0116
0000451604;8.0756;-6.4500;9.2991;-0.0221;-0.0203;-0.0063
0000451617;8.1379;-6.3901;9.3661;-0.0249;-0.0221;-0.0063
0000451626;8.1451;-6.6104;9.3733;-0.0135;-0.0306;-0.0127
0000451638;8.2911;-6.2920;9.4619;-0.0265;-0.0326;-0.0043
0000451647;8.2001;-6.3997;9.4427;-0.0195;-0.0424;-0.0125
0000451660;8.3534;-6.2752;9.4116;-0.0241;-0.0374;-0.0092
0000451669;8.2504;-6.4356;9.4355;-0.0318;-0.0333;-0.0111
0000451681;8.1642;-6.5529;9.3589;-0.0258;-0.0294;-0.0129
0000451690;8.1259;-6.6080;9.2943;-0.0282;-0.0241;-0.0077
0000451699;8.2217;-6.5074;9.3613;-0.0215;-0.0238;-0.0097
0000451712;8.2983;-6.2848;9.3398;-0.0252;-0.0180;-0.0044
0000451721;8.2001;-6.3542;9.3853;-0.0225;-0.0252;-0.0127
0000451733;8.1427;-6.4500;9.4044;-0.0288;-0.0212;-0.0101
0000451740;8.1475;-6.4620;9.3948;-0.0274;-0.0298;-0.0107
0000451808;8.3677;-6.4835;9.4858;-0.0242;-0.0357;-0.0105
0000451816;8.2576;-6.5864;9.4379;-0.0191;-0.0345;-0.0084
0000451827;8.0493;-6.5122;9.4882;-0.0156;-0.0332;-0.0187
0000451835;8.1139;-6.5266;9.3446;-0.0156;-0.0344;-0.0121
