time;acc_x;acc_y;acc_z;gyro_x;gyro_y;gyro_z
0000276725;5.3750;2.8563;2.4708;-0.0203;-0.0314;-0.0068
0000276734;5.4803;2.8132;2.4014;-0.0273;-0.0313;-0.0053
0000276741;5.6024;2.9688;2.4134;-0.0224;-0.0354;-0.0093
0000276749;5.4516;2.8084;2.5091;-0.0296;-0.0290;-0.0053
0000276757;5.3798;2.7150;2.4565;-0.0313;-0.0294;-0.0041
0000276765;5.4396;2.8180;2.4972;-0.0264;-0.0332;-0.0061
0000276773;5.3630;2.8778;2.4852;-0.0254;-0.0317;-0.0073
0000276781;5.5043;2.8922;2.4181;-0.0192;-0.0422;-0.0083
0000276789;5.4636;2.7581;2.4373;-0.0222;-0.0417;-0.0084
0000276797;5.3175;2.7054;2.4493;-0.0203;-0.0393;-0.0077
0000276805;5.4157;2.8443;2.4397;-0.0209;-0.0433;-0.0141
0000276813;5.4205;2.6815;2.5379;-0.0208;-0.0473;-0.0143
0000276821;5.3319;2.7198;2.4421;-0.0244;-0.0422;-0.0084
0000276829;5.4468;2.7198;2.5139;-0.0165;-0.0482;-0.0135
0000276837;5.3582;2.7964;2.4924;-0.0222;-0.0472;-0.0105
0000276845;5.4061;2.6743;2.4157;-0.0164;-0.0501;-0.0111
0000276853;5.4061;2.7773;2.4205;-0.0222;-0.0538;-0.0125
0000276861;5.4708;2.7940;2.5115;-0.0177;-0.0612;-0.0181
0000276869;5.4037;2.7342;2.4684;-0.0172;-0.0648;-0.0171
0000276877;5.3846;2.6959;2.5402;-0.0204;-0.0636;-0.0145
0000276885;5.2529;2.6719;2.4636;-0.0188;-0.0661;-0.0213
0000276893;5.2960;2.6767;2.5283;-0.0113;-0.0754;-0.0285
0000276901;5.3606;2.8539;2.5929;-0.0117;-0.0767;-0.0272
0000276909;5.3846;2.7869;2.5402;-0.0085;-0.0811;-0.0320
0000276917;5.2625;2.7342;2.5546;-0.0100;-0.0899;-0.0292
0000276925;5.4971;2.8371;2.4612;-0.0132;-0.0910;-0.0300
0000276933;5.2433;2.7940;2.5690;-0.0140;-0.1001;-0.0254
0000276941;5.3295;2.8778;2.5426;-0.0250;-0.0995;-0.0240
0000276949;5.4755;3.0598;2.4804;-0.0329;-0.1063;-0.0188
0000276957;5.3678;2.8395;2.5091;-0.0364;-0.1135;-0.0179
0000276965;5.3654;2.8706;2.5738;-0.0297;-0.1210;-0.0280
0000276973;5.3989;2.7605;2.6719;-0.0304;-0.1227;-0.0213
0000276981;5.3870;2.9377;2.6097;-0.0277;-0.1286;-0.0254
0000276989;5.6551;2.8323;2.5666;-0.0301;-0.1219;-0.0240
0000276997;5.4277;2.7318;2.6312;-0.0328;-0.1156;-0.0245
0000277005;5.6743;2.8419;2.6552;-0.0286;-0.1131;-0.0272
0000277013;5.4636;2.6552;2.6288;-0.0212;-0.1170;-0.0310
0000277021;5.5258;2.7294;2.5666;-0.0234;-0.1094;-0.0297
0000277029;5.6503;2.7222;2.6552;-0.0226;-0.0939;-0.0225
0000277037;5.6910;2.7605;2.5211;-0.0224;-0.0986;-0.0324
0000277045;5.4827;2.6839;2.5690;-0.0233;-0.0930;-0.0277
0000277053;5.5138;2.7701;2.5666;-0.0177;-0.0966;-0.0357
0000277061;5.5067;2.7102;2.6240;-0.0147;-0.0942;-0.0297
0000277069;5.4779;2.7964;2.5019;-0.0171;-0.0834;-0.0265
0000277077;5.2816;2.4924;2.5738;-0.0161;-0.0831;-0.0264
0000277085;5.3079;2.6264;2.6288;-0.0209;-0.0793;-0.0171
0000277093;5.5378;2.8347;2.6360;-0.0101;-0.0841;-0.0221
0000277101;5.5091;2.6552;2.6145;-0.0133;-0.0821;-0.0188
0000277109;5.2433;2.6193;2.6600;-0.0072;-0.0830;-0.0242
0000277117;5.4899;2.6959;2.6240;-0.0136;-0.0777;-0.0268
0000277125;5.5474;2.8515;2.6480;-0.0128;-0.0783;-0.0250
0000277133;5.4013;2.7366;2.6193;-0.0184;-0.0758;-0.0240
0000277141;5.3534;2.7485;2.6073;-0.0117;-0.0822;-0.0310
0000277149;5.3558;2.7270;2.5857;-0.0188;-0.0758;-0.0273
0000277157;5.5761;2.9185;2.5881;-0.0184;-0.0814;-0.0257
0000277165;5.4468;2.7629;2.5786;-0.0216;-0.0785;-0.0265
0000277173;5.3391;2.6791;2.5833;-0.0256;-0.0757;-0.0284
0000277181;5.3965;2.8108;2.6839;-0.0209;-0.0815;-0.0265
0000277189;5.5115;2.7007;2.6360;-0.0293;-0.0727;-0.0274
0000277197;5.1523;2.5139;2.6911;-0.0193;-0.0739;-0.0242
0000277205;5.2984;2.6719;2.5833;-0.0232;-0.0771;-0.0316
0000277213;5.4995;2.8156;2.5762;-0.0249;-0.0709;-0.0289
0000277221;5.4324;2.8683;2.5187;-0.0314;-0.0718;-0.0258
0000277229;5.4899;2.8228;2.5857;-0.0226;-0.0822;-0.0306
0000277237;5.3199;2.7461;2.5666;-0.0253;-0.0814;-0.0297
0000277245;5.4564;2.7677;2.6001;-0.0317;-0.0754;-0.0242
0000277253;5.4636;2.7845;2.5953;-0.0336;-0.0798;-0.0256
0000277261;5.5138;2.8754;2.6217;-0.0281;-0.0794;-0.0258
0000277269;5.4827;2.7940;2.5905;-0.0376;-0.0763;-0.0290
0000277277;5.5641;2.8108;2.6145;-0.0408;-0.0687;-0.0213
0000277285;5.5713;2.7557;2.5714;-0.0365;-0.0690;-0.0234
0000277293;5.3917;2.6983;2.6887;-0.0337;-0.0746;-0.0297
0000277375;5.6024;2.7629;2.6600;-0.0240;-0.0625;-0.0229
0000277383;5.4923;2.7821;2.6264;-0.0288;-0.0549;-0.0181
0000277391;5.5162;2.8371;2.6384;-0.0262;-0.0560;-0.0234
0000277399;5.5019;2.7773;2.6552;-0.0288;-0.0498;-0.0163
0000277407;5.5569;2.9161;2.5977;-0.0362;-0.0417;-0.0097
0000277415;5.4923;2.8323;2.6264;-0.0466;-0.0409;-0.0141
0000277423;5.6072;2.8730;2.5809;-0.0561;-0.0450;-0.0155
0000277431;5.3726;2.6504;2.6600;-0.0649;-0.0380;-0.0151
0000277439;5.4492;2.7557;2.7102;-0.0759;-0.0346;-0.0085
0000277447;5.3989;2.7366;2.5738;-0.0803;-0.0324;-0.0111
0000277455;5.4540;2.8994;2.6288;-0.0786;-0.0365;-0.0185
0000277463;5.5186;2.8467;2.5857;-0.0783;-0.0389;-0.0164
0000277471;5.5067;2.8778;2.5929;-0.0873;-0.0297;-0.0101
0000277479;5.4013;2.7198;2.6121;-0.0867;-0.0381;-0.0101
0000277487;5.2289;2.6049;2.7222;-0.0897;-0.0317;-0.0059
0000277495;5.4827;2.8132;2.6432;-0.0885;-0.0276;-0.0084
0000277503;5.3654;2.6528;2.6983;-0.0878;-0.0344;-0.0123
0000277511;5.4588;2.7102;2.6743;-0.0749;-0.0330;-0.0137
0000277519;5.5234;2.6935;2.6959;-0.0734;-0.0297;-0.0153
0000277527;5.4468;2.5905;2.7964;-0.0673;-0.0240;-0.0097
0000277535;5.4396;2.5331;2.5953;-0.0605;-0.0266;-0.0157
0000277543;5.5234;2.5738;2.6935;-0.0494;-0.0301;-0.0201
0000277551;5.6264;2.6983;2.7366;-0.0432;-0.0256;-0.0169
0000277559;5.5617;2.6480;2.7222;-0.0328;-0.0312;-0.0215
0000277567;5.3247;2.5929;2.8228;-0.0305;-0.0276;-0.0160
0000277575;5.5306;2.6647;2.8635;-0.0280;-0.0254;-0.0140
0000277583;5.4013;2.5833;2.7797;-0.0192;-0.0304;-0.0184
0000277591;5.4013;2.6169;2.7054;-0.0140;-0.0281;-0.0183
0000277599;5.4348;2.7461;2.8898;-0.0115;-0.0322;-0.0203
0000277607;5.3774;2.6193;2.7222;-0.0064;-0.0322;-0.0222
0000277615;5.6527;2.8491;2.7031;-0.0145;-0.0326;-0.0144
0000277623;5.5426;2.9640;2.6791;-0.0165;-0.0305;-0.0195
0000277631;5.4923;2.8276;2.6983;-0.0141;-0.0345;-0.0187
0000277639;5.3702;2.7007;2.7725;-0.0209;-0.0301;-0.0127
0000277647;5.5306;2.7126;2.7198;-0.0143;-0.0356;-0.0205
0000277655;5.5522;2.8012;2.7869;-0.0161;-0.0318;-0.0175
0000277663;5.5282;2.6791;2.7701;-0.0139;-0.0264;-0.0161
0000277671;5.5498;2.6408;2.7701;-0.0044;-0.0261;-0.0193
0000277679;5.4324;2.6432;2.7366;0.0049;-0.0250;-0.0189
0000277687;5.4133;2.6671;2.7725;0.0051;-0.0242;-0.0149
0000277695;5.3463;2.6959;2.6336;0.0005;-0.0172;-0.0121
0000277703;5.5378;2.8204;2.7509;-0.0023;-0.0151;-0.0143
0000277711;5.4899;2.8922;2.7892;-0.0057;-0.0240;-0.0140
0000277719;5.3558;2.7270;2.6145;-0.0100;-0.0221;-0.0147
0000277727;5.3941;2.7821;2.6743;-0.0212;-0.0181;-0.0083
0000277735;5.4708;2.7198;2.6624;-0.0208;-0.0285;-0.0107
0000277743;5.5569;2.7054;2.7725;-0.0293;-0.0245;-0.0097
0000277751;5.4372;2.6624;2.7102;-0.0360;-0.0208;-0.0052
0000277759;5.4229;2.7294;2.7461;-0.0314;-0.0280;-0.0115
0000277767;5.4779;2.6456;2.7102;-0.0318;-0.0249;-0.0084
0000277775;5.3534;2.6217;2.8539;-0.0333;-0.0242;-0.0079
0000277783;5.4420;2.7414;2.7533;-0.0309;-0.0213;-0.0116
0000277791;5.4324;2.6647;2.7773;-0.0278;-0.0213;-0.0169
0000277799;5.4372;2.5474;2.7318;-0.0294;-0.0167;-0.0188
0000277807;5.6048;2.7461;2.6169;-0.0270;-0.0211;-0.0218
0000277815;5.6719;2.8036;2.7078;-0.0317;-0.0116;-0.0144
0000277823;5.4181;2.7605;2.7078;-0.0354;-0.0039;-0.0139
0000277831;5.4444;2.6671;2.7150;-0.0408;-0.0028;-0.0179
0000277839;5.4779;2.7054;2.7150;-0.0376;-0.0048;-0.0191
0000277847;5.3893;2.7964;2.6647;-0.0452;-0.0015;-0.0179
0000277855;5.4588;2.8276;2.7366;-0.0464;-0.0001;-0.0176
0000277863;5.3486;2.7174;2.7557;-0.0496;-0.0025;-0.0180
0000277871;5.2265;2.8084;2.6552;-0.0512;-0.0057;-0.0169
0000277879;5.2050;2.6552;2.7797;-0.0492;-0.0152;-0.0241
0000277887;5.2505;2.6528;2.6193;-0.0434;-0.0245;-0.0233
0000277895;5.3941;2.8252;2.6288;-0.0490;-0.0238;-0.0208
0000277903;5.2098;2.5977;2.7797;-0.0548;-0.0245;-0.0189
0000277911;5.4564;2.6767;2.8036;-0.0510;-0.0310;-0.0215
0000277919;5.4684;2.7342;2.8204;-0.0570;-0.0281;-0.0209
0000277927;5.4875;2.7533;2.8132;-0.0520;-0.0289;-0.0258
0000277935;5.4971;2.7892;2.8922;-0.0476;-0.0273;-0.0220
0000278018;5.4324;2.7342;2.7294;-0.0159;-0.0037;-0.0135
0000278026;5.3965;2.7031;2.8132;-0.0254;0.0009;-0.0060
0000278034;5.5641;2.7605;2.8036;-0.0260;-0.0016;-0.0059
0000278042;5.5091;2.7940;2.8012;-0.0238;0.0063;-0.0024
0000278050;5.4420;2.7270;2.7629;-0.0211;0.0029;-0.0085
0000278058;5.4372;2.6552;2.7629;-0.0220;0.0108;-0.0007
0000278066;5.4947;2.7414;2.7940;-0.0173;0.0012;-0.0064
0000278074;5.3415;2.6839;2.8347;-0.0176;0.0044;-0.0011
0000278082;5.2553;2.6911;2.7701;-0.0167;0.0027;-0.0005
0000278090;5.1930;2.5402;2.7366;-0.0172;-0.0031;-0.0047
0000278098;5.3127;2.8826;2.6959;-0.0197;-0.0071;-0.0032
0000278106;5.3798;2.7629;2.6647;-0.0252;-0.0068;-0.0032
0000278114;5.4779;2.7845;2.6480;-0.0278;-0.0092;-0.0019
0000278122;5.4181;2.8084;2.7485;-0.0344;-0.0071;0.0032
0000278130;5.4181;2.6959;2.6791;-0.0369;-0.0064;-0.0051
0000278138;5.3103;2.6504;2.6647;-0.0360;-0.0128;-0.0036
0000278146;5.4875;2.7078;2.7485;-0.0377;-0.0067;-0.0053
0000278154;5.4133;2.5379;2.7869;-0.0370;-0.0131;-0.0101
0000278162;5.4372;2.5762;2.8467;-0.0306;-0.0113;-0.0047
0000278170;5.4468;2.5881;2.7797;-0.0310;-0.0068;-0.0079
0000278178;5.3486;2.6121;2.8515;-0.0209;-0.0080;-0.0083
0000278186;5.3534;2.6049;2.7342;-0.0250;-0.0089;-0.0075
0000278194;5.3439;2.6408;2.7198;-0.0212;-0.0176;-0.0117
0000278202;5.3247;2.7414;2.7892;-0.0222;-0.0165;-0.0071
0000278210;5.3678;2.7270;2.7557;-0.0226;-0.0181;-0.0081
0000278218;5.4085;2.7102;2.6288;-0.0195;-0.0237;-0.0132
0000278226;5.5091;2.7342;2.8204;-0.0212;-0.0245;-0.0117
0000278234;5.3367;2.7533;2.7940;-0.0270;-0.0205;-0.0085
0000278242;5.3774;2.7773;2.7414;-0.0265;-0.0298;-0.0156
0000278250;5.4468;2.9353;2.6791;-0.0357;-0.0260;-0.0119
0000278258;5.3702;2.8443;2.7150;-0.0490;-0.0245;-0.0092
0000278266;5.4109;2.7797;2.6408;-0.0667;-0.0284;-0.0120
0000278274;5.5330;2.9497;2.5809;-0.0797;-0.0405;-0.0195
0000278282;5.5689;3.0885;2.7126;-0.0921;-0.0421;-0.0209
0000278290;5.3798;2.7988;2.7629;-0.1195;-0.0390;-0.0185
0000278298;5.6503;2.8898;2.7916;-0.1264;-0.0401;-0.0176
0000278306;5.3534;2.5809;2.8180;-0.1214;-0.0470;-0.0252
0000278314;5.3702;2.6121;2.8395;-0.1110;-0.0396;-0.0215
0000278322;5.4444;2.5307;2.8683;-0.0879;-0.0452;-0.0256
0000278330;5.4324;2.4828;2.9975;-0.0602;-0.0493;-0.0252
0000278338;5.2601;2.2194;3.0694;-0.0417;-0.0350;-0.0195
0000278346;5.5019;2.4253;3.0167;-0.0132;-0.0421;-0.0188
0000278354;5.2313;2.2218;3.0335;0.0103;-0.0332;-0.0164
0000278362;5.3510;2.2051;2.9473;0.0352;-0.0374;-0.0196
0000278370;5.4372;2.4469;2.8443;0.0448;-0.0369;-0.0089
0000278378;5.4277;2.6624;2.8683;0.0505;-0.0326;-0.0105
0000278386;5.3103;2.6312;2.8371;0.0462;-0.0305;-0.0015
0000278394;5.4947;2.8659;2.8252;0.0361;-0.0338;-0.0099
0000278402;5.4348;2.7940;2.8228;0.0289;-0.0397;-0.0159
0000278410;5.3127;2.8778;2.8132;0.0124;-0.0342;-0.0144
0000278418;5.4205;2.8371;2.7342;-0.0059;-0.0380;-0.0201
0000278426;5.3343;2.8347;2.7653;-0.0192;-0.0304;-0.0188
0000278434;5.4875;2.8252;2.7126;-0.0272;-0.0332;-0.0193
0000278442;5.4516;2.7892;2.8252;-0.0276;-0.0317;-0.0258
0000278450;5.4109;2.7294;2.7797;-0.0324;-0.0230;-0.0176
0000278458;5.5354;2.8228;2.8132;-0.0292;-0.0305;-0.0200
0000278466;5.4348;2.8754;2.7773;-0.0421;-0.0294;-0.0203
0000278474;5.4779;2.8898;2.8443;-0.0448;-0.0330;-0.0193
0000278482;5.2960;2.7294;2.8491;-0.0566;-0.0321;-0.0152
0000278490;5.4324;2.6791;2.8060;-0.0709;-0.0296;-0.0167
0000278498;5.5115;2.7653;2.7605;-0.0825;-0.0284;-0.0124
0000278506;5.4516;2.5786;2.9592;-0.0821;-0.0340;-0.0205
0000278514;5.5545;2.7126;2.8443;-0.0821;-0.0273;-0.0152
0000278522;5.4803;2.4469;2.8132;-0.0805;-0.0264;-0.0144
0000278530;5.4612;2.4229;2.9425;-0.0699;-0.0221;-0.0085
0000278538;5.6407;2.4253;2.9090;-0.0574;-0.0139;-0.0043
0000278546;5.6407;2.4828;2.9281;-0.0404;-0.0164;-0.0051
0000278554;5.5785;2.4804;2.9257;-0.0246;-0.0135;-0.0007
0000278562;5.3295;2.4517;2.9951;-0.0124;-0.0071;0.0020
0000278570;5.4564;2.4876;2.9209;0.0120;-0.0123;-0.0059
0000278578;5.3295;2.5235;2.9233;0.0217;-0.0097;-0.0056
0000278586;5.4612;2.6600;2.9042;0.0213;-0.0059;-0.0027
0000278594;5.4612;2.7102;2.8539;0.0252;-0.0027;-0.0048
0000278677;5.4875;2.7629;2.7725;-0.0056;-0.0211;-0.0151
0000278685;5.3079;2.7318;2.7557;-0.0072;-0.0207;-0.0188
0000278693;5.4636;2.7869;2.7677;-0.0119;-0.0257;-0.0181
0000278701;5.3630;2.6576;2.8587;-0.0272;-0.0187;-0.0116
0000278709;5.3941;2.7845;2.8706;-0.0301;-0.0212;-0.0147
0000278717;5.3917;2.7916;2.7509;-0.0328;-0.0241;-0.0160
0000278725;5.2553;2.6504;2.9281;-0.0405;-0.0244;-0.0077
0000278733;5.2696;2.6600;2.7821;-0.0404;-0.0200;-0.0059
0000278741;5.2146;2.5833;2.8491;-0.0317;-0.0285;-0.0013
0000278749;5.3630;2.6456;2.8443;-0.0285;-0.0305;0.0029
0000278757;5.4157;2.4900;2.9281;-0.0121;-0.0297;0.0013
0000278765;5.4061;2.4972;2.8706;-0.0012;-0.0222;0.0057
0000278773;5.4779;2.4086;2.8515;0.0173;-0.0218;-0.0009
0000278781;5.3463;2.4397;2.7102;0.0217;-0.0140;0.0061
0000278789;5.4875;2.5690;2.7342;0.0302;-0.0117;0.0040
0000278797;5.5330;2.5977;2.7270;0.0389;-0.0111;-0.0009
0000278805;5.4253;2.6408;2.8323;0.0338;-0.0017;0.0037
0000278813;5.4875;2.7557;2.7174;0.0241;0.0064;0.0024
0000278821;5.4827;2.8036;2.7102;0.0240;0.0063;0.0033
0000278829;5.2696;2.6193;2.6360;0.0144;0.0089;0.0043
0000278837;5.3870;2.7150;2.8036;0.0173;0.0113;0.0000
0000278845;5.2481;2.6504;2.6504;0.0068;0.0061;-0.0019
0000278853;5.4324;2.7845;2.7845;0.0040;0.0080;-0.0055
0000278861;5.3726;2.7102;2.7581;0.0037;0.0092;-0.0033
0000278869;5.2888;2.6743;2.7964;0.0120;-0.0001;-0.0104
0000278877;5.3127;2.5809;2.7557;0.0121;0.0031;-0.0043
0000278885;5.2816;2.7126;2.7869;0.0119;0.0049;-0.0057
0000278893;5.2792;2.5570;2.7438;0.0167;0.0041;-0.0080
0000278901;5.2672;2.6336;2.7916;0.0252;-0.0033;-0.0115
0000278909;5.3893;2.6767;2.7102;0.0181;0.0001;-0.0080
0000278917;5.1427;2.6312;2.7150;0.0204;-0.0028;-0.0099
0000278925;5.3965;2.6887;2.7366;0.0270;0.0013;-0.0109
0000278933;5.5545;2.7869;2.8060;0.0221;0.0036;-0.0024
0000278941;5.7006;2.8778;2.7845;0.0266;0.0003;-0.0107
0000278949;5.5450;2.7749;2.6624;0.0199;-0.0005;-0.0017
0000278957;5.5737;2.8060;2.7725;0.0201;0.0047;-0.0003
0000278965;5.4755;2.7509;2.7509;0.0180;0.0084;-0.0052
0000278973;5.5067;2.7701;2.7485;0.0217;0.0059;-0.0072
0000278981;5.5569;2.8491;2.5235;0.0160;0.0052;-0.0056
0000278989;5.3606;2.8635;2.6384;0.0177;0.0048;-0.0073
0000278997;5.3223;2.7581;2.5450;0.0128;0.0087;-0.0041
0000279005;5.3989;2.9137;2.5642;0.0068;0.0017;-0.0031
0000279013;5.3247;2.9066;2.6719;-0.0060;0.0077;0.0069
0000279021;5.4253;2.8563;2.5905;-0.0157;0.0035;0.0031
0000279029;5.5617;2.8970;2.6097;-0.0184;-0.0023;0.0001
0000279037;5.4947;2.9185;2.5115;-0.0298;0.0064;0.0056
0000279045;5.3486;2.6671;2.5570;-0.0374;0.0099;0.0079
0000279053;5.5115;2.7198;2.6264;-0.0274;0.0044;-0.0011
0000279061;5.4013;2.6887;2.5905;-0.0246;0.0117;0.0113
0000279069;5.5881;2.7797;2.5857;-0.0246;0.0172;0.0136
0000279077;5.4755;2.6791;2.5546;-0.0192;0.0224;0.0121
0000279085;5.6503;2.7461;2.6240;-0.0088;0.0199;0.0073
0000279093;5.7102;2.9257;2.6264;-0.0083;0.0234;0.0116
0000279101;5.4636;2.6384;2.5809;-0.0039;0.0232;0.0108
0000279109;5.3319;2.5738;2.6336;-0.0084;0.0280;0.0135
0000279117;5.2433;2.6384;2.4924;-0.0217;0.0380;0.0153
0000279125;5.1451;2.6863;2.5905;-0.0241;0.0329;0.0109
0000279133;5.2481;2.8778;2.4948;-0.0344;0.0374;0.0147
0000279141;5.4755;2.8395;2.4517;-0.0400;0.0308;0.0132
0000279149;5.2529;2.7797;2.5618;-0.0428;0.0292;0.0077
0000279157;5.3558;2.7629;2.5163;-0.0424;0.0264;0.0079
0000279165;5.4540;2.7701;2.5857;-0.0532;0.0322;0.0137
0000279173;5.2625;2.6504;2.5211;-0.0556;0.0308;0.0132
0000279181;5.3558;2.7773;2.5977;-0.0466;0.0286;0.0084
0000279189;5.3822;2.6743;2.5307;-0.0433;0.0318;0.0103
0000279197;5.2912;2.6576;2.5450;-0.0385;0.0317;0.0051
0000279205;5.4636;2.7438;2.6169;-0.0312;0.0273;-0.0080
0000279213;5.2433;2.6145;2.5762;-0.0286;0.0265;-0.0069
0000279221;5.4181;2.6624;2.4900;-0.0280;0.0281;-0.0060
0000279229;5.3439;2.6695;2.5307;-0.0230;0.0205;-0.0133
0000279237;5.1140;2.5881;2.6121;-0.0297;0.0148;-0.0087
0000279245;5.1739;2.6767;2.5786;-0.0281;-0.0037;-0.0111
0000279253;5.1092;2.8228;2.6193;-0.0420;-0.0164;-0.0017
0000279261;5.3056;2.7701;2.6336;-0.0497;-0.0420;0.0051
0000279347;5.4803;2.7294;3.3758;-0.0468;-0.0894;-0.0372
0000279355;5.3846;2.7246;3.4548;-0.0560;-0.0961;-0.0401
0000279363;5.4660;2.8611;3.3734;-0.0580;-0.1083;-0.0378
0000279371;5.3534;2.6504;3.4333;-0.0711;-0.1164;-0.0288
0000279379;5.4013;2.6815;3.3662;-0.0882;-0.1183;-0.0171
0000279387;5.5019;2.7940;3.3375;-0.0937;-0.1282;-0.0120
0000279395;5.4396;2.7126;3.2130;-0.0998;-0.1343;-0.0007
0000279403;5.4253;2.5809;3.2370;-0.1021;-0.1443;0.0052
0000279411;5.7652;2.8060;3.1819;-0.1029;-0.1408;0.0151
0000279419;5.6407;2.5809;3.1580;-0.1066;-0.1335;0.0317
0000279427;5.6982;2.5786;3.0909;-0.0955;-0.1267;0.0342
0000279435;5.8514;2.6600;3.0670;-0.0899;-0.1124;0.0498
0000279443;5.9951;2.6528;2.8850;-0.0757;-0.1034;0.0518
0000279451;5.9209;2.5355;2.8156;-0.0710;-0.0807;0.0645
0000279459;6.0166;2.5881;2.6288;-0.0630;-0.0608;0.0734
0000279467;5.9256;2.4852;2.7988;-0.0626;-0.0344;0.0865
0000279475;6.0238;2.8204;2.6264;-0.0566;-0.0044;0.0946
0000279483;5.9999;2.7126;2.5043;-0.0441;0.0229;0.1018
0000279491;5.6862;2.6504;2.5618;-0.0280;0.0606;0.1179
0000279499;5.7892;2.8898;2.5762;-0.0060;0.0863;0.1243
0000279507;5.6719;3.0742;2.4636;0.0153;0.1150;0.1447
0000279515;5.6168;3.2082;2.4086;0.0164;0.1475;0.1631
0000279523;5.6455;3.3255;2.2960;0.0274;0.1812;0.1757
0000279531;5.5809;3.4261;2.2984;0.0382;0.1962;0.1692
0000279539;5.3079;3.3495;2.4636;0.0434;0.2020;0.1660
0000279547;5.4037;3.3303;2.4612;0.0316;0.2124;0.1475
0000279555;5.2553;3.2968;2.4948;0.0133;0.2138;0.1227
0000279563;5.0470;3.1963;2.6193;-0.0064;0.2029;0.0877
0000279571;4.8650;2.9712;2.4421;-0.0270;0.1980;0.0558
0000279579;4.9728;2.9544;2.4469;-0.0457;0.2008;0.0229
0000279587;4.9512;2.8539;2.5666;-0.0597;0.1943;-0.0079
0000279595;4.7884;2.5402;2.6312;-0.0538;0.1853;-0.0409
0000279603;4.8866;2.3152;2.6743;-0.0488;0.1881;-0.0525
0000279611;4.9344;2.0973;2.5594;-0.0342;0.1883;-0.0481
0000279619;4.8004;1.8124;2.3990;-0.0385;0.1977;-0.0111
0000279627;4.7094;1.6209;2.2170;-0.0404;0.1924;0.0408
0000279635;4.8028;1.3838;1.9992;-0.0486;0.1692;0.1106
0000279643;4.7214;1.3216;1.7095;-0.0546;0.1443;0.1852
0000279651;4.5586;1.2067;1.5275;-0.0505;0.1106;0.2630
0000279659;4.6974;1.3743;1.3815;-0.0361;0.0718;0.3195
0000279667;4.8459;1.5562;1.2426;-0.0212;0.0444;0.3595
0000279675;5.2098;1.8842;1.1205;0.0085;0.0004;0.3712
0000279683;5.2170;2.3463;1.1899;0.0838;-0.0222;0.3659
0000279691;5.4372;2.8922;1.1947;0.1861;-0.0580;0.3120
0000279699;5.5522;3.6464;0.8571;0.2867;-0.0987;0.2305
0000279707;5.1260;3.7709;0.7135;0.3600;-0.1266;0.1360
0000279715;5.1787;4.3120;0.7111;0.3933;-0.1091;0.0613
0000279723;5.1332;4.3981;0.8380;0.3882;-0.0747;0.0019
0000279731;5.2050;4.0965;0.9194;0.3536;-0.0482;-0.0365
0000279739;5.1667;3.5769;0.8092;0.3122;-0.0561;-0.0538
0000279747;5.4420;3.3232;0.9002;0.2634;-0.0695;-0.0526
0000279755;5.4396;2.6240;1.1588;0.2070;-0.0966;-0.0517
0000279763;5.8945;2.0853;1.5203;0.1510;-0.1208;-0.0316
0000279771;6.0071;1.4413;1.9585;0.0630;-0.1196;0.0012
0000279779;6.2656;0.9912;2.2577;-0.0472;-0.0838;0.0088
0000279787;6.2752;0.4357;2.0853;-0.1567;-0.0707;-0.0317
0000279795;6.3805;0.1125;1.9345;-0.2573;-0.0750;-0.0755
0000279803;6.2991;-0.4477;1.7909;-0.3663;-0.0608;-0.1386
0000279811;5.9113;-0.6847;1.6041;-0.4959;-0.0624;-0.2072
0000279819;5.5162;-0.8236;1.4796;-0.6197;-0.0644;-0.2915
0000279827;5.2984;-0.6009;1.5347;-0.7216;-0.0767;-0.4365
0000279835;5.3199;-0.1939;1.5754;-0.7493;-0.0673;-0.6179
0000279843;5.4061;0.2298;1.5778;-0.6407;0.0204;-0.8017
0000279851;5.9496;0.8499;1.5419;-0.4590;0.1904;-0.9470
0000279859;6.3422;1.2905;1.4461;-0.2840;0.3897;-0.9705
0000279867;6.5362;1.5826;1.4844;-0.1577;0.5664;-0.8358
0000279875;6.7325;1.8675;1.3096;-0.0296;0.7144;-0.5821
0000279883;6.9528;1.7382;0.6488;0.1142;0.8434;-0.2546
0000279891;6.9695;1.4844;0.1724;0.2509;0.9333;0.0675
0000279899;6.7947;1.0702;-0.2298;0.3956;0.9950;0.3242
0000279907;6.1363;1.0511;-0.4238;0.5680;1.0365;0.4776
0000279915;5.7365;1.1971;-0.6321;0.7135;1.0637;0.5067
0000279923;5.3439;1.4126;-0.6560;0.7971;1.0597;0.4261
0000280008;7.3334;0.9290;-0.0072;-0.6277;0.5131;0.5462
0000280016;7.3023;0.5770;0.6776;-0.6514;0.4499;0.4559
0000280024;6.8139;0.1939;1.5993;-0.6366;0.4056;0.3240
0000280032;6.2776;-0.1820;2.0231;-0.5546;0.3913;0.1701
0000280040;5.2936;-0.6704;1.8627;-0.4269;0.3850;0.0159
0000280048;4.4891;-1.1372;1.4892;-0.2991;0.3467;-0.1238
0000280056;3.8858;-1.3288;1.5155;-0.1865;0.2759;-0.2384
0000280064;3.8116;-1.5227;1.4246;-0.0767;0.1895;-0.3324
0000280072;3.4644;-1.6376;1.2402;0.0406;0.1176;-0.3886
0000280080;3.2585;-1.3240;0.9840;0.2074;0.0590;-0.4153
0000280088;2.9066;-0.6512;1.0271;0.3892;0.0017;-0.4021
0000280096;2.8371;0.2179;1.0630;0.5620;-0.0761;-0.3484
0000280104;3.0502;1.2977;1.3838;0.6776;-0.1549;-0.2689
0000280112;3.4046;2.4972;1.9106;0.6832;-0.2296;-0.1901
0000280120;3.8403;3.4453;2.0590;0.5569;-0.2723;-0.1235
0000280128;4.7788;4.3958;1.9345;0.3202;-0.3156;-0.0810
0000280136;5.7461;4.7908;1.5826;0.0189;-0.3240;-0.0429
0000280144;6.8474;4.4173;1.0080;-0.2847;-0.2880;0.0107
0000280152;7.7381;3.4764;0.4956;-0.4930;-0.2209;0.0360
0000280160;7.9775;1.9225;-0.4741;-0.5788;-0.1279;0.0482
0000280168;7.9631;0.8116;-0.8906;-0.5532;-0.0348;0.0226
0000280176;7.5585;0.1006;-0.8667;-0.4171;0.0574;-0.0353
0000280184;6.5434;-0.2155;-0.0359;-0.1893;0.1364;-0.1250
0000280192;5.0111;0.0479;1.1708;0.0783;0.1741;-0.1853
0000280200;3.9983;0.9697;2.1380;0.2705;0.1555;-0.1667
0000280208;2.6671;1.8675;2.4181;0.3317;0.0941;-0.0646
0000280216;2.4229;2.9281;2.5642;0.2278;0.0023;0.0931
0000280224;2.6887;3.1460;2.3942;-0.0060;-0.0662;0.2513
0000280232;3.7182;2.7366;1.9010;-0.2309;-0.1363;0.3198
0000280240;4.8123;2.1452;1.3144;-0.3512;-0.2113;0.2986
0000280248;5.7724;1.9010;0.5914;-0.3417;-0.3199;0.1935
0000280256;6.3614;2.1979;0.7039;-0.2301;-0.4274;0.0221
0000280264;6.0454;2.5498;1.3096;-0.0815;-0.5369;-0.2154
0000280272;4.7094;3.1412;2.0686;0.0438;-0.6531;-0.4671
0000280280;3.2848;3.7062;2.5091;0.0787;-0.7762;-0.6642
0000280288;2.0590;4.4436;3.0909;-0.0036;-0.9310;-0.7498
0000280296;1.2426;5.0757;3.5769;-0.2216;-1.0729;-0.6777
0000280304;1.1372;5.3774;4.2713;-0.4790;-1.1818;-0.5071
0000280312;2.0303;5.2289;4.7166;-0.6839;-1.2401;-0.3127
0000280320;3.2058;4.8674;4.5801;-0.8003;-1.2634;-0.1463
0000280328;4.4819;4.5921;4.6759;-0.8392;-1.2726;-0.0365
0000280336;5.7604;4.1108;5.0709;-0.8644;-1.2586;0.0121
0000280344;6.1986;3.7445;5.1715;-0.9254;-1.2682;-0.0309
0000280352;6.2584;3.7350;5.0949;-1.0417;-1.2537;-0.0979
0000280360;5.8107;3.9193;5.1595;-1.1687;-1.2361;-0.1788
0000280368;5.4253;4.3120;4.7740;-1.2649;-1.2425;-0.2421
0000280376;4.8483;4.4029;4.7190;-1.3980;-1.2714;-0.2677
0000280384;4.5514;5.3510;6.0071;-1.6439;-1.3655;-0.2358
0000280392;4.1611;6.2680;9.5289;-2.0149;-1.5825;-0.1653
0000280400;3.6607;8.3151;17.3460;-2.5587;-1.9347;-0.0040
0000280408;2.0231;12.6366;32.0703;-3.2059;-2.3266;0.2650
0000280416;-0.4405;18.9597;44.5489;-3.6580;-2.4988;0.5832
0000280424;-0.9792;19.1800;36.4589;-3.8656;-2.3366;0.7982
0000280432;2.6193;11.3629;19.3835;-4.3657;-2.0924;0.8823
0000280440;9.9671;5.8610;14.3461;-4.3657;-1.9970;0.6526
0000280448;13.6446;4.4628;13.3166;-4.1035;-1.7848;0.3788
0000280456;13.8624;4.9991;9.8569;-2.7170;-1.3047;0.0903
0000280464;11.9064;6.6248;1.7933;-1.4474;-0.7714;-0.1905
0000280472;9.3613;8.5880;-5.3654;-0.9514;-0.4875;-0.3856
0000280480;6.4572;9.6941;-8.5617;-1.1670;-0.5315;-0.4093
0000280488;3.3782;10.1347;-7.7644;-1.8395;-0.7137;-0.3360
0000280496;0.6416;8.4443;-2.6480;-2.6489;-0.7963;-0.2685
0000280504;1.1444;7.8266;0.9457;-3.3353;-0.9126;-0.3317
0000280512;1.2067;5.1906;1.6137;-3.9155;-0.9819;-0.4261
0000280520;2.2984;1.8723;1.4365;-4.3657;-1.0540;-0.4451
0000280528;3.2250;-0.1317;2.7557;-4.3657;-1.1145;-0.3186
0000280536;4.5155;-0.8188;4.5107;-4.3657;-1.2245;-0.1480
0000280544;4.9081;-1.3072;5.5426;-4.3657;-1.3071;0.0197
0000280552;5.2361;-1.4748;5.5426;-4.3657;-1.2812;0.2312
0000280560;5.2505;-1.7406;4.5418;-4.3657;-1.1658;0.5335
0000280568;5.5091;-1.2306;3.5099;-3.9462;-1.0106;0.8655
0000280576;6.4428;-1.4437;2.6695;-3.4789;-0.8262;1.2321
0000280661;-0.8116;6.8019;-1.5754;-4.3657;0.5545;-0.2629
0000280669;-0.2251;3.5458;2.0710;-4.3657;0.4750;0.0088
0000280677;1.4222;0.5626;4.7525;-4.3657;0.3497;0.2519
0000280685;2.8084;-1.4030;7.0222;-4.3657;0.1829;0.4495
0000280693;3.7685;-2.3463;7.9104;-4.2786;0.0242;0.5712
0000280701;4.3407;-1.7047;7.5034;-3.7000;-0.0534;0.6307
0000280709;4.3335;-1.2139;6.9935;-3.0025;-0.0652;0.5852
0000280717;4.3742;-0.2993;6.3542;-2.3650;-0.0561;0.4239
0000280725;4.6974;1.3743;5.4348;-1.9228;-0.0658;0.1913
0000280733;5.2672;3.1364;3.2034;-1.7227;-0.1451;0.0775
0000280741;5.5210;3.2106;-0.6464;-1.8964;-0.1896;0.1777
0000280749;6.0310;1.8675;-3.2082;-2.3482;-0.1843;0.3906
0000280757;6.6846;-0.3089;-4.1492;-2.8061;-0.1545;0.5384
0000280765;7.4077;-2.3631;-3.9696;-3.1271;-0.0695;0.6146
0000280773;7.2808;-3.9911;-3.0502;-3.2692;0.0683;0.5938
0000280781;7.2544;-5.1068;-2.0997;-3.2919;0.1933;0.5185
0000280789;7.1706;-6.0837;-1.1540;-3.2863;0.2510;0.4157
0000280797;6.9576;-6.6702;-0.8308;-3.2631;0.2585;0.3216
0000280805;6.7229;-6.8881;-0.7278;-3.2688;0.2366;0.2348
0000280813;6.7181;-6.8618;-0.6847;-3.3081;0.1701;0.1747
0000280821;6.5769;-7.1946;-0.2753;-3.3715;0.0713;0.1363
0000280829;6.5817;-7.6160;-0.1125;-3.4447;-0.0322;0.1005
0000280837;6.7133;-7.9583;0.1963;-3.5300;-0.1579;0.0522
0000280845;7.8362;-11.8728;5.0877;-3.5741;-0.5252;-0.1982
0000280853;10.4196;-23.8750;12.6534;-3.7467;-1.5667;-1.0291
0000280861;9.9527;-40.8834;24.4352;-4.0068;-2.0688;-2.1829
0000280869;6.5553;-42.6599;17.9374;-3.9491;-1.0661;-2.4688
0000280877;5.4708;-32.2882;5.4229;-3.8052;-0.1175;-2.2111
0000280885;6.0932;-23.8103;-2.8491;-3.9129;-0.3701;-1.9676
0000280893;5.8658;-16.6636;-1.6209;-3.9868;-0.3103;-1.6359
0000280901;6.6559;-12.4091;-0.7877;-3.9989;-0.2605;-1.4537
0000280909;7.0246;-9.9359;-0.2035;-3.8287;-0.2674;-1.3893
0000280917;7.5753;-10.7212;-0.3783;-3.6876;-0.2759;-1.3596
0000280925;8.8921;-13.6302;0.0622;-3.6776;-0.2964;-1.3133
0000280933;12.0333;-16.1896;3.3423;-3.4574;-0.2598;-1.3554
0000280941;13.8026;-16.8576;5.8155;-2.6709;-0.2174;-1.4917
0000280949;14.2886;-17.3628;6.0789;-1.5008;-0.1520;-1.5455
0000280957;15.4426;-19.2685;4.8937;-0.3797;-0.2224;-1.5900
0000280965;14.1713;-21.9572;3.1651;0.3772;-0.4470;-1.5103
0000280973;11.2456;-21.8327;0.8356;0.8060;-0.6384;-1.1024
0000280981;9.7588;-20.0179;-1.6664;0.9642;-0.9290;-0.5821
0000280989;9.6462;-18.2797;-3.0143;1.0237;-1.3346;-0.1268
0000280997;11.3892;-18.0690;-1.5490;1.1883;-1.6935;0.1903
0000281005;13.6398;-18.2965;-0.0096;1.5705;-1.9009;0.2931
0000281013;15.6102;-19.9844;2.6121;2.0976;-1.8738;0.2217
0000281021;16.4194;-20.3196;4.4484;2.7220;-1.6868;0.0428
0000281029;15.2798;-19.1464;4.7788;3.3284;-1.3771;-0.1811
0000281037;13.6398;-17.8919;5.4684;3.8661;-1.0852;-0.3977
0000281045;12.6797;-18.5455;7.0030;4.3656;-0.9217;-0.6335
0000281053;10.9966;-18.4449;6.6774;4.3656;-0.8058;-0.7882
0000281061;9.1387;-15.4426;3.7421;4.3656;-0.7252;-0.8467
0000281069;8.4994;-12.3589;2.0877;4.3656;-0.6789;-0.8757
0000281077;9.4284;-10.8362;1.2809;4.3656;-0.6941;-0.9570
0000281085;10.1754;-11.1905;2.7677;4.3656;-0.7368;-1.0898
0000281093;12.0524;-12.3637;5.8921;4.3656;-0.7731;-1.3059
0000281101;13.0915;-13.2280;8.3199;4.3656;-0.9014;-1.5884
0000281109;13.1849;-14.0133;12.0261;4.3656;-1.0134;-1.7636
0000281117;12.9766;-11.7388;15.4809;4.3656;-1.7114;-1.8142
0000281125;10.4698;0.0239;24.4783;4.3656;-3.2181;-0.7402
0000281133;11.5999;8.8155;31.3880;1.9353;-3.3825;1.3367
0000281141;21.3156;0.8906;33.1238;-0.6835;-1.1407;2.7740
0000281149;34.2898;-11.0277;35.4078;-1.5255;1.6939;3.0639
0000281157;36.7390;-16.8073;37.3280;-1.1169;2.3790;2.4183
0000281165;29.9754;-15.4761;23.6451;-0.8063;2.2609;1.5370
0000281173;22.1344;-11.8872;13.5392;-1.0015;2.0130;0.7922
0000281181;16.9581;-9.8114;9.4954;-1.2805;1.7263;0.2903
0000281189;14.1162;-9.0621;7.4244;-1.4208;1.4115;-0.0522
0000281197;11.8968;-8.3989;6.2201;-1.4220;1.1819;-0.2823
0000281205;10.8697;-7.9464;5.4468;-1.3274;1.0629;-0.4323
0000281213;9.7540;-7.5585;5.1116;-1.1467;1.0363;-0.5004
0000281221;9.1746;-7.3717;4.9416;-0.8632;1.0874;-0.5091
0000281311;6.8881;-10.4459;7.8123;-0.0998;1.0373;-0.3710
0000281319;6.2106;-11.8250;11.9806;0.4116;0.7385;-0.3240
0000281327;5.6479;-13.1825;16.5152;1.0059;0.3417;-0.2442
0000281335;4.3910;-13.3908;19.3451;1.4731;-0.1739;-0.1323
0000281343;3.2848;-12.0572;19.6396;1.5511;-0.6418;0.0124
0000281351;2.9951;-9.3398;18.2654;1.1373;-0.9363;0.1508
0000281359;3.8188;-6.2537;15.8807;0.4138;-0.9350;0.2253
0000281367;5.5857;-4.8698;13.4267;-0.2277;-0.6876;0.2016
0000281375;7.1658;-4.7812;11.1761;-0.6246;-0.3671;0.1142
0000281383;8.5018;-5.2864;9.3398;-0.7260;-0.0743;-0.0155
0000281391;9.0333;-6.0717;8.9256;-0.6643;0.0870;-0.1408
0000281399;9.3733;-7.2760;8.4707;-0.4948;0.1444;-0.2317
0000281407;9.4763;-8.0134;8.9088;-0.2189;0.1779;-0.3078
0000281415;9.3853;-8.7987;7.9152;0.0613;0.2248;-0.3512
0000281423;9.4882;-9.0836;7.3430;0.2911;0.3027;-0.3709
0000281431;8.9830;-9.5529;7.1587;0.5047;0.3830;-0.3697
0000281439;8.9735;-9.4332;7.0749;0.6949;0.4394;-0.3411
0000281447;8.3103;-9.3518;7.3694;0.8143;0.4150;-0.2982
0000281455;7.7237;-9.0333;8.0756;0.8604;0.3401;-0.2525
0000281463;7.0605;-8.2624;8.9160;0.8667;0.2129;-0.2056
0000281471;6.4117;-7.3646;9.6295;0.7638;0.0404;-0.1528
0000281479;5.7197;-6.6559;10.2592;0.5740;-0.1532;-0.0973
0000281487;5.4013;-5.9807;10.5919;0.3323;-0.3595;-0.0564
0000281495;5.5498;-5.7868;10.6997;0.0695;-0.5017;-0.0048
0000281503;5.9544;-5.6192;10.2639;-0.1478;-0.5957;0.0305
0000281511;6.4356;-5.9400;10.3238;-0.2437;-0.6512;0.0581
0000281519;6.9216;-6.4069;10.3430;-0.2154;-0.6719;0.0883
0000281527;7.1874;-6.5721;10.3094;-0.0826;-0.6650;0.1423
0000281535;8.0637;-6.8714;9.9982;0.0937;-0.6159;0.1565
0000281543;8.4396;-7.1754;9.0668;0.2225;-0.5935;0.1420
0000281551;9.0405;-7.1970;8.7436;0.3376;-0.5562;0.0809
0000281559;9.5122;-7.0246;8.6119;0.3885;-0.4964;0.0187
0000281567;9.6175;-7.1395;8.0445;0.3958;-0.4422;-0.0642
0000281575;9.9048;-6.9336;7.7548;0.3861;-0.3924;-0.1464
0000281583;10.0078;-6.7469;7.7596;0.3388;-0.3401;-0.2104
0000281591;10.0006;-6.8881;7.9009;0.2789;-0.3127;-0.2641
0000281599;9.4092;-7.0222;8.0780;0.2165;-0.3076;-0.2811
0000281607;9.1051;-7.2832;8.4803;0.1576;-0.3016;-0.2525
0000281615;8.8945;-7.2856;8.8322;0.1234;-0.3331;-0.1948
0000281623;8.4779;-7.4771;9.2273;0.1014;-0.3821;-0.1292
0000281631;8.5760;-7.3191;9.4619;0.0822;-0.4315;-0.0270
0000281639;8.7939;-6.9552;9.6295;0.0675;-0.4727;0.0662
0000281647;9.3805;-6.4859;9.7803;0.0609;-0.4910;0.1450
0000281655;9.4571;-6.2848;9.7492;0.0317;-0.4835;0.2086
0000281663;9.9647;-5.7676;9.8545;-0.0085;-0.4483;0.2553
0000281671;9.8378;-5.5976;9.8521;-0.0420;-0.3980;0.2615
0000281679;10.1849;-5.5641;9.8234;-0.0480;-0.3400;0.2301
0000281687;9.8378;-5.8826;9.8138;-0.0385;-0.2589;0.1557
0000281695;9.5529;-6.1507;9.5265;-0.0067;-0.1990;0.0538
0000281703;8.9830;-6.6679;9.2033;0.0254;-0.1423;-0.0226
0000281711;8.4276;-7.1228;9.0668;0.0536;-0.1167;-0.0813
0000281719;7.8195;-7.8195;8.9280;0.0741;-0.1187;-0.0939
0000281727;7.2472;-8.2408;8.7101;0.0961;-0.1462;-0.0785
0000281736;6.8546;-8.6431;8.7436;0.1038;-0.2006;-0.0192
0000281745;6.5290;-8.9280;8.8250;0.1086;-0.2928;0.0566
0000281754;6.2560;-9.2344;8.7077;0.1148;-0.3929;0.1533
0000281763;6.2656;-8.9783;8.8585;0.1246;-0.5101;0.2354
0000281772;6.6487;-8.7867;9.0788;0.1464;-0.6590;0.2851
0000281781;7.0222;-8.2408;9.1842;0.1557;-0.8070;0.2998
0000281790;7.5178;-7.6088;9.4763;0.1844;-0.9722;0.2742
0000281799;8.1403;-7.0844;9.5984;0.1962;-1.1129;0.2368
0000281808;9.0261;-6.4500;9.8665;0.2206;-1.2637;0.1803
0000281817;9.6798;-5.9783;10.2304;0.2619;-1.3696;0.1268
0000281826;10.5919;-5.3941;10.0006;0.3166;-1.4053;0.0582
0000281835;11.3150;-4.9105;9.4260;0.3467;-1.3274;-0.0213
0000281844;11.5281;-4.5657;8.7412;0.2892;-1.1080;-0.0766
0000281853;11.4395;-4.2545;8.1403;0.2092;-0.8310;-0.1239
0000281862;11.6885;-4.1803;7.8195;0.1006;-0.5379;-0.1603
0000281871;11.4179;-4.4293;7.3454;-0.0075;-0.3403;-0.2121
0000281880;11.6382;-4.6088;7.3789;-0.0657;-0.2677;-0.2651
0000281889;11.7843;-4.9704;7.3526;-0.1298;-0.2725;-0.3123
0000282030;10.4938;-7.7500;8.6263;-0.1933;0.3428;0.2441
0000282039;10.3717;-7.8434;8.7245;-0.1776;0.3389;0.2434
0000282048;10.0892;-7.9080;8.7580;-0.1392;0.3238;0.2161
0000282057;9.9958;-7.9871;8.7724;-0.1127;0.3119;0.1880
0000282066;9.9790;-7.7548;8.6311;-0.0913;0.2911;0.1591
0000282075;10.0556;-7.8075;8.7364;-0.0751;0.2682;0.1491
0000282084;10.0054;-7.7333;8.7460;-0.0774;0.2683;0.1451
0000282093;9.9838;-7.5082;9.0405;-0.0814;0.2742;0.1374
0000282102;9.9192;-7.4867;9.1099;-0.0935;0.2926;0.1323
0000282111;10.1275;-7.2544;9.1961;-0.1026;0.3146;0.1110
0000282120;9.6079;-7.4340;9.2129;-0.1009;0.3198;0.0826
0000282129;9.5265;-7.3430;9.2344;-0.1013;0.3224;0.0540
0000282138;9.4475;-7.4220;9.2296;-0.0767;0.2998;0.0264
0000282147;9.2344;-7.4986;9.2105;-0.0398;0.2646;-0.0024
0000282156;9.1626;-7.3933;9.1889;-0.0084;0.2394;-0.0052
0000282165;9.0022;-7.3837;8.9280;0.0308;0.1927;0.0007
0000282174;8.9735;-7.1946;8.9304;0.0513;0.1551;0.0216
0000282183;9.1219;-7.1228;8.7317;0.0598;0.1156;0.0380
0000282192;9.1626;-6.9025;8.7724;0.0481;0.0813;0.0480
0000282201;9.2919;-6.7325;8.6981;0.0321;0.0510;0.0490
0000282210;9.1674;-6.7708;8.8849;0.0152;0.0430;0.0501
0000282219;9.1267;-6.9049;8.8849;0.0037;0.0260;0.0364
0000282228;9.5313;-6.6463;8.9807;0.0007;0.0156;0.0128
0000282237;9.3015;-6.9743;8.9112;0.0011;-0.0063;-0.0029
0000282246;9.2943;-6.7971;8.8897;-0.0068;-0.0246;-0.0176
0000282255;9.3230;-6.9097;9.0621;0.0087;-0.0620;-0.0244
0000282264;9.2296;-7.2975;9.1961;0.0188;-0.0866;-0.0268
0000282273;9.4260;-7.2425;9.3589;0.0546;-0.0995;-0.0384
0000282282;9.3901;-7.3502;9.4667;0.0926;-0.1152;-0.0574
0000282291;9.6869;-7.2233;9.5193;0.1310;-0.1128;-0.0769
0000282300;9.6917;-7.3143;9.3685;0.1776;-0.1323;-0.1144
0000282309;9.6486;-7.1156;9.3565;0.2078;-0.1318;-0.1280
0000282318;9.6031;-7.0485;9.2440;0.2419;-0.1588;-0.1500
0000282327;9.6438;-7.0270;9.3063;0.2579;-0.1719;-0.1585
0000282336;9.6678;-6.8738;9.2943;0.2783;-0.1955;-0.1661
0000282345;9.7683;-7.1994;9.5409;0.3222;-0.2182;-0.1733
0000282354;9.8833;-7.5010;10.3142;0.4057;-0.2209;-0.1753
0000282363;10.2448;-8.0517;11.3246;0.5552;-0.1939;-0.1888
0000282372;10.6303;-8.2361;12.2799;0.7594;-0.1848;-0.2431
0000282381;11.3318;-7.8697;11.7460;0.9237;-0.1989;-0.3303
0000282390;11.4970;-7.1323;9.9527;0.9698;-0.2324;-0.4462
0000282399;11.2120;-6.1459;7.4172;0.8408;-0.2102;-0.4902
0000282408;10.7021;-5.2337;5.0757;0.5537;-0.1318;-0.4441
0000282417;9.8497;-5.0901;4.2306;0.1849;-0.1031;-0.3134
0000282426;9.1602;-5.1715;4.2760;-0.1692;-0.1455;-0.1508
0000282435;8.5305;-5.2122;5.0829;-0.4165;-0.1976;-0.0144
0000282444;8.4563;-5.6048;6.9911;-0.4803;-0.2274;0.0881
0000282453;8.6455;-6.3877;9.2009;-0.3702;-0.2967;0.1302
0000282462;9.2009;-6.6679;10.1969;-0.1701;-0.3761;0.1335
0000282471;9.7324;-6.3949;8.8490;-0.0320;-0.4650;0.0846
0000282480;10.1131;-5.9280;6.4811;-0.1046;-0.4451;0.0424
0000282489;10.2161;-5.5474;5.7988;-0.2825;-0.4249;0.0306
0000282498;10.5321;-5.5115;6.2489;-0.4231;-0.4643;0.0544
0000282507;10.6901;-5.7772;7.4579;-0.5204;-0.5227;0.0843
0000282516;10.9559;-6.2584;9.9814;-0.4887;-0.5252;0.1288
0000282525;11.6574;-7.5298;13.2543;-0.2455;-0.4742;0.1127
0000282534;12.4139;-8.7676;15.0978;0.1251;-0.3728;0.0035
0000282543;13.4387;-8.8609;13.8337;0.4098;-0.1917;-0.1443
0000282552;14.0875;-8.3007;10.7859;0.4966;0.0346;-0.2761
0000282561;13.5344;-7.1204;7.9080;0.3877;0.2574;-0.3499
0000282570;12.2368;-6.5218;6.2249;0.2361;0.3475;-0.3375
0000282579;11.0732;-5.9664;5.5713;0.0576;0.3361;-0.2426
0000282588;10.0149;-5.6479;5.2864;-0.1099;0.2786;-0.0986
0000282597;8.7340;-5.7102;5.4061;-0.2690;0.2490;0.0462
0000282606;8.0637;-5.6407;5.8586;-0.3742;0.2281;0.1557
0000282615;7.4484;-5.8059;6.7349;-0.4173;0.1591;0.2273
0000282624;7.3550;-5.7868;7.6926;-0.4070;0.0242;0.2815
0000282633;7.6447;-5.9520;8.9256;-0.3333;-0.1860;0.3028
0000282642;8.2959;-6.3614;10.4435;-0.2180;-0.3778;0.3102
0000282651;9.5505;-6.7373;12.1602;-0.0653;-0.5051;0.2980
0000282660;10.9271;-7.2257;13.0460;0.0859;-0.5419;0.2458
0000282669;12.8593;-7.1970;12.4331;0.1700;-0.4345;0.1383
0000282756;8.2432;-7.2137;9.6606;0.1127;-0.0564;0.1142
0000282765;8.9399;-6.7253;9.6869;0.1396;-0.1423;0.1184
0000282774;9.7779;-6.0382;9.2320;0.1204;-0.2345;0.0977
0000282783;10.6015;-5.8514;9.2727;0.0414;-0.2778;0.0826
0000282792;11.3916;-6.0358;9.8593;-0.0215;-0.2793;0.0488
0000282801;12.0141;-6.4883;10.3262;-0.0390;-0.2340;0.0023
0000282810;12.4259;-6.7852;10.1634;-0.0101;-0.1310;-0.0570
0000282819;12.3517;-7.2089;9.3925;0.0293;-0.0139;-0.1136
0000282828;11.7124;-7.3263;8.4539;0.0766;0.0769;-0.1555
0000282837;11.1450;-6.9671;7.4196;0.1027;0.1411;-0.1655
0000282846;10.4435;-6.5529;6.7636;0.0909;0.1732;-0.1283
0000282855;9.7564;-6.2321;6.5338;0.0441;0.1540;-0.0990
0000282864;9.1961;-6.0310;6.8259;-0.0338;0.0935;-0.0520
0000282873;8.9639;-5.9041;7.4603;-0.1043;0.0067;-0.0096
0000282882;8.7077;-6.3135;8.3534;-0.1792;-0.0849;0.0374
0000282891;9.2129;-6.5673;9.3111;-0.2166;-0.1809;0.0612
0000282900;9.8426;-6.8977;10.0317;-0.2130;-0.2353;0.0853
0000282909;10.9056;-7.2233;10.4986;-0.1704;-0.2417;0.0885
0000282918;11.6813;-7.5034;10.7476;-0.0609;-0.2224;0.0553
0000282927;12.3086;-7.6399;10.4746;0.0526;-0.1510;0.0013
0000282936;12.4762;-7.4484;9.5529;0.1552;-0.0625;-0.0763
0000282945;12.2559;-7.0629;8.6359;0.1847;0.0357;-0.1198
0000282954;11.6238;-6.7157;7.9368;0.1961;0.1023;-0.1320
0000282963;10.9104;-6.4093;7.4460;0.1553;0.1624;-0.1144
0000282972;10.1969;-6.0956;7.2353;0.0893;0.1829;-0.0918
0000282981;9.4858;-6.1124;7.0701;-0.0061;0.1720;-0.0550
0000282990;9.0166;-6.0956;7.1515;-0.1086;0.1238;-0.0091
0000282999;8.9495;-6.0262;7.6327;-0.1721;0.0321;0.0278
0000283008;8.9974;-6.3111;8.4803;-0.2040;-0.0678;0.0705
0000283017;9.4403;-6.8139;9.1937;-0.1825;-0.1600;0.0897
0000283026;10.0078;-7.0006;9.8809;-0.1370;-0.1935;0.1135
0000283035;10.8002;-7.0318;10.3190;-0.0552;-0.2006;0.1043
0000283044;11.3964;-7.2712;10.3358;0.0103;-0.1736;0.0841
0000283053;11.7364;-7.1180;9.7229;0.0486;-0.1099;0.0437
0000283062;11.7148;-6.8738;8.8873;0.0477;-0.0352;-0.0037
0000283071;11.5712;-6.6822;8.2097;0.0141;0.0278;-0.0301
0000283080;10.8146;-6.7325;7.8745;-0.0083;0.0669;-0.0402
0000283089;10.3406;-6.4883;7.8338;-0.0309;0.0839;-0.0366
0000283098;9.8210;-6.5242;8.0469;-0.0374;0.0869;-0.0268
0000283107;9.3589;-6.7301;8.2624;-0.0305;0.0600;-0.0188
0000283116;9.3134;-6.6655;8.5497;-0.0224;0.0188;-0.0160
0000283125;9.3254;-6.5841;8.8083;-0.0244;-0.0293;-0.0063
0000283134;9.7995;-6.6439;9.0046;-0.0270;-0.0839;-0.0056
0000283143;9.8809;-6.8905;9.2440;-0.0366;-0.1192;0.0071
0000283152;10.4291;-6.9552;9.0214;-0.0469;-0.1410;0.0089
0000283161;10.9822;-6.7660;8.9304;-0.0702;-0.1279;0.0173
0000283170;11.0995;-6.8283;8.7436;-0.0778;-0.1175;0.0040
0000283179;11.0995;-6.8283;8.6191;-0.0854;-0.0821;0.0036
0000283188;11.0923;-6.8283;8.4779;-0.0787;-0.0420;0.0000
0000283197;10.7021;-6.9695;8.6574;-0.0484;-0.0236;-0.0133
0000283206;10.6470;-6.8354;8.8729;-0.0100;-0.0004;-0.0171
0000283215;10.3166;-6.8714;9.0333;0.0345;0.0108;-0.0300
0000283224;10.4411;-6.9001;9.1626;0.0665;0.0080;-0.0414
0000283233;10.4842;-6.6535;9.0573;0.0823;-0.0093;-0.0616
0000283242;10.5848;-6.4045;8.6335;0.0585;-0.0234;-0.0609
0000283251;10.5225;-6.5529;8.3749;0.0242;-0.0405;-0.0638
0000283260;10.4172;-6.6295;8.2696;-0.0269;-0.0485;-0.0437
0000283269;10.3837;-6.7229;8.3079;-0.0634;-0.0484;-0.0212
0000283278;10.3908;-6.9552;8.5784;-0.0632;-0.0482;-0.0020
0000283287;10.6183;-6.8474;8.9256;-0.0473;-0.0301;0.0105
0000283296;10.6039;-7.0749;9.0429;-0.0001;-0.0304;0.0008
0000283305;10.6470;-6.9528;9.0118;0.0338;-0.0216;-0.0003
0000283314;10.6829;-6.7421;8.8633;0.0456;-0.0203;-0.0104
0000283323;10.5704;-6.6774;8.5138;0.0442;-0.0294;-0.0161
0000283332;10.5967;-6.4260;8.3582;0.0067;-0.0165;-0.0099
0000283341;10.3789;-6.5553;8.3055;-0.0282;-0.0091;-0.0040
0000283350;10.4411;-6.5434;8.3749;-0.0526;-0.0177;-0.0011
0000283359;10.2137;-6.8498;8.7125;-0.0596;-0.0111;0.0108
0000283368;10.2041;-7.0605;9.0166;-0.0330;-0.0273;0.0005
0000283377;10.4722;-7.0653;9.2201;-0.0069;-0.0336;0.0024
0000283386;10.4483;-7.1443;9.2129;0.0329;-0.0464;-0.0133
0000283473;10.8505;-7.0270;9.6151;0.1444;-0.0498;-0.0590
0000283482;11.0085;-6.9552;9.1219;0.1592;-0.0337;-0.0817
0000283491;11.0325;-6.5625;8.4276;0.1394;-0.0148;-0.0937
0000283500;10.4172;-6.5912;7.9248;0.0830;-0.0043;-0.0935
0000283509;10.3908;-6.3159;7.7165;0.0088;-0.0037;-0.0701
0000283518;9.9383;-6.2560;7.7309;-0.0666;-0.0171;-0.0364
0000283527;9.9000;-6.4643;8.1116;-0.1055;-0.0344;0.0011
0000283536;9.8354;-6.7876;8.8753;-0.0879;-0.0554;0.0213
0000283545;10.2951;-6.9791;9.6989;-0.0151;-0.0637;0.0212
0000283554;10.6686;-7.2449;10.0413;0.0946;-0.0629;-0.0011
0000283563;11.0277;-7.1180;9.8378;0.1795;-0.0670;-0.0556
0000283572;11.0708;-6.7612;9.1051;0.1941;-0.0476;-0.0937
0000283581;11.0660;-6.5601;8.3917;0.1523;-0.0296;-0.1182
0000283590;10.7619;-6.2920;7.8051;0.0690;-0.0234;-0.1027
0000283599;10.5058;-6.0142;7.2999;-0.0432;-0.0016;-0.0568
0000283608;10.0580;-6.1651;7.2496;-0.1376;-0.0068;-0.0089
0000283617;9.9575;-6.3231;8.0254;-0.1701;-0.0209;0.0362
0000283626;10.0173;-6.8857;9.2871;-0.1094;-0.0442;0.0572
0000283635;10.4794;-7.2712;10.5848;0.0489;-0.0558;0.0276
0000283644;10.8242;-7.5369;11.3533;0.2316;-0.0517;-0.0268
0000283653;11.3749;-7.2760;11.1139;0.3832;-0.0532;-0.1236
0000283662;11.5616;-6.8809;9.9599;0.4143;-0.0261;-0.1907
0000283671;11.5999;-6.1938;8.4755;0.3180;0.0405;-0.2129
0000283680;11.2432;-5.9065;7.2616;0.1721;0.0930;-0.1727
0000283689;10.7404;-5.6455;6.3758;-0.0196;0.1179;-0.1009
0000283698;9.8234;-5.8586;6.0118;-0.2020;0.1238;-0.0169
0000283707;9.3111;-6.1172;6.3327;-0.3095;0.0835;0.0574
0000283716;9.2727;-6.4428;7.6614;-0.2900;0.0208;0.1088
0000283725;9.5313;-7.0581;9.8258;-0.1458;-0.0397;0.1162
0000283734;10.2424;-7.4867;11.6837;0.1011;-0.0778;0.0573
0000283743;10.7907;-7.7859;12.6558;0.3343;-0.0838;-0.0453
0000283752;11.6454;-7.2808;11.7890;0.4747;-0.0645;-0.1589
0000283761;12.4307;-6.3327;9.9910;0.4636;0.0007;-0.2294
0000283770;12.0787;-5.8179;8.1714;0.3272;0.1120;-0.2451
0000283779;11.5041;-5.4899;7.0006;0.1424;0.1992;-0.1832
0000283788;10.6039;-5.5426;6.2441;-0.0382;0.2434;-0.0965
0000283797;9.9503;-5.6862;5.9065;-0.1900;0.2537;0.0113
0000283806;9.5984;-5.8945;6.1866;-0.2936;0.2192;0.1112
0000283815;9.3039;-6.2225;6.8187;-0.3048;0.1362;0.1827
0000283824;8.9926;-6.7612;8.2983;-0.2201;0.0522;0.2029
0000283833;9.3182;-7.2592;10.5943;-0.0268;-0.0378;0.1571
0000283842;9.9742;-7.4555;12.2128;0.1982;-0.0562;0.0649
0000283851;10.8050;-7.4412;12.4810;0.3605;-0.0428;-0.0723
0000283860;11.8609;-6.4787;10.8338;0.3974;0.0044;-0.1952
0000283869;12.0548;-5.9017;8.6479;0.2634;0.1263;-0.2304
0000283878;11.7388;-5.5593;7.3143;0.0811;0.2228;-0.2086
0000283887;11.1905;-5.4540;6.7325;-0.0897;0.2613;-0.1350
0000283896;10.5704;-5.6886;6.8546;-0.2278;0.2831;-0.0238
0000283905;9.7923;-6.3159;7.1419;-0.2814;0.2618;0.0675
0000283914;9.3565;-6.5817;7.1850;-0.2710;0.2332;0.1370
0000283923;9.0094;-6.6559;7.0629;-0.2427;0.1931;0.1737
0000283932;8.5760;-6.8738;7.2185;-0.2010;0.1123;0.1639
0000283941;8.4539;-6.9623;7.8195;-0.1518;0.0191;0.1515
0000283950;8.2217;-6.9432;8.6598;-0.0886;-0.0582;0.1131
0000283959;8.7197;-6.8881;10.0533;-0.0124;-0.1168;0.0846
0000283968;9.3589;-6.9121;11.8824;0.1079;-0.1597;0.0410
0000283977;10.6973;-6.6535;12.4666;0.1972;-0.1640;-0.0047
0000283986;11.5784;-6.2920;11.1690;0.1828;-0.1061;-0.0596
0000283995;11.6406;-5.8969;8.7388;0.0484;0.0241;-0.0946
0000284004;11.3964;-5.8730;7.6447;-0.1077;0.1348;-0.0939
0000284013;11.0014;-5.7652;7.1371;-0.2012;0.1544;-0.0686
0000284022;10.3334;-5.8921;7.3646;-0.2450;0.1422;-0.0119
0000284031;9.4332;-6.4524;7.9080;-0.2164;0.1154;0.0344
0000284040;9.0668;-6.5074;8.2384;-0.1447;0.0982;0.0537
0000284049;8.4324;-6.7277;8.3534;-0.0566;0.0566;0.0341
0000284058;8.5234;-6.6295;8.7700;0.0141;-0.0053;0.0048
0000284067;8.5425;-6.5577;9.2560;0.0718;-0.0814;-0.0517
0000284076;8.9328;-6.5434;10.0197;0.1163;-0.1643;-0.1026
0000284085;9.6175;-6.7253;10.6590;0.1180;-0.2025;-0.1294
0000284094;10.6350;-6.5649;10.8745;0.0942;-0.2052;-0.1402
0000284103;11.3868;-6.5936;10.4004;0.0517;-0.1787;-0.1507
0000284189;9.1674;-6.1292;9.1530;0.1171;-0.1474;-0.0045
0000284198;9.7564;-5.9879;9.0764;0.0477;-0.1931;-0.0159
0000284207;10.3046;-5.9903;9.0788;-0.0533;-0.2242;0.0025
0000284216;10.7978;-5.8993;8.9902;-0.1707;-0.2221;0.0344
0000284225;10.9894;-6.3901;9.0740;-0.2345;-0.2064;0.0585
0000284234;11.0732;-6.6942;9.0261;-0.2446;-0.1715;0.0833
0000284243;10.9559;-7.0605;9.1051;-0.1974;-0.1475;0.0771
0000284252;10.6566;-7.2688;8.9447;-0.1318;-0.1111;0.0578
0000284261;10.3358;-7.3215;8.7652;-0.0526;-0.0817;0.0321
0000284270;10.3693;-6.7971;8.4970;0.0047;-0.0556;0.0112
0000284279;10.1634;-6.6439;8.3558;0.0278;-0.0461;0.0019
0000284288;9.8928;-6.1938;8.3294;0.0310;-0.0533;-0.0009
0000284297;9.8043;-6.0238;8.7700;0.0164;-0.0633;0.0091
0000284306;9.9886;-5.9640;9.5864;0.0229;-0.0913;-0.0023
0000284315;10.2520;-6.0238;10.0149;0.0222;-0.0997;-0.0237
0000284324;10.7093;-6.3590;10.0269;0.0128;-0.0974;-0.0448
0000284333;10.8481;-6.5362;9.6199;-0.0095;-0.0767;-0.0588
0000284342;10.9152;-6.6104;8.8466;-0.0474;-0.0608;-0.0557
0000284351;10.8505;-6.5625;7.9918;-0.0871;-0.0410;-0.0426
0000284360;10.4291;-6.7157;7.7428;-0.1144;-0.0325;-0.0117
0000284369;10.0413;-6.6272;7.8075;-0.1095;-0.0370;0.0256
0000284378;9.6989;-6.8043;8.0158;-0.0841;-0.0376;0.0492
0000284387;9.7229;-6.5745;8.7795;-0.0330;-0.0517;0.0481
0000284396;9.6845;-6.7612;9.2943;0.0091;-0.0646;0.0380
0000284405;10.0269;-6.7373;9.6199;0.0373;-0.0890;0.0083
0000284414;10.5489;-6.6152;9.3733;0.0284;-0.1039;-0.0140
0000284423;10.8745;-6.5194;8.9016;-0.0205;-0.0890;-0.0088
0000284432;10.8936;-6.5218;8.6670;-0.0778;-0.0699;-0.0169
0000284441;10.6087;-6.8091;8.5521;-0.1214;-0.0368;0.0005
0000284450;10.6326;-6.6272;8.4036;-0.1304;-0.0125;0.0156
0000284459;10.3310;-6.8546;8.3773;-0.1195;0.0033;0.0357
0000284468;9.9695;-6.9384;8.6981;-0.0811;0.0032;0.0482
0000284477;9.9383;-6.9983;9.1171;-0.0322;-0.0041;0.0353
0000284486;10.0149;-6.8594;9.3613;0.0212;-0.0165;0.0161
0000284495;9.9216;-6.8283;9.2632;0.0488;-0.0152;0.0029
0000284504;10.3238;-6.5003;9.0142;0.0522;-0.0320;-0.0149
0000284513;10.3214;-6.2896;8.7340;0.0392;-0.0358;-0.0173
0000284522;10.3262;-6.2991;8.4922;-0.0008;-0.0404;-0.0221
0000284531;10.3645;-6.2752;8.4922;-0.0382;-0.0361;-0.0091
0000284540;10.1969;-6.5386;8.4946;-0.0690;-0.0304;0.0001
0000284549;10.3118;-6.6870;8.6311;-0.0771;-0.0262;0.0135
0000284558;10.2017;-6.7181;8.6598;-0.0795;-0.0229;0.0224
0000284567;10.1394;-7.0701;8.9112;-0.0577;-0.0258;0.0213
0000284576;10.4124;-6.8163;9.0477;-0.0256;-0.0284;0.0045
0000284585;10.4148;-6.9168;9.2536;0.0124;-0.0342;-0.0064
0000284594;10.4651;-6.7660;9.2847;0.0458;-0.0361;-0.0317
0000284603;10.5058;-6.6774;9.0573;0.0582;-0.0197;-0.0396
0000284612;10.4483;-6.5290;8.9088;0.0562;-0.0020;-0.0488
0000284621;10.4076;-6.4643;8.5425;0.0405;0.0136;-0.0542
0000284630;10.1035;-6.4739;8.3342;0.0027;0.0249;-0.0357
0000284639;9.8474;-6.6511;8.2744;-0.0250;0.0129;-0.0208
0000284648;9.9623;-6.5673;8.3175;-0.0393;-0.0161;-0.0095
0000284657;9.9551;-6.7301;8.6957;-0.0524;-0.0261;0.0028
0000284666;10.1442;-6.6224;9.0190;-0.0385;-0.0374;-0.0036
0000284675;10.2975;-6.7014;9.3015;-0.0105;-0.0385;-0.0113
0000284684;10.4483;-6.9097;9.2967;0.0179;-0.0333;-0.0248
0000284693;10.6231;-6.6607;9.2129;0.0406;-0.0209;-0.0329
0000284702;10.6853;-6.5864;9.0166;0.0534;-0.0027;-0.0473
0000284711;10.3573;-6.5457;8.7029;0.0429;0.0253;-0.0393
0000284720;10.3382;-6.4596;8.4851;0.0354;0.0362;-0.0330
0000284729;10.0652;-6.5338;8.3318;0.0027;0.0426;-0.0137
0000284738;9.8306;-6.5888;8.2768;-0.0185;0.0278;-0.0033
0000284747;9.9024;-6.5218;8.5736;-0.0326;0.0121;0.0112
0000284756;9.8904;-6.6200;9.0501;-0.0256;-0.0348;0.0107
0000284765;10.1035;-6.4141;9.1243;-0.0140;-0.0745;-0.0007
0000284774;10.1634;-6.7636;9.4044;-0.0019;-0.0886;-0.0103
0000284783;10.3334;-6.7828;9.2488;0.0185;-0.0821;-0.0324
0000284792;10.4411;-6.7660;9.1219;0.0236;-0.0358;-0.0310
0000284801;10.6829;-6.4835;8.7508;0.0241;0.0063;-0.0318
0000284810;10.5896;-6.5649;8.5497;0.0253;0.0354;-0.0316
0000284819;10.3908;-6.5098;8.2648;0.0144;0.0462;-0.0258
0000284904;10.5082;-6.6463;8.7197;-0.0545;-0.0232;-0.0220
0000284913;10.4124;-6.6726;8.6886;-0.0510;-0.0139;-0.0176
0000284922;10.2831;-6.9336;8.7388;-0.0385;-0.0124;-0.0171
0000284931;10.2256;-6.9456;8.9064;-0.0309;-0.0053;-0.0052
0000284940;10.1801;-6.8618;8.9543;-0.0149;-0.0071;0.0009
0000284949;10.1370;-6.6655;8.9208;0.0059;-0.0135;0.0019
0000284958;10.1370;-6.7397;9.0668;0.0119;-0.0133;0.0009
0000284967;10.4028;-6.3949;8.9735;0.0104;-0.0127;-0.0007
0000284976;10.1275;-6.5769;8.8562;0.0164;-0.0141;-0.0112
0000284985;10.1203;-6.3973;8.7532;-0.0007;-0.0065;-0.0089
0000284994;10.2592;-6.5314;8.7053;-0.0076;-0.0136;-0.0230
0000285003;10.2568;-6.5697;8.6574;-0.0217;-0.0079;-0.0175
0000285012;10.1203;-6.6655;8.6670;-0.0221;-0.0107;-0.0196
0000285021;10.1275;-6.6798;8.8538;-0.0179;-0.0115;-0.0195
0000285030;10.1754;-6.7421;8.9663;-0.0103;-0.0124;-0.0184
0000285039;10.2113;-6.5841;9.0046;0.0013;-0.0254;-0.0237
0000285048;10.3118;-6.5697;8.9878;-0.0007;-0.0289;-0.0207
0000285057;10.1778;-6.5338;8.8705;-0.0064;-0.0256;-0.0203
0000285066;10.1514;-6.4356;8.7819;-0.0248;-0.0153;-0.0141
0000285075;10.2879;-6.5864;8.7340;-0.0322;-0.0076;-0.0184
0000285084;10.3334;-6.5793;8.7724;-0.0490;0.0095;-0.0072
0000285093;10.3501;-6.6176;8.7891;-0.0449;0.0112;-0.0156
0000285102;10.4555;-6.6846;8.8083;-0.0308;0.0189;-0.0137
0000285111;10.4291;-6.7397;8.9974;-0.0197;0.0200;-0.0163
0000285120;10.1682;-6.8235;8.9998;0.0113;0.0143;-0.0262
0000285129;10.2113;-6.6224;9.0621;0.0242;0.0165;-0.0248
0000285138;10.2496;-6.6822;9.0621;0.0373;0.0112;-0.0297
0000285147;10.2687;-6.7900;8.9735;0.0304;0.0147;-0.0281
0000285156;10.1801;-6.7062;8.8011;0.0238;0.0109;-0.0337
0000285165;10.2089;-6.7181;8.7077;0.0053;0.0195;-0.0212
0000285174;10.3406;-6.5050;8.4635;-0.0061;0.0217;-0.0192
0000285183;10.0604;-6.5122;8.4994;-0.0144;0.0240;-0.0052
0000285192;9.8689;-6.6415;8.4635;-0.0226;0.0199;-0.0028
0000285201;9.9527;-6.3805;8.5641;-0.0290;0.0140;0.0071
0000285210;9.8306;-6.4524;8.7484;-0.0345;-0.0024;0.0128
0000285219;9.9000;-6.4308;8.9328;-0.0288;-0.0164;0.0029
0000285228;9.9288;-6.4476;9.0549;-0.0304;-0.0294;-0.0039
0000285237;9.9479;-6.5505;9.0980;-0.0320;-0.0361;-0.0032
0000285246;10.0269;-6.4787;9.0573;-0.0317;-0.0373;-0.0091
0000285255;10.3022;-6.5050;9.0309;-0.0388;-0.0199;-0.0096
0000285264;10.2807;-6.6367;8.9519;-0.0330;-0.0140;-0.0132
0000285273;10.2472;-6.7349;8.8585;-0.0321;-0.0064;-0.0119
0000285282;10.1849;-6.7804;8.7795;-0.0230;-0.0065;-0.0176
0000285291;10.1227;-6.7684;8.7987;-0.0117;-0.0111;-0.0152
0000285300;9.9407;-6.8019;8.8442;-0.0121;-0.0105;-0.0109
0000285309;9.9311;-6.7469;8.8921;0.0023;-0.0216;-0.0121
0000285318;10.0987;-6.5170;8.7891;0.0015;-0.0139;-0.0069
0000285327;10.2855;-6.3949;8.9208;0.0045;-0.0252;-0.0144
0000285336;10.1059;-6.5194;8.8155;-0.0052;-0.0171;-0.0135
0000285345;10.0365;-6.4955;8.8178;-0.0112;-0.0280;-0.0192
0000285354;10.0341;-6.5577;8.8394;-0.0151;-0.0382;-0.0217
0000285363;10.0269;-6.4763;8.7963;-0.0249;-0.0278;-0.0161
0000285372;10.1370;-6.6152;8.8418;-0.0296;-0.0342;-0.0205
0000285381;10.0509;-6.6104;8.9088;-0.0215;-0.0357;-0.0131
0000285390;10.0987;-6.6918;8.9064;-0.0188;-0.0424;-0.0183
0000285399;9.9982;-6.8283;8.9232;-0.0120;-0.0434;-0.0181
0000285408;10.0533;-6.7301;8.9950;-0.0096;-0.0398;-0.0129
0000285417;10.1873;-6.6655;8.9998;-0.0051;-0.0470;-0.0176
0000285426;10.0317;-6.6535;8.9423;-0.0115;-0.0382;-0.0083
0000285435;10.1849;-6.5505;8.7245;-0.0105;-0.0400;-0.0131
0000285444;10.2041;-6.5769;8.7388;-0.0143;-0.0276;-0.0028
0000285453;9.9671;-6.7540;8.7364;-0.0161;-0.0272;0.0011
0000285462;10.2304;-6.5481;8.7436;-0.0108;-0.0410;-0.0037
0000285471;10.1921;-6.4356;8.7819;-0.0153;-0.0394;0.0037
0000285480;10.0269;-6.5577;8.8466;-0.0185;-0.0493;0.0040
0000285489;10.2544;-6.5074;9.0142;-0.0115;-0.0593;-0.0041
0000285498;10.3430;-6.4045;9.0070;-0.0201;-0.0528;-0.0001
0000285507;10.2687;-6.5122;9.0022;-0.0144;-0.0454;-0.0091
0000285516;10.3166;-6.5864;8.9878;-0.0113;-0.0380;-0.0161
0000285525;10.2592;-6.7038;8.9711;-0.0013;-0.0312;-0.0211
0000285534;10.1754;-6.5864;8.8609;-0.0043;-0.0112;-0.0184
0000285619;10.2448;-6.4548;8.7652;-0.0184;-0.0330;-0.0071
0000285628;10.0868;-6.5553;8.8226;-0.0217;-0.0460;-0.0163
0000285637;10.1394;-6.4404;8.8514;-0.0308;-0.0318;-0.0073
0000285646;10.3453;-6.5793;8.8729;-0.0273;-0.0318;-0.0097
0000285655;10.2113;-6.4931;8.8873;-0.0309;-0.0205;-0.0060
0000285664;10.0652;-6.6152;8.9735;-0.0300;-0.0205;-0.0041
0000285673;9.9910;-6.7277;8.8897;-0.0265;-0.0204;-0.0055
0000285682;10.0652;-6.7157;8.8346;-0.0199;-0.0273;-0.0101
0000285691;10.0437;-6.6702;8.8849;-0.0185;-0.0232;-0.0025
0000285700;9.9096;-6.6559;8.8346;-0.0209;-0.0236;-0.0065
0000285709;10.1323;-6.6272;8.8729;-0.0183;-0.0309;-0.0032
0000285718;10.0317;-6.5888;8.8274;-0.0257;-0.0304;-0.0021
0000285727;9.9623;-6.6798;8.9160;-0.0250;-0.0377;-0.0044
0000285736;10.1562;-6.5290;8.8466;-0.0272;-0.0394;-0.0036
0000285745;10.0413;-6.6966;8.8825;-0.0242;-0.0452;-0.0032
0000285754;10.0844;-6.6726;8.9064;-0.0294;-0.0346;-0.0017
0000285763;10.1945;-6.6319;8.9878;-0.0298;-0.0314;-0.0077
0000285772;10.0772;-6.7493;8.8969;-0.0265;-0.0248;-0.0052
0000285781;10.2496;-6.4763;8.9064;-0.0345;-0.0200;-0.0065
0000285790;10.2161;-6.5003;8.9160;-0.0282;-0.0104;-0.0096
0000285799;10.2448;-6.6152;8.8849;-0.0288;-0.0145;-0.0151
0000285808;10.1993;-6.5841;8.9543;-0.0356;-0.0157;-0.0067
0000285817;10.2400;-6.5170;8.8969;-0.0369;-0.0055;0.0012
0000285826;10.1251;-6.6319;8.8992;-0.0374;-0.0151;-0.0072
0000285835;10.1347;-6.6272;8.8801;-0.0396;-0.0068;0.0024
0000285844;10.1730;-6.6200;8.9088;-0.0377;-0.0075;-0.0049
0000285853;10.1610;-6.7109;8.9208;-0.0329;-0.0104;-0.0057
0000285862;10.1490;-6.6774;8.8801;-0.0329;-0.0087;-0.0063
0000285871;9.9886;-6.7349;8.8107;-0.0262;-0.0151;-0.0075
0000285880;10.2472;-6.5338;8.7556;-0.0256;-0.0145;-0.0085
0000285889;10.1778;-6.6918;8.8059;-0.0250;-0.0116;0.0020
0000285898;9.9264;-6.7133;8.7676;-0.0341;-0.0063;0.0076
0000285907;10.0317;-6.5386;8.8801;-0.0293;-0.0096;0.0005
0000285916;10.0820;-6.5960;8.8849;-0.0341;-0.0033;0.0055
0000285925;9.9359;-6.7133;8.9016;-0.0246;-0.0124;-0.0073
0000285934;10.1347;-6.6200;8.8801;-0.0212;-0.0125;-0.0063
0000285943;9.9958;-6.5338;8.8657;-0.0165;-0.0172;-0.0083
0000285952;9.9886;-6.6272;8.8562;-0.0237;-0.0137;-0.0100
0000285961;9.9407;-6.7038;8.9088;-0.0253;-0.0215;-0.0133
0000285970;10.1299;-6.5841;8.8322;-0.0278;-0.0199;-0.0131
0000285979;9.9719;-6.7253;8.8657;-0.0345;-0.0253;-0.0137
0000285988;9.9359;-6.7684;8.8370;-0.0308;-0.0334;-0.0081
0000285997;10.0293;-6.5888;8.8729;-0.0284;-0.0321;-0.0085
0000286006;10.1658;-6.5769;8.9160;-0.0285;-0.0276;-0.0011
0000286015;10.0197;-6.8259;8.9807;-0.0163;-0.0249;-0.0057
0000286024;10.0437;-6.6750;8.8969;-0.0169;-0.0184;0.0001
0000286033;10.1825;-6.6200;8.9495;-0.0075;-0.0249;-0.0092
0000286042;10.1011;-6.6559;8.9136;-0.0029;-0.0229;-0.0109
0000286051;9.8904;-6.7564;8.8490;-0.0036;-0.0261;-0.0175
0000286060;9.8186;-6.7756;8.8897;-0.0040;-0.0296;-0.0113
0000286069;10.0461;-6.6559;8.8202;-0.0055;-0.0277;-0.0124
0000286078;10.0916;-6.6008;8.8585;-0.0100;-0.0312;-0.0096
0000286087;10.1179;-6.4859;8.8131;-0.0101;-0.0450;-0.0180
0000286096;9.9503;-6.6559;8.7963;-0.0188;-0.0425;-0.0117
0000286105;10.0221;-6.6822;8.7963;-0.0184;-0.0533;-0.0209
0000286114;10.1059;-6.6152;8.9112;-0.0294;-0.0530;-0.0156
0000286123;10.2017;-6.4524;8.9423;-0.0222;-0.0569;-0.0209
0000286132;10.1011;-6.5529;9.0309;-0.0229;-0.0508;-0.0155
0000286141;10.3190;-6.6463;8.9878;-0.0065;-0.0518;-0.0221
0000286150;10.1538;-6.7301;8.8562;-0.0056;-0.0390;-0.0195
0000286159;10.1993;-6.6415;8.9519;0.0057;-0.0429;-0.0285
0000286168;10.2400;-6.5170;8.8131;0.0029;-0.0348;-0.0277
0000286177;10.1227;-6.6415;8.7604;0.0017;-0.0322;-0.0285
0000286186;10.0772;-6.5457;8.8466;-0.0031;-0.0373;-0.0226
0000286195;10.1011;-6.5122;8.7915;-0.0028;-0.0393;-0.0193
0000286204;10.0772;-6.6272;8.8011;-0.0060;-0.0446;-0.0253
0000286213;10.1538;-6.5122;8.7891;-0.0165;-0.0333;-0.0188
0000286222;10.0197;-6.6415;8.8801;-0.0274;-0.0314;-0.0132
0000286231;10.1849;-6.4907;8.8322;-0.0233;-0.0360;-0.0136
0000286318;10.2137;-6.5864;8.8274;-0.0253;-0.0374;0.0001
0000286327;9.9527;-6.7540;8.9591;-0.0269;-0.0401;-0.0036
0000286336;10.1059;-6.5960;8.8657;-0.0294;-0.0326;0.0003
0000286345;10.1778;-6.7205;8.9256;-0.0216;-0.0346;-0.0052
0000286354;10.0293;-6.7325;8.8705;-0.0176;-0.0240;-0.0097
0000286363;10.1801;-6.6152;8.9016;-0.0104;-0.0189;-0.0081
0000286372;10.0580;-6.7684;8.8298;-0.0069;-0.0155;-0.0116
0000286381;9.9814;-6.6750;8.8346;-0.0008;-0.0185;-0.0151
0000286390;9.9719;-6.7325;8.7963;-0.0100;-0.0208;-0.0105
0000286399;9.7659;-6.7205;8.7508;-0.0100;-0.0345;-0.0151
0000286408;9.8641;-6.8187;8.7580;-0.0221;-0.0337;-0.0068
0000286417;10.1730;-6.4883;8.7867;-0.0309;-0.0316;-0.0020
0000286426;10.0604;-6.4883;8.8107;-0.0386;-0.0321;0.0023
0000286435;10.0987;-6.5242;8.8729;-0.0432;-0.0381;-0.0060
0000286444;10.2089;-6.4763;8.8442;-0.0520;-0.0330;-0.0128
0000286453;10.0604;-6.6343;8.9735;-0.0528;-0.0294;-0.0136
0000286462;10.3765;-6.4548;8.9687;-0.0530;-0.0224;-0.0132
0000286471;10.0963;-6.7229;8.9854;-0.0453;-0.0301;-0.0203
0000286480;10.1035;-6.6200;8.9543;-0.0378;-0.0261;-0.0149
0000286489;10.2472;-6.5888;8.9830;-0.0380;-0.0233;-0.0163
0000286498;10.1873;-6.6559;9.0381;-0.0344;-0.0258;-0.0127
0000286507;10.1227;-6.7301;8.8131;-0.0313;-0.0217;-0.0195
0000286516;10.2376;-6.5553;8.8969;-0.0260;-0.0310;-0.0157
0000286525;10.2424;-6.6008;8.7293;-0.0273;-0.0342;-0.0187
0000286534;10.0006;-6.7876;8.7508;-0.0273;-0.0337;-0.0189
0000286543;10.1370;-6.7277;8.7269;-0.0304;-0.0384;-0.0160
0000286552;10.1825;-6.6918;8.6933;-0.0270;-0.0382;-0.0113
0000286561;10.0317;-6.6990;8.7867;-0.0386;-0.0317;-0.0045
0000286570;9.9838;-6.8354;8.8346;-0.0485;-0.0250;0.0044
0000286579;10.3238;-6.5003;8.8585;-0.0517;-0.0222;0.0048
0000286588;10.1394;-6.7086;8.9328;-0.0538;-0.0226;0.0043
0000286597;10.0389;-6.8235;8.9495;-0.0506;-0.0216;0.0035
0000286606;10.0269;-6.7804;8.9016;-0.0522;-0.0191;0.0067
0000286615;10.1179;-6.7133;8.9711;-0.0438;-0.0180;-0.0028
0000286624;10.0173;-6.8331;9.0261;-0.0382;-0.0200;0.0015
0000286633;9.9695;-6.7588;8.9567;-0.0290;-0.0215;-0.0015
0000286642;10.1682;-6.5817;8.9160;-0.0337;-0.0169;0.0029
0000286651;9.9599;-6.8091;8.8705;-0.0286;-0.0290;-0.0040
0000286660;9.9814;-6.8642;8.8609;-0.0281;-0.0248;0.0051
0000286669;9.9838;-6.7660;8.8777;-0.0217;-0.0360;0.0029
0000286678;9.9575;-6.6583;8.9447;-0.0149;-0.0369;0.0025
0000286687;10.0173;-6.7181;8.8849;-0.0155;-0.0377;0.0049
0000286696;10.0533;-6.7229;8.9591;-0.0093;-0.0477;-0.0080
0000286705;9.9934;-6.6319;8.9543;-0.0048;-0.0454;-0.0093
0000286714;10.1251;-6.5027;8.9591;-0.0124;-0.0464;-0.0095
0000286723;10.1849;-6.6056;8.9399;-0.0203;-0.0424;-0.0075
0000286732;10.1754;-6.6870;8.8992;-0.0199;-0.0449;-0.0144
0000286741;10.1275;-6.5769;8.8394;-0.0185;-0.0478;-0.0211
0000286750;10.2735;-6.6535;8.8992;-0.0221;-0.0426;-0.0185
0000286759;10.0772;-6.7804;8.8418;-0.0187;-0.0382;-0.0159
0000286768;10.0604;-6.7109;8.8705;-0.0179;-0.0368;-0.0120
0000286777;10.0437;-6.6607;8.8059;-0.0111;-0.0421;-0.0144
0000286786;10.0389;-6.7038;8.8202;-0.0160;-0.0454;-0.0073
0000286795;10.1394;-6.7181;8.9711;-0.0248;-0.0426;-0.0031
0000286804;10.0006;-6.6966;8.9280;-0.0196;-0.0553;-0.0076
0000286813;9.8665;-6.7421;8.9376;-0.0187;-0.0580;-0.0073
0000286822;9.9144;-6.8690;8.9160;-0.0117;-0.0550;-0.0108
0000286831;10.0269;-6.5027;8.9304;-0.0129;-0.0501;-0.0084
0000286840;9.9096;-6.9145;8.8897;-0.0068;-0.0572;-0.0145
0000286849;10.1035;-6.8354;8.8992;-0.0033;-0.0585;-0.0139
0000286858;10.1825;-6.8426;8.9136;0.0052;-0.0576;-0.0175
0000286865;10.1299;-6.7540;9.0453;0.0155;-0.0565;-0.0273
0000286873;10.1514;-7.0270;9.1219;0.0352;-0.0360;-0.0264
0000286881;10.3597;-6.7995;9.1482;0.0478;-0.0140;-0.0228
0000286889;10.1969;-6.9001;8.9519;0.0580;-0.0005;-0.0277
0000286897;10.3430;-6.5936;8.7819;0.0609;0.0057;-0.0266
0000286905;10.1299;-6.7229;8.7987;0.0533;-0.0031;-0.0365
0000286913;9.9503;-6.7277;8.8274;0.0358;-0.0121;-0.0326
0000286921;10.0389;-6.6942;8.8442;0.0229;-0.0273;-0.0310
0000286929;9.9647;-6.5936;8.7963;0.0180;-0.0374;-0.0380
