time;acc_x;acc_y;acc_z;gyro_x;gyro_y;gyro_z
0000097676;7.4579;3.0885;1.4365;-0.0033;0.0869;-0.0133
0000097684;7.6207;3.3375;1.4222;-0.0153;0.1050;0.0039
0000097691;7.4531;3.4453;1.4916;-0.0250;0.1243;0.0152
0000097699;7.3478;3.3806;1.4054;-0.0281;0.1304;0.0187
0000097708;6.9552;3.3806;1.4844;-0.0316;0.1280;0.0274
0000097716;6.9312;3.3375;1.3479;-0.0330;0.1215;0.0218
0000097724;6.8522;3.2920;1.4150;-0.0140;0.0973;0.0053
0000097737;6.5218;2.9736;1.6185;0.0049;0.0761;-0.0075
0000097744;6.5218;2.9090;1.6328;0.0266;0.0598;-0.0123
0000097755;6.5793;2.8371;1.6448;0.0557;0.0294;-0.0137
0000097763;6.6032;3.1077;1.5897;0.0669;0.0041;-0.0165
0000097775;6.9695;3.3303;1.6161;0.0695;-0.0157;-0.0123
0000097783;6.9719;3.3471;1.4964;0.0618;-0.0285;-0.0065
0000097791;6.9983;3.4836;1.6305;0.0552;-0.0261;-0.0079
0000097802;7.1611;3.4764;1.6616;0.0434;-0.0189;-0.0040
0000097810;7.1539;3.3974;1.4868;0.0389;-0.0104;-0.0044
0000097822;7.3023;3.3375;1.4413;0.0320;0.0040;-0.0083
0000097830;7.3358;3.1627;1.6161;0.0366;0.0249;0.0013
0000097897;7.3023;3.2513;1.4293;0.0997;0.1306;0.0161
0000097905;7.2664;3.4596;1.4988;0.0809;0.1432;0.0216
0000097913;7.1922;3.5530;1.5060;0.0630;0.1583;0.0265
0000097925;7.0318;3.5123;1.4126;0.0538;0.1720;0.0125
0000097933;7.1874;3.5386;1.4413;0.0578;0.1657;-0.0009
0000097944;7.1730;3.3591;1.4653;0.0474;0.1725;-0.0101
0000097952;7.0797;3.4237;1.5634;0.0461;0.1721;-0.0222
0000097964;7.1228;3.1771;1.4533;0.0532;0.1621;-0.0262
0000097972;7.2113;3.2801;1.5060;0.0578;0.1675;-0.0232
0000097980;7.1251;3.3423;1.5395;0.0586;0.1693;-0.0218
0000097991;7.1682;3.2920;1.5443;0.0608;0.1680;-0.0176
0000097999;7.1587;3.2561;1.5778;0.0525;0.1725;-0.0117
0000098011;7.0988;3.3088;1.5131;0.0576;0.1656;-0.0230
0000098019;7.1922;3.4165;1.5060;0.0424;0.1667;-0.0269
0000098030;7.0198;3.2753;1.4533;0.0354;0.1539;-0.0377
0000098038;7.1635;3.3758;1.4389;0.0340;0.1406;-0.0484
0000098046;7.0054;3.3160;1.3647;0.0310;0.1320;-0.0461
0000098058;6.8307;3.3232;1.2498;0.0187;0.1057;-0.0490
0000098066;6.8977;3.3806;1.2474;0.0121;0.0883;-0.0538
0000098077;7.1156;3.6464;1.2761;-0.0011;0.0654;-0.0658
0000098085;6.8618;3.6488;1.3575;-0.0167;0.0612;-0.0721
0000098097;6.6655;3.6943;1.3288;-0.0296;0.0381;-0.0889
0000098105;6.7612;3.5650;1.3240;-0.0422;0.0237;-0.0878
0000098172;7.2568;3.2130;1.3384;-0.0950;0.0079;-0.0169
0000098180;7.2568;3.2441;1.5179;-0.0903;0.0001;-0.0187
0000098188;7.1946;3.1771;1.4605;-0.0911;0.0056;-0.0144
0000098200;7.2401;3.0526;1.6041;-0.0799;0.0009;-0.0156
0000098208;7.2472;3.0981;1.4964;-0.0649;-0.0099;-0.0225
0000098219;7.0868;3.0574;1.4964;-0.0636;-0.0229;-0.0177
0000098227;7.0318;3.1053;1.4222;-0.0687;-0.0253;-0.0059
0000098239;6.8833;3.0382;1.3455;-0.0698;-0.0380;-0.0019
0000098247;6.8929;3.1196;1.2402;-0.0689;-0.0454;0.0045
0000098255;7.0605;3.4620;1.1995;-0.0809;-0.0450;0.0076
0000098266;7.0294;3.3950;1.2258;-0.0839;-0.0448;0.0004
0000098274;7.0437;3.4477;1.2737;-0.0798;-0.0458;0.0041
0000098286;7.0485;3.3136;1.2833;-0.0858;-0.0498;0.0027
0000098294;7.0198;3.3998;1.1468;-0.0963;-0.0473;0.0037
0000098305;7.1754;3.4405;1.2091;-0.1025;-0.0564;-0.0019
0000098313;6.9049;3.3232;1.1349;-0.1059;-0.0657;-0.0153
0000098325;7.1108;3.5051;1.1756;-0.1057;-0.0655;-0.0309
0000098333;7.0820;3.3806;1.2139;-0.1021;-0.0624;-0.0413
0000098341;7.2185;3.6152;1.2043;-0.1018;-0.0482;-0.0566
0000098352;7.2592;3.4429;1.2378;-0.0957;-0.0256;-0.0683
0000098360;7.3933;3.4261;1.4054;-0.0867;-0.0163;-0.0731
0000098372;7.3095;3.2441;1.4748;-0.0725;0.0087;-0.0612
0000098380;7.1706;3.0598;1.4581;-0.0569;0.0187;-0.0481
0000098447;6.9599;3.3184;1.5131;-0.0584;0.0317;-0.0827
0000098455;6.8738;3.0957;1.7142;-0.0572;0.0354;-0.0830
0000098467;6.8690;3.2705;1.6328;-0.0457;0.0330;-0.0907
0000098475;6.9312;3.2250;1.7717;-0.0362;0.0217;-0.0950
0000098483;6.8570;3.2370;1.7765;-0.0422;0.0120;-0.0903
0000098494;6.7205;3.0837;1.7549;-0.0389;-0.0035;-0.0829
0000098502;6.6367;3.0430;1.7310;-0.0314;-0.0242;-0.0877
0000098514;6.9168;3.2681;1.7310;-0.0324;-0.0361;-0.0882
0000098522;6.9432;3.4093;1.6448;-0.0264;-0.0412;-0.0927
0000098533;7.0246;3.3710;1.6664;-0.0297;-0.0300;-0.0846
0000098541;7.1635;3.4692;1.7693;-0.0406;-0.0163;-0.0789
0000098553;6.9408;3.2322;1.9297;-0.0396;-0.0081;-0.0746
0000098561;7.0844;3.3255;1.9465;-0.0513;-0.0017;-0.0558
0000098569;6.8738;3.2825;1.9704;-0.0548;-0.0093;-0.0500
0000098580;6.8498;3.1891;2.0039;-0.0574;-0.0171;-0.0330
0000098588;6.6990;3.1364;2.0542;-0.0617;-0.0389;-0.0370
0000098600;6.8953;2.9928;2.0399;-0.0544;-0.0582;-0.0349
0000098608;6.8666;3.1867;2.0446;-0.0442;-0.0795;-0.0440
0000098619;6.8690;3.0694;2.0446;-0.0302;-0.0865;-0.0493
0000098627;6.7684;3.1316;2.0590;-0.0201;-0.0930;-0.0614
0000098639;6.9863;3.0909;1.9609;-0.0345;-0.1015;-0.0690
0000098647;6.2369;3.5147;1.9920;-0.0396;-0.0846;-0.1102
0000098655;6.3590;4.0654;2.1500;-0.0682;-0.0817;-0.0937
0000098722;7.5633;3.1627;1.7573;-0.0838;0.1163;0.0640
0000098730;7.4412;3.0095;1.7957;-0.0809;0.1615;0.0542
0000098742;7.1587;2.4732;1.7957;-0.0726;0.2040;0.0484
0000098750;6.8809;2.4804;1.7310;-0.0600;0.2129;0.0528
0000098761;6.6415;2.6983;2.0734;-0.0476;0.2012;0.0588
0000098769;6.7157;3.0406;2.0446;-0.0588;0.1916;0.0413
0000098777;6.7109;3.3112;2.0159;-0.0695;0.1609;0.0290
0000098789;6.9911;3.1364;1.9201;-0.0794;0.1291;0.0024
0000098797;6.9216;2.8443;1.9178;-0.0601;0.1128;-0.0217
0000098808;7.1467;3.0622;2.0039;-0.0282;0.1087;-0.0406
0000098816;6.9240;3.1795;1.9992;-0.0131;0.1107;-0.0529
0000098828;6.7660;3.3160;1.8890;-0.0220;0.1050;-0.0440
0000098836;6.8833;3.3543;1.8100;-0.0376;0.0838;-0.0322
0000098844;6.7181;3.0358;1.7478;-0.0386;0.0661;-0.0103
0000098855;6.7660;3.0789;1.6951;-0.0314;0.0373;0.0089
0000098863;6.6152;2.9688;1.6951;-0.0164;0.0183;0.0151
0000098875;6.9025;3.3591;1.6041;-0.0112;0.0184;0.0222
0000098883;6.9791;3.6272;1.7430;-0.0145;0.0398;0.0209
0000098894;6.8690;3.6440;1.7621;-0.0242;0.0717;0.0100
0000098902;6.9935;3.7062;1.7478;-0.0506;0.1037;0.0127
0000098914;6.9671;3.3543;1.9632;-0.0902;0.1492;0.0264
0000098922;7.0030;3.2417;1.9465;-0.1005;0.1723;0.0278
0000098930;6.9240;3.1723;2.0159;-0.1292;0.1952;0.0361
0000098997;6.1675;3.1196;2.2458;-0.1009;-0.0322;-0.1119
0000099005;6.2513;3.1891;2.2386;-0.0809;-0.0653;-0.1295
0000099017;6.3518;3.0742;2.1787;-0.0418;-0.1239;-0.1548
0000099025;6.3758;3.0454;1.9465;-0.0172;-0.1671;-0.1687
0000099036;6.5817;3.1627;1.9680;-0.0139;-0.2132;-0.1394
0000099044;6.6846;3.0765;1.8172;-0.0173;-0.2426;-0.1203
0000099052;6.7493;3.1292;1.7166;-0.0369;-0.2451;-0.0977
0000099064;7.1299;3.0933;1.5682;-0.0456;-0.2470;-0.0640
0000099072;6.9168;3.2753;1.7071;-0.0534;-0.2453;-0.0340
0000099084;6.5697;2.6217;1.4030;-0.0181;-0.1908;-0.0827
0000099092;6.3710;2.7007;1.6640;0.0059;-0.1753;-0.0846
0000099103;6.5386;3.0957;1.8627;0.0121;-0.1415;-0.0835
0000099111;6.8474;3.4692;1.6161;0.0168;-0.1418;-0.0734
0000099123;6.8905;3.3495;1.5586;0.0071;-0.1478;-0.0570
0000099131;6.7181;3.3064;1.5969;0.0171;-0.1540;-0.0605
0000099139;6.5745;3.2825;1.5203;0.0253;-0.1563;-0.0701
0000099150;6.3422;3.3279;1.5562;0.0409;-0.1775;-0.0869
0000099158;6.2704;3.2896;1.5347;0.0536;-0.1965;-0.0837
0000099170;6.4715;3.1963;1.6448;0.0671;-0.2226;-0.0526
0000099178;6.5434;3.1196;1.5586;0.0751;-0.2305;-0.0296
0000099190;6.4955;3.0861;1.4676;0.0938;-0.2225;-0.0175
0000099198;6.6750;3.1915;1.5395;0.1114;-0.2186;-0.0155
0000099206;6.5505;3.2513;1.5012;0.1227;-0.2080;-0.0176
0000099274;6.4356;3.1101;1.3791;0.0946;-0.2212;-0.0139
0000099282;6.5194;3.3447;1.4557;0.1049;-0.2188;-0.0129
0000099293;6.5793;3.4189;1.3886;0.0862;-0.2138;-0.0161
0000099301;6.5362;3.4333;1.3815;0.0717;-0.2269;-0.0217
0000099313;6.6702;3.5554;1.2546;0.0462;-0.2172;-0.0168
0000099321;6.5434;3.4788;1.3360;0.0242;-0.2026;-0.0111
0000099332;6.5673;3.5626;1.4820;0.0104;-0.1993;-0.0172
0000099340;6.6822;3.5985;1.5323;0.0040;-0.1923;-0.0105
0000099348;6.4883;3.5195;1.6065;0.0021;-0.1863;-0.0135
0000099360;6.5769;3.4740;1.5658;-0.0001;-0.1747;-0.0036
0000099368;6.4524;3.2513;1.6041;0.0083;-0.1815;-0.0011
0000099379;6.3997;3.0215;1.6448;-0.0024;-0.1943;0.0123
0000099387;6.3470;2.8491;1.6065;0.0008;-0.2117;0.0169
0000099399;6.6080;3.0454;1.5993;0.0179;-0.2292;0.0250
0000099407;6.5266;3.2561;1.5323;0.0250;-0.2277;0.0128
0000099415;6.3973;3.3830;1.5730;0.0301;-0.2357;-0.0061
0000099426;6.4883;3.3399;1.5083;0.0264;-0.2422;-0.0228
0000099434;6.4620;3.2705;1.5060;0.0258;-0.2527;-0.0384
0000099446;6.4428;3.2537;1.4150;0.0081;-0.2477;-0.0408
0000099454;6.5625;3.3327;1.4485;-0.0029;-0.2465;-0.0434
0000099466;6.2896;3.1125;1.4988;-0.0096;-0.2510;-0.0218
0000099474;6.3829;3.3064;1.4629;-0.0081;-0.2537;-0.0072
0000099542;6.5146;3.1220;1.4700;-0.0060;-0.2603;0.0815
0000099550;6.4811;3.1819;1.4078;-0.0003;-0.2589;0.0798
0000099558;6.4093;3.4117;1.4581;0.0092;-0.2638;0.0649
0000099569;6.4141;3.5362;1.5371;0.0136;-0.2790;0.0557
0000099578;6.4428;3.2034;1.5969;0.0073;-0.2798;0.0703
0000099589;6.8881;3.2872;1.5538;0.0092;-0.2835;0.0929
0000099597;6.9647;3.2250;1.5850;0.0095;-0.2789;0.0999
0000099608;6.9647;3.3591;1.6376;0.0161;-0.2698;0.1038
0000099616;7.2233;3.3710;1.6592;0.0224;-0.2650;0.1002
0000099625;7.3215;3.4141;1.7190;0.0205;-0.2411;0.0982
0000099636;7.3095;3.5171;1.7310;0.0056;-0.2140;0.0837
0000099644;7.3526;3.5721;1.8100;-0.0040;-0.1955;0.0677
0000099655;7.2377;3.6919;1.8627;-0.0272;-0.1619;0.0534
0000099663;7.3885;3.7469;1.8364;-0.0494;-0.1295;0.0441
0000099675;7.1970;3.6081;1.9632;-0.0747;-0.1006;0.0353
0000099683;7.2927;3.7565;1.9489;-0.0869;-0.0886;0.0213
0000099691;7.2353;3.4357;2.0303;-0.0803;-0.0857;0.0141
0000099702;7.1371;3.2848;1.8771;-0.0695;-0.0789;0.0047
0000099710;7.2042;3.3064;1.8603;-0.0726;-0.0709;-0.0052
0000099722;7.0413;3.1675;1.8603;-0.0809;-0.0560;-0.0200
0000099730;6.6032;3.2729;1.6831;-0.0918;-0.0552;-0.0273
0000099742;6.6798;3.3974;1.5945;-0.1323;-0.0481;-0.0001
0000099750;6.5529;3.4500;1.6879;-0.1660;-0.0433;0.0156
0000099818;6.6343;3.1412;2.3008;-0.1155;-0.1222;0.1354
0000099826;6.7971;3.4812;2.2960;-0.1158;-0.1549;0.1327
0000099834;6.5338;3.4596;2.1931;-0.1215;-0.1800;0.1099
0000099845;6.5481;3.2322;2.0806;-0.1304;-0.2088;0.0921
0000099853;6.5601;3.1747;1.9417;-0.1278;-0.2218;0.0805
0000099865;6.6726;3.2034;1.8938;-0.1336;-0.2449;0.0524
0000099873;6.7660;3.0909;1.8435;-0.1375;-0.2594;0.0428
0000099884;6.8881;2.9473;1.7837;-0.1288;-0.2781;0.0358
0000099892;6.8235;2.6983;1.7957;-0.1236;-0.2819;0.0453
0000099904;7.1084;2.9185;1.8004;-0.1250;-0.2856;0.0550
0000099912;7.3215;2.8683;1.9178;-0.1291;-0.2895;0.0666
0000099920;7.6016;2.9329;2.0853;-0.1343;-0.2791;0.0802
0000099931;7.8865;3.0358;2.0973;-0.1371;-0.2701;0.0946
0000099939;8.1020;3.3327;2.0566;-0.1516;-0.2511;0.0934
0000099951;8.3199;3.5650;2.0111;-0.2097;-0.2070;0.0806
0000099959;8.2624;3.3064;2.0470;-0.2337;-0.1929;0.0722
0000099970;8.3127;3.3902;1.9130;-0.2706;-0.1608;0.0621
0000099978;8.3103;3.2010;1.7573;-0.2844;-0.1364;0.0533
0000099986;8.2887;2.9425;1.8172;-0.2962;-0.1100;0.0376
0000099998;8.4180;3.1340;1.9321;-0.2984;-0.0715;0.0124
0000100006;8.5281;3.0263;1.8842;-0.2862;-0.0522;-0.0129
0000100018;8.6742;2.8012;1.8411;-0.2513;-0.0073;-0.0280
0000100026;8.7771;2.8922;1.7166;-0.2350;0.0207;-0.0364
0000100094;8.0685;3.6464;1.6688;-0.1120;0.0790;-0.0338
0000100102;8.1307;3.6751;1.6281;-0.1096;0.0478;-0.0398
0000100113;8.1283;3.5626;1.7166;-0.1150;-0.0061;-0.0508
0000100121;8.1810;3.2944;1.6424;-0.1160;-0.0416;-0.0522
0000100129;8.0852;3.2848;1.6017;-0.0961;-0.0689;-0.0545
0000100141;8.1834;3.0430;1.6161;-0.0671;-0.1033;-0.0517
0000100149;8.4803;3.1603;1.5778;-0.0610;-0.1158;-0.0310
0000100160;8.4731;2.7964;1.4724;-0.0320;-0.1348;-0.0105
0000100168;8.7963;2.7677;1.4269;-0.0188;-0.1339;0.0001
0000100180;8.7317;2.5929;1.3886;0.0043;-0.1252;0.0001
0000100188;8.7676;2.5714;1.4198;0.0324;-0.1148;-0.0027
0000100199;8.7747;2.5379;1.5945;0.0562;-0.0954;0.0021
0000100207;8.7149;2.5857;1.6017;0.0725;-0.0990;-0.0124
0000100215;8.7293;2.6671;1.7238;0.0806;-0.0918;-0.0141
0000100227;8.8178;2.6001;1.7885;0.0909;-0.0978;-0.0325
0000100235;8.6574;2.7605;1.8268;0.0821;-0.0853;-0.0346
0000100246;8.4013;2.8539;2.0518;0.0634;-0.0734;-0.0605
0000100254;8.2265;3.1508;2.1476;0.0358;-0.0678;-0.0751
0000100266;7.6327;3.5482;2.4062;-0.0201;-0.0630;-0.0987
0000100274;7.4699;3.8092;2.6647;-0.0564;-0.0737;-0.1015
0000100282;6.9288;3.9816;2.7797;-0.1001;-0.0841;-0.0925
0000100294;6.5529;4.1515;2.8706;-0.1310;-0.1230;-0.0719
0000100302;6.3351;4.0773;2.9880;-0.1404;-0.1611;-0.0457
0000100370;8.6790;1.8938;1.8244;-0.0552;-0.3361;-0.0308
0000100378;8.8394;1.9656;1.7813;-0.0683;-0.3043;-0.0444
0000100389;8.8825;2.4229;1.7980;-0.0990;-0.2506;-0.0670
0000100397;8.5617;2.8659;1.8866;-0.1292;-0.2110;-0.0681
0000100409;8.0302;3.3950;1.9465;-0.1832;-0.1502;-0.0572
0000100417;7.6734;3.7350;2.0159;-0.2054;-0.1226;-0.0508
0000100425;7.4460;4.0486;2.0590;-0.2224;-0.0997;-0.0356
0000100436;6.9504;4.2713;2.2936;-0.2357;-0.0777;-0.0036
0000100444;6.9145;4.1156;2.3583;-0.2329;-0.0745;0.0133
0000100456;7.1563;3.6248;2.4828;-0.1921;-0.0769;0.0233
0000100464;7.3622;3.1173;2.3846;-0.1525;-0.0863;0.0164
0000100476;7.6088;2.7198;2.3008;-0.1053;-0.0995;-0.0189
0000100484;7.6854;2.5331;2.3200;-0.0681;-0.1070;-0.0566
0000100495;7.9655;2.2194;2.2841;-0.0465;-0.1029;-0.0895
0000100503;7.9655;2.1500;2.2913;-0.0265;-0.1062;-0.1108
0000100511;8.2600;2.4636;2.4612;-0.0284;-0.0929;-0.1211
0000100523;7.9751;2.4086;2.6288;-0.0128;-0.0722;-0.1352
0000100531;7.8937;2.6336;2.6647;-0.0092;-0.0569;-0.1443
0000100542;7.7381;2.7222;2.7007;-0.0037;-0.0294;-0.1452
0000100550;7.3047;2.5762;2.7557;0.0029;-0.0195;-0.1443
0000100562;7.1395;2.7054;2.7797;0.0160;-0.0029;-0.1439
0000100570;7.1922;2.8419;2.7294;0.0176;0.0075;-0.1390
0000100637;7.6303;2.4900;2.7485;-0.0040;0.0790;-0.1087
0000100645;7.7261;2.7102;2.6312;-0.0024;0.0918;-0.0995
0000100653;7.5274;2.6528;2.7653;0.0004;0.1099;-0.0923
0000100665;7.5729;2.7294;2.6671;0.0083;0.1296;-0.0719
0000100673;7.4220;2.8132;2.7007;0.0225;0.1362;-0.0596
0000100684;7.3837;3.0646;2.6528;0.0200;0.1545;-0.0446
0000100692;7.4531;3.1580;2.6791;0.0081;0.1683;-0.0212
0000100704;7.1658;3.2034;2.7007;-0.0005;0.1707;-0.0016
0000100712;7.0150;3.1412;2.6336;-0.0025;0.1591;-0.0031
0000100720;7.0820;3.2848;2.7150;-0.0112;0.1552;0.0032
0000100731;6.9384;3.1771;2.7342;-0.0269;0.1392;0.0003
0000100739;7.0174;3.3112;2.6743;-0.0313;0.1224;-0.0028
0000100751;7.1467;3.3351;2.5570;-0.0493;0.1107;-0.0217
0000100759;6.9145;3.2370;2.5953;-0.0701;0.1031;-0.0245
0000100770;6.9887;3.3519;2.6456;-0.0959;0.1034;-0.0230
0000100778;6.9264;3.1340;2.7964;-0.1029;0.0855;-0.0180
0000100786;6.8761;3.1101;2.6935;-0.1151;0.0749;-0.0125
0000100798;6.9552;3.1388;2.6647;-0.1311;0.0529;-0.0076
0000100806;6.7301;2.8443;2.6767;-0.1443;0.0422;-0.0031
0000100817;6.8642;3.0837;2.6360;-0.1410;0.0167;-0.0080
0000100825;6.8426;2.8395;2.6695;-0.1434;-0.0025;-0.0136
0000100837;6.9983;3.0694;2.6360;-0.1387;-0.0330;-0.0241
0000100845;6.9145;2.8683;2.5738;-0.1418;-0.0444;-0.0358
0000100912;7.3143;2.7725;2.4277;-0.0923;-0.1151;-0.0520
0000100920;7.2281;2.6815;2.3152;-0.0817;-0.1176;-0.0528
0000100928;7.2209;2.7916;2.2841;-0.0754;-0.1179;-0.0444
0000100940;7.1898;2.9377;2.2529;-0.0580;-0.1146;-0.0346
0000100948;7.0006;2.9329;2.2817;-0.0472;-0.1218;-0.0418
0000100959;7.1658;3.2274;2.2865;-0.0534;-0.1136;-0.0360
0000100967;7.1180;3.1699;2.3750;-0.0538;-0.1138;-0.0390
0000100979;7.1635;2.9568;2.2601;-0.0602;-0.0998;-0.0380
0000100987;7.0605;2.8970;2.2960;-0.0605;-0.0930;-0.0372
0000100998;6.8977;2.6624;2.1883;-0.0524;-0.0903;-0.0264
0000101006;7.1060;2.8419;2.1141;-0.0394;-0.0967;-0.0276
0000101014;7.1730;2.8156;2.0853;-0.0405;-0.0933;-0.0077
0000101026;6.9695;3.0622;2.0351;-0.0425;-0.1023;-0.0011
0000101034;6.8139;3.1412;1.8866;-0.0446;-0.1186;0.0025
0000101045;6.6391;3.2394;1.8220;-0.0390;-0.1472;0.0073
0000101053;6.4955;3.1292;1.7813;-0.0197;-0.1859;0.0049
0000101065;6.6511;2.8084;1.6592;0.0199;-0.2372;0.0160
0000101073;7.1156;2.7988;1.6807;0.0489;-0.2727;0.0183
0000101084;7.3358;2.7677;1.7861;0.0665;-0.3043;0.0060
0000101092;7.4196;2.7174;1.6400;0.0717;-0.3086;0.0000
0000101100;7.5537;3.0406;1.6352;0.0746;-0.3047;-0.0240
0000101112;7.5633;3.4046;1.5897;0.0798;-0.2870;-0.0592
0000101120;7.2640;3.3710;1.5921;0.0654;-0.2713;-0.0733
0000101187;6.9001;3.4572;1.6041;-0.2751;-0.3204;-0.1929
0000101195;7.0437;3.2106;1.9106;-0.3020;-0.3547;-0.1956
0000101207;7.3095;2.6384;1.5203;-0.2807;-0.3942;-0.1994
0000101215;7.2185;2.5498;1.2689;-0.2486;-0.3930;-0.2085
0000101223;7.2903;2.6552;1.1732;-0.2292;-0.3986;-0.2268
0000101235;7.2233;2.8754;1.0127;-0.2297;-0.4040;-0.2393
0000101243;7.3957;2.8347;1.1947;-0.2482;-0.3936;-0.2406
0000101255;7.5130;3.3040;1.3024;-0.2566;-0.3917;-0.2470
0000101263;7.6878;3.4381;1.5634;-0.2635;-0.3809;-0.2349
0000101274;7.4436;3.2154;1.4820;-0.2535;-0.3459;-0.2242
0000101282;7.5369;3.1987;1.4174;-0.2493;-0.3163;-0.2094
0000101294;7.3957;3.0502;1.2905;-0.2690;-0.2825;-0.2124
0000101302;7.2927;2.8467;1.2115;-0.2848;-0.2699;-0.2188
0000101310;7.0222;2.5905;1.2067;-0.2878;-0.2578;-0.2260
0000101322;7.3167;2.5139;1.3240;-0.2940;-0.2517;-0.2498
0000101330;7.2903;2.3152;1.2977;-0.2892;-0.2535;-0.2745
0000101342;7.3885;2.1524;1.3982;-0.3131;-0.2250;-0.2851
0000101350;7.6591;2.1356;1.5227;-0.3416;-0.2108;-0.2908
0000101361;7.6806;1.9632;1.6113;-0.3860;-0.1496;-0.2783
0000101369;7.6591;1.6448;1.5227;-0.4084;-0.1027;-0.2545
0000101381;7.7213;1.2809;0.9290;-0.4690;-0.0104;-0.1970
0000101389;7.5322;1.0702;0.4764;-0.5236;0.0549;-0.1510
0000101397;7.1108;0.8116;0.0790;-0.5521;0.1065;-0.0983
0000101464;6.2680;2.4301;0.6895;-0.1584;0.0177;0.0273
0000101472;5.8179;2.9305;1.0750;-0.0538;0.0261;-0.0148
0000101484;5.8012;3.5721;0.9337;0.1264;0.0582;-0.0766
0000101492;6.4931;4.0079;0.8475;0.1925;0.0806;-0.0902
0000101503;7.6471;4.3144;0.5267;0.2443;0.1387;-0.0759
0000101511;8.4491;4.1252;0.6536;0.2525;0.2477;-0.0646
0000101523;8.7460;2.9473;0.5028;0.2745;0.5104;-0.0342
0000101531;8.8585;2.5139;0.3998;0.2686;0.7013;0.0019
0000101539;9.0668;2.3487;0.4884;0.2747;0.8677;0.0381
0000101550;9.0453;2.8611;0.1700;0.2718;1.0433;0.1091
0000101558;8.2983;3.4907;0.2251;0.2277;1.1449;0.1464
0000101570;6.9384;4.4436;0.7709;0.1756;1.2612;0.1916
0000101578;5.8873;5.0111;1.2474;0.1579;1.3022;0.2168
0000101586;5.3056;5.3774;1.6712;0.1451;1.2995;0.2277
0000101597;5.0182;5.4947;1.9465;0.0652;1.2534;0.2306
0000101605;5.1858;5.3846;2.4253;-0.0159;1.2057;0.2076
0000101617;5.3103;5.2409;3.0239;-0.1684;1.1187;0.1621
0000101625;5.1044;4.9656;3.0813;-0.2485;1.0556;0.1260
0000101636;4.7070;4.5370;2.8443;-0.3419;0.9491;0.0568
0000101644;4.3910;3.7996;2.8419;-0.4085;0.8643;0.0029
0000101652;4.8076;3.0742;2.9066;-0.4454;0.7759;-0.0470
0000101664;5.3391;1.9920;2.6456;-0.4832;0.6722;-0.0898
0000101672;5.9640;1.0989;2.3990;-0.4403;0.6151;-0.0991
0000101739;11.9806;2.2410;-1.1971;-0.1136;1.2069;0.3836
0000101747;12.1194;2.8132;-1.5538;-0.1343;1.4261;0.4323
0000101759;11.8298;2.8180;-1.7765;-0.1597;1.7008;0.4799
0000101767;11.8034;2.4924;-1.6951;-0.1711;1.8363;0.5139
0000101779;12.0548;3.1173;-1.4748;-0.1980;1.9838;0.5726
0000101787;11.8250;3.5961;-1.0319;-0.2306;2.0680;0.5955
0000101795;11.0780;3.8020;-0.9816;-0.2667;2.1563;0.5951
0000101807;9.8043;3.4141;-1.1301;-0.3056;2.2440;0.5562
0000101815;8.8873;3.1412;-1.3024;-0.3564;2.2548;0.5168
0000101828;7.3574;1.9178;-1.3479;-0.4307;2.2292;0.4451
0000101835;6.9001;0.8763;-1.5514;-0.4519;2.1817;0.4028
0000101847;6.6942;-0.3567;-1.7717;-0.4594;2.0647;0.3576
0000101855;6.9192;-0.6153;-1.8747;-0.4739;1.9955;0.3188
0000101867;6.8211;-0.5148;-1.5443;-0.5724;1.9861;0.2254
0000101875;6.7086;-0.3663;-0.5722;-0.7348;2.0422;0.1360
0000101883;6.1603;-1.2186;0.5842;-0.9000;2.0635;0.0215
0000101894;5.3391;-2.2721;2.0901;-1.0596;1.9797;-0.1414
0000101902;4.3455;-3.5721;3.0119;-1.1245;1.8570;-0.2418
0000101914;3.2082;-4.8028;3.4955;-1.1088;1.6625;-0.3164
0000101922;3.5841;-5.0733;3.1843;-1.1045;1.5676;-0.3627
0000101988;7.4460;-2.9018;1.8387;-1.1932;1.0565;-0.7442
0000101996;7.0916;-0.6871;1.0247;-1.4854;1.1748;-0.7677
0000102008;2.7246;9.1315;14.0755;-3.1784;2.1671;-0.8505
0000102016;-7.8219;17.0276;29.3984;-4.3657;2.6878;-0.9991
0000102024;-28.6203;21.1623;45.1068;-4.3657;1.0853;-1.5084
0000102037;-64.3250;38.7406;14.0611;-3.6853;-2.0217;-1.5187
0000102044;-49.4594;17.6668;6.5050;-4.3657;-3.0377;-1.1393
0000102056;-12.9694;-6.0837;10.1514;-4.3657;-4.3657;-2.0985
0000102064;-1.7549;-0.1293;15.6820;-4.3657;-4.3657;-2.4549
0000102076;5.2241;11.9447;9.4284;-3.9498;-4.3657;-2.5401
0000102084;12.9119;16.8983;4.8842;-4.0879;-4.3657;-2.3349
0000102096;21.2581;18.4114;5.6575;-4.3657;-3.7574;-1.8580
0000102104;23.3890;18.6006;3.6536;-4.3657;-2.6273;-1.8335
0000102116;22.6922;15.8209;2.1404;-4.3657;-1.0417;-2.2278
0000102124;16.7139;13.2016;0.4429;-4.3657;-0.2916;-2.3237
0000102137;6.9959;9.6199;0.1772;-4.3657;0.1548;-2.0063
0000102144;1.5969;6.8474;-0.5148;-4.3657;-0.0608;-1.6138
0000102152;-3.0670;2.4134;-2.4110;-4.3657;-0.5609;-1.2911
0000102163;-5.5258;-4.7788;-5.3367;-4.3657;-1.4156;-1.1489
0000102171;-5.7221;-10.9654;-5.3558;-4.3657;-1.9412;-1.1896
0000102183;1.3743;-12.1506;-3.5003;-4.3657;-2.3521;-1.1451
0000102191;5.8371;-8.0110;-2.4445;-4.3657;-2.2620;-0.9134
0000102258;7.9320;-14.4203;1.1612;-2.8722;-1.2139;-0.6396
0000102266;6.1938;-15.5312;3.2537;-2.5989;-1.0761;-0.7313
0000102278;4.0630;-19.9676;5.1164;-2.0883;-0.8672;-0.7510
0000102286;2.8802;-24.3251;5.5761;-1.6697;-0.8391;-0.7009
0000102298;3.9600;-29.0321;5.0182;-0.9954;-0.9791;-0.6150
0000102306;6.9935;-28.3904;5.1930;-0.5973;-1.1277;-0.5991
0000102318;9.2919;-22.7377;7.3406;-0.1344;-1.3869;-0.6751
0000102326;8.6000;-17.7362;8.0804;0.0246;-1.6333;-0.6955
0000102334;7.0342;-14.7124;9.2464;0.0949;-1.8919;-0.7171
0000102346;4.3838;-14.7890;10.7452;0.2766;-2.1751;-0.8613
0000102354;4.4843;-15.9454;12.0644;0.4345;-2.3058;-1.0054
0000102366;6.3183;-16.9581;8.3893;0.7751;-2.4581;-1.2863
0000102374;6.5338;-17.3747;7.9511;1.0024;-2.5053;-1.3817
0000102386;7.8434;-16.9677;6.5793;1.3839;-2.5562;-1.5159
0000102394;8.0254;-15.5982;6.2249;1.5832;-2.5850;-1.6030
0000102406;8.7532;-12.5887;6.5864;1.7543;-2.5586;-1.6661
0000102414;9.0333;-10.1299;8.4803;1.7360;-2.5413;-1.6751
0000102426;8.8753;-7.2449;6.3039;1.7553;-2.5802;-1.7531
0000102434;9.1482;-5.9089;4.5538;1.8218;-2.5646;-1.8582
0000102442;9.0549;-5.0877;3.3758;1.7257;-2.5480;-1.9907
0000102454;9.9623;-5.3774;3.0933;1.2440;-2.6596;-2.0571
0000102462;11.7364;-5.7150;4.3239;0.8052;-2.6889;-1.9212
0000102529;32.9466;-15.5671;16.2686;-1.2209;1.9456;1.1064
0000102537;26.9659;-19.2997;13.9678;-0.8072;2.4380;1.5648
0000102549;20.1520;-19.3882;8.0278;0.2758;2.6845;1.9364
0000102557;16.8576;-15.7299;4.5777;0.8641;2.6970;1.8481
0000102569;13.6134;-8.7173;0.6752;0.9554;2.6670;1.3053
0000102577;11.8657;-6.5218;0.3687;0.6179;2.6245;0.9310
0000102585;9.5074;-7.2281;1.1899;0.2987;2.5937;0.6678
0000102597;7.8003;-9.6031;3.3064;0.1897;2.5458;0.5299
0000102605;8.0900;-10.5536;4.6639;0.2297;2.4826;0.5822
0000102617;9.6271;-9.9407;6.4931;0.2809;2.2821;0.6402
0000102625;9.9120;-8.7819;7.5776;0.2693;2.0721;0.5800
0000102637;9.8569;-7.1132;9.2943;0.1572;1.7473;0.3797
0000102645;10.1179;-6.1507;10.5177;0.0537;1.5639;0.2306
0000102657;11.2934;-5.4851;11.5568;-0.1142;1.3037;0.0169
0000102665;11.8561;-5.6455;12.1314;-0.2185;1.1676;-0.0846
0000102673;12.2823;-6.3327;12.6390;-0.3088;1.0429;-0.1300
0000102686;12.4858;-7.0557;12.8640;-0.3840;0.8580;-0.1119
0000102695;12.1841;-7.4675;12.4762;-0.3527;0.7861;-0.0893
0000102708;12.0716;-7.3239;11.5401;-0.2723;0.7755;-0.0500
0000102717;11.4922;-6.9432;10.8386;-0.2309;0.8116;-0.0458
0000102730;10.0317;-6.2130;10.3382;-0.2241;0.8577;-0.0406
0000102739;8.8633;-5.8323;10.1275;-0.2521;0.8443;-0.0600
0000102807;6.5122;-7.8793;6.8211;-0.2160;0.4610;0.0422
0000102816;6.9001;-7.7261;6.8953;-0.1807;0.4405;0.0998
0000102829;6.9264;-7.2999;7.3239;-0.1648;0.4143;0.1459
0000102838;6.7397;-7.3885;7.8290;-0.1423;0.4219;0.1428
0000102847;6.6726;-7.1443;8.1642;-0.1287;0.4461;0.1362
0000102860;6.5529;-6.9552;8.9567;-0.1428;0.4883;0.1163
0000102869;6.4021;-6.9097;9.7181;-0.1907;0.5348;0.1200
0000102882;4.9728;-7.3813;11.0397;-0.2382;0.5660;0.1387
0000102891;4.1659;-7.4053;11.6717;-0.2380;0.5233;0.1811
0000102904;3.0406;-8.0517;11.7723;-0.2025;0.3876;0.2160
0000102913;3.0981;-8.3653;11.6119;-0.1839;0.2987;0.2356
0000102922;3.5195;-8.7700;11.5592;-0.1611;0.2078;0.2208
0000102935;3.8044;-9.2320;11.3054;-0.1174;0.0679;0.1780
0000102944;4.0151;-9.1435;11.0852;-0.0826;-0.0474;0.1440
0000102957;4.3503;-9.1889;10.2496;-0.0564;-0.2081;0.1034
0000102966;4.7477;-9.0118;9.9671;-0.0509;-0.2911;0.0691
0000102979;5.7078;-8.8442;9.3015;-0.0276;-0.3858;0.0155
0000102988;6.1507;-8.9998;9.0070;-0.0256;-0.4076;-0.0133
0000103001;7.1611;-9.0429;8.6095;-0.0173;-0.4281;-0.0589
0000103010;7.7596;-9.0501;8.4396;-0.0124;-0.4109;-0.0885
0000103023;8.3653;-8.8801;8.1738;-0.0028;-0.3717;-0.1368
0000103032;8.4204;-8.8729;8.4970;-0.0092;-0.3179;-0.1573
0000103041;8.7005;-8.5952;8.6191;-0.0053;-0.2836;-0.1867
0000103109;9.6199;-8.1618;9.6822;-0.0421;-0.0702;-0.0977
0000103118;9.5385;-7.9655;9.6199;-0.0438;-0.0274;-0.0722
0000103131;9.3398;-7.9990;9.4451;-0.0386;0.0133;-0.0456
0000103140;9.1913;-7.9296;9.4403;-0.0401;0.0384;-0.0215
0000103153;8.6215;-7.9080;9.2895;-0.0412;0.0628;0.0085
0000103162;8.3606;-7.9655;9.1937;-0.0473;0.0604;0.0284
0000103175;8.5066;-8.0014;9.2296;-0.0538;0.0520;0.0636
0000103184;8.3103;-8.0445;9.1698;-0.0537;0.0512;0.0882
0000103193;8.2744;-8.1355;9.1866;-0.0524;0.0650;0.0949
0000103206;8.2073;-8.1523;9.2129;-0.0437;0.0810;0.0974
0000103215;8.0589;-8.2193;9.2249;-0.0421;0.0979;0.1050
0000103228;7.8266;-8.3222;9.1913;-0.0233;0.1031;0.0882
0000103237;7.5537;-8.4803;9.1291;-0.0173;0.0999;0.0814
0000103253;7.3239;-8.5281;9.2344;-0.0091;0.0881;0.0610
0000103262;7.4196;-8.3486;9.3158;-0.0101;0.0790;0.0508
0000103275;7.2568;-8.4372;9.3446;-0.0203;0.0830;0.0368
0000103284;7.1802;-8.2193;9.4619;-0.0222;0.0826;0.0225
0000103293;7.1563;-8.2528;9.4499;-0.0345;0.0866;0.0152
0000103305;6.9911;-8.3773;9.4068;-0.0288;0.0693;-0.0041
0000103314;6.9336;-8.3845;9.4068;-0.0332;0.0552;-0.0200
0000103383;7.1778;-8.5736;9.4547;-0.0179;-0.0413;-0.0695
0000103392;7.2377;-8.4707;9.4332;-0.0136;-0.0550;-0.0757
0000103404;7.5896;-8.3031;9.4188;-0.0212;-0.0597;-0.0707
0000103413;7.5705;-8.4084;9.2512;-0.0330;-0.0576;-0.0682
0000103426;7.7261;-8.4563;9.3757;-0.0350;-0.0602;-0.0614
0000103435;7.6806;-8.4994;9.3278;-0.0328;-0.0581;-0.0502
0000103444;7.8530;-8.4443;9.2775;-0.0317;-0.0616;-0.0426
0000103456;7.9296;-8.2384;9.3805;-0.0240;-0.0742;-0.0265
0000103465;7.8171;-8.3007;9.2177;-0.0135;-0.0862;-0.0099
0000103478;8.1211;-8.1594;9.2775;-0.0233;-0.0769;-0.0060
0000103487;8.0661;-8.2480;9.3637;-0.0188;-0.0628;0.0112
0000103499;8.0445;-8.1714;9.2703;-0.0199;-0.0582;0.0143
0000103508;8.0134;-8.2361;9.2416;-0.0140;-0.0536;0.0120
0000103521;7.9200;-8.2025;9.2775;-0.0176;-0.0472;0.0215
0000103530;7.9464;-8.3079;9.2344;-0.0209;-0.0432;0.0272
0000103539;8.0493;-8.2025;9.2656;-0.0230;-0.0337;0.0286
0000103551;7.6495;-8.3246;9.2847;-0.0305;-0.0292;0.0270
0000103560;7.8482;-8.2049;9.2512;-0.0266;-0.0289;0.0211
0000103573;7.7524;-8.3510;9.2895;-0.0305;-0.0212;0.0177
0000103582;7.6327;-8.5186;9.3206;-0.0292;-0.0205;0.0141
0000103594;7.6399;-8.2432;9.2464;-0.0280;-0.0225;0.0041
0000103603;7.5417;-8.3749;9.3182;-0.0334;-0.0229;-0.0020
0000103672;7.6231;-8.4348;9.2991;-0.0246;-0.0360;-0.0236
0000103681;7.5872;-8.5281;9.3877;-0.0184;-0.0384;-0.0250
0000103693;7.6830;-8.4779;9.1722;-0.0187;-0.0380;-0.0310
0000103702;7.6471;-8.4252;9.3015;-0.0268;-0.0266;-0.0254
0000103711;7.6327;-8.4348;9.2847;-0.0266;-0.0344;-0.0297
0000103724;7.8937;-8.3653;9.3470;-0.0296;-0.0361;-0.0197
0000103733;7.8099;-8.3677;9.3948;-0.0342;-0.0352;-0.0161
0000103745;7.6088;-8.3893;9.2153;-0.0224;-0.0420;-0.0009
0000103754;7.7812;-8.4443;9.2368;-0.0328;-0.0377;-0.0073
0000103767;7.7333;-8.5401;9.2392;-0.0333;-0.0298;-0.0075
0000103776;7.6543;-8.5425;9.3541;-0.0233;-0.0332;-0.0159
0000103788;7.7093;-8.4300;9.2225;-0.0241;-0.0254;-0.0172
0000103797;7.5920;-8.4204;9.2464;-0.0273;-0.0282;-0.0136
0000103806;7.6231;-8.3462;9.2703;-0.0276;-0.0238;-0.0109
0000103819;7.4579;-8.4922;9.2440;-0.0350;-0.0301;-0.0144
0000103828;7.6806;-8.2983;9.2153;-0.0316;-0.0305;-0.0113
0000103840;7.6207;-8.3318;9.2296;-0.0324;-0.0276;-0.0087
0000103849;7.4675;-8.3031;9.2823;-0.0366;-0.0337;-0.0148
0000103862;7.5585;-8.2169;9.2512;-0.0234;-0.0326;-0.0129
0000103871;7.6614;-8.1283;9.3158;-0.0312;-0.0268;-0.0024
0000103883;7.5992;-8.6263;9.3877;-0.0537;-0.0173;-0.0105
0000103892;7.6375;-8.6550;9.4044;-0.0393;-0.0246;-0.0133
0000103960;7.6447;-8.4851;9.2727;-0.0272;-0.0269;-0.0084
0000103969;7.3526;-8.7029;9.1913;-0.0250;-0.0321;-0.0127
0000103978;7.6279;-8.4420;9.3111;-0.0242;-0.0314;-0.0147
0000103990;7.5896;-8.4228;9.2608;-0.0232;-0.0334;-0.0177
0000103999;7.8195;-8.3486;9.2775;-0.0233;-0.0286;-0.0144
0000104012;7.7740;-8.3653;9.2177;-0.0236;-0.0345;-0.0185
0000104021;7.8219;-8.3749;9.2560;-0.0304;-0.0268;-0.0117
0000104033;7.7141;-8.3510;9.2799;-0.0302;-0.0277;-0.0091
0000104042;7.6950;-8.3246;9.3494;-0.0269;-0.0326;-0.0168
0000104055;7.6016;-8.3007;9.3278;-0.0292;-0.0286;-0.0084
0000104064;7.6782;-8.3629;9.2584;-0.0226;-0.0330;-0.0164
0000104076;7.6136;-8.4515;9.2727;-0.0308;-0.0294;-0.0148
0000104085;7.7740;-8.3199;9.1794;-0.0297;-0.0356;-0.0183
0000104094;7.8003;-8.3294;9.3685;-0.0326;-0.0318;-0.0101
0000104107;7.7165;-8.3989;9.2943;-0.0316;-0.0302;-0.0164
0000104116;7.5776;-8.4731;9.3039;-0.0330;-0.0238;-0.0139
0000104128;7.4220;-8.4491;9.4882;-0.0007;-0.0334;-0.0039
0000104137;7.6734;-8.4611;9.2057;-0.0176;-0.0321;-0.0060
0000104150;7.8434;-8.4180;9.2320;-0.0334;-0.0273;-0.0101
0000104159;7.8314;-8.4563;9.2105;-0.0230;-0.0356;-0.0160
0000104171;7.8027;-8.4994;9.2656;-0.0160;-0.0326;-0.0109
0000104180;7.6160;-8.6024;9.2799;-0.0212;-0.0309;-0.0109
0000104249;7.8147;-8.3797;9.2560;-0.0350;-0.0318;-0.0165
0000104258;7.7237;-8.4180;9.2751;-0.0338;-0.0258;-0.0192
0000104267;7.5800;-8.6263;9.3182;-0.0281;-0.0250;-0.0121
0000104279;7.7907;-8.4060;9.2608;-0.0304;-0.0193;-0.0111
0000104288;7.4651;-8.4276;9.3541;-0.0293;-0.0213;-0.0171
0000104301;7.6543;-8.5210;9.3063;-0.0229;-0.0312;-0.0189
0000104310;7.6255;-8.4683;9.3326;-0.0309;-0.0258;-0.0175
0000104322;7.6327;-8.4683;9.2608;-0.0297;-0.0260;-0.0128
0000104331;7.6327;-8.4779;9.3087;-0.0224;-0.0296;-0.0167
0000104344;7.7548;-8.4539;9.2727;-0.0262;-0.0249;-0.0087
0000104353;7.8817;-8.4994;9.2296;-0.0382;-0.0289;-0.0205
0000104365;7.6519;-8.5641;9.2368;-0.0273;-0.0366;-0.0165
0000104374;7.7883;-8.5018;9.2273;-0.0294;-0.0276;-0.0136
0000104383;7.7237;-8.3606;9.1482;-0.0268;-0.0344;-0.0226
0000104396;7.6734;-8.3055;9.2105;-0.0445;-0.0240;-0.0200
0000104405;7.7021;-8.4396;9.2368;-0.0470;-0.0189;-0.0312
0000104417;7.5920;-8.4563;9.2991;-0.0457;-0.0169;-0.0356
0000104426;7.6207;-8.4994;9.2727;-0.0356;-0.0187;-0.0365
0000104439;7.5561;-8.5880;9.2895;-0.0334;-0.0332;-0.0380
0000104448;7.7405;-8.4539;9.3302;-0.0205;-0.0432;-0.0417
0000104460;7.7213;-8.5736;9.4427;-0.0277;-0.0404;-0.0341
0000104469;7.5729;-8.6191;9.3446;-0.0289;-0.0448;-0.0222
0000104538;7.7428;-8.4156;9.2225;-0.0204;-0.0314;-0.0097
0000104547;7.6255;-8.5138;9.1818;-0.0253;-0.0328;-0.0101
0000104556;7.6878;-8.4443;9.3087;-0.0216;-0.0328;-0.0061
0000104568;7.7069;-8.4731;9.2608;-0.0273;-0.0256;-0.0047
0000104577;7.6614;-8.4946;9.2751;-0.0306;-0.0204;-0.0051
0000104590;7.6279;-8.5473;9.2512;-0.0245;-0.0132;-0.0137
0000104599;7.6040;-8.4946;9.2344;-0.0264;-0.0141;-0.0123
0000104611;7.6878;-8.4970;9.3087;-0.0238;-0.0176;-0.0172
0000104620;7.4508;-8.2456;9.5217;0.0096;-0.0285;-0.0092
0000104633;7.6591;-8.4946;9.2177;-0.0298;-0.0357;-0.0217
0000104642;7.5489;-8.6670;9.1028;-0.0440;-0.0309;-0.0224
0000104651;7.6591;-8.7005;9.1818;-0.0293;-0.0376;-0.0292
0000104663;7.6806;-8.5808;9.2129;-0.0246;-0.0334;-0.0245
0000104672;7.6806;-8.5090;9.2512;-0.0277;-0.0274;-0.0213
0000104685;7.6998;-8.5377;9.2656;-0.0256;-0.0288;-0.0285
0000104694;7.7237;-8.4491;9.3781;-0.0232;-0.0240;-0.0368
0000104705;7.5681;-8.4946;9.2440;-0.0192;-0.0285;-0.0389
0000104714;7.4867;-8.5090;9.2632;-0.0153;-0.0321;-0.0322
0000104728;7.5058;-8.6287;9.2656;-0.0237;-0.0413;-0.0197
0000104737;7.9487;-8.2839;9.2991;-0.0222;-0.0512;-0.0175
0000104806;7.8961;-8.4276;9.2416;-0.0161;-0.0376;-0.0116
0000104815;7.6974;-8.4970;9.1866;-0.0180;-0.0362;-0.0140
0000104824;7.7692;-8.3749;9.2751;-0.0254;-0.0301;-0.0036
0000104836;7.8099;-8.5736;9.3015;-0.0289;-0.0284;-0.0037
0000104845;7.5705;-8.5353;9.4212;-0.0005;-0.0350;0.0003
0000104858;7.7021;-8.3989;9.2081;-0.0229;-0.0301;-0.0015
0000104867;7.5178;-8.6742;9.3302;-0.0334;-0.0244;-0.0107
0000104879;7.4843;-8.6191;9.2919;-0.0207;-0.0332;-0.0185
0000104888;7.5489;-8.4396;9.3015;-0.0199;-0.0320;-0.0143
0000104901;7.5250;-8.5593;9.2344;-0.0207;-0.0388;-0.0208
0000104910;7.7381;-8.4922;9.2009;-0.0240;-0.0360;-0.0171
0000104922;7.6064;-8.4970;9.3230;-0.0264;-0.0348;-0.0179
0000104931;7.8362;-8.3821;9.3158;-0.0298;-0.0337;-0.0157
0000104940;7.7428;-8.5617;9.3015;-0.0277;-0.0321;-0.0181
0000104953;7.7093;-8.5329;9.1842;-0.0169;-0.0313;-0.0179
0000104962;7.7021;-8.4611;9.1459;-0.0189;-0.0288;-0.0200
0000104974;7.5944;-8.4539;9.1770;-0.0273;-0.0246;-0.0133
0000104983;7.6878;-8.5784;9.1937;-0.0278;-0.0300;-0.0254
0000104996;7.8913;-8.4659;9.1866;-0.0260;-0.0253;-0.0159
0000105005;7.6375;-8.5281;9.2440;-0.0215;-0.0318;-0.0241
0000105017;7.7692;-8.5353;9.3302;-0.0233;-0.0215;-0.0125
0000105026;7.6471;-8.5856;9.2967;-0.0212;-0.0220;-0.0172
0000105095;7.6878;-8.5234;9.2560;-0.0257;-0.0249;-0.0153
0000105104;7.9080;-8.4324;9.2608;-0.0181;-0.0304;-0.0195
0000105113;7.6495;-8.7532;9.3039;-0.0230;-0.0221;-0.0067
0000105125;7.6184;-8.5784;9.2727;-0.0246;-0.0215;-0.0112
0000105134;7.6614;-8.5018;9.2895;-0.0242;-0.0260;-0.0113
0000105147;7.6279;-8.5712;9.2033;-0.0241;-0.0292;-0.0159
0000105156;7.6016;-8.6191;9.2727;-0.0195;-0.0256;-0.0116
0000105168;7.5992;-8.5593;9.1411;-0.0173;-0.0325;-0.0189
0000105177;7.5346;-8.5066;9.1961;-0.0191;-0.0320;-0.0143
0000105190;7.6662;-8.1355;9.3541;0.0140;-0.0429;-0.0059
0000105199;7.7476;-8.6431;9.1028;-0.0213;-0.0413;-0.0131
0000105208;7.6806;-8.6814;9.1889;-0.0330;-0.0345;-0.0191
0000105220;7.7309;-8.5856;9.2656;-0.0228;-0.0301;-0.0140
0000105229;7.7069;-8.4946;9.2153;-0.0192;-0.0264;-0.0149
0000105242;7.6878;-8.5688;9.3015;-0.0233;-0.0175;-0.0149
0000105251;7.7165;-8.6526;9.3637;-0.0216;-0.0108;-0.0123
0000105263;7.6902;-8.4851;9.2727;-0.0155;-0.0140;-0.0119
0000105272;7.4986;-8.7149;9.2153;0.0007;-0.0200;-0.0097
0000105285;7.8482;-8.4204;9.1794;0.0017;-0.0253;0.0001
0000105294;7.7452;-8.5473;9.2201;-0.0067;-0.0264;-0.0039
0000105306;7.6423;-8.5329;9.2799;-0.0091;-0.0253;-0.0033
0000105315;7.6519;-8.6886;9.2727;-0.0039;-0.0321;-0.0109
0000105324;7.7045;-8.6143;9.2201;-0.0071;-0.0326;-0.0109
0000105393;7.5729;-8.6095;9.3134;-0.0153;-0.0314;-0.0155
0000105402;7.6567;-8.6598;9.2895;-0.0188;-0.0269;-0.0131
0000105414;7.5513;-8.6957;9.2536;-0.0201;-0.0276;-0.0119
0000105423;7.5657;-8.5617;9.2488;-0.0164;-0.0321;-0.0104
0000105436;7.5896;-8.6072;9.2656;-0.0161;-0.0334;-0.0132
0000105445;7.7189;-8.4851;9.2009;-0.0180;-0.0370;-0.0145
0000105457;7.5872;-8.6287;9.2416;-0.0200;-0.0368;-0.0123
0000105466;7.5824;-8.6143;9.3134;-0.0160;-0.0400;-0.0157
0000105479;7.5010;-8.7532;9.3063;-0.0189;-0.0373;-0.0119
0000105488;7.7572;-8.4563;9.2871;-0.0165;-0.0317;-0.0083
0000105497;7.7069;-8.5617;9.2703;-0.0133;-0.0360;-0.0145
0000105509;7.5968;-8.5497;9.2368;-0.0125;-0.0356;-0.0167
0000105518;7.7213;-8.4180;9.2967;-0.0181;-0.0277;-0.0109
0000105531;7.7716;-8.5066;9.2057;-0.0201;-0.0326;-0.0169
0000105540;7.4915;-8.5928;9.1818;-0.0215;-0.0358;-0.0139
0000105552;7.6303;-8.5473;9.2225;-0.0241;-0.0360;-0.0129
0000105561;7.7955;-8.4539;9.2296;-0.0334;-0.0274;-0.0095
0000105574;7.6830;-8.6095;9.2751;-0.0316;-0.0250;-0.0184
0000105583;7.7788;-8.5665;9.2847;-0.0246;-0.0240;-0.0212
0000105595;7.6614;-8.6933;9.3302;-0.0187;-0.0180;-0.0168
0000105604;7.7500;-8.6287;9.2991;-0.0056;-0.0234;-0.0226
0000105613;7.5681;-8.5976;9.2464;-0.0140;-0.0176;-0.0168
0000105682;7.6303;-8.5760;9.2991;-0.0081;-0.0277;-0.0218
0000105691;7.6974;-8.5712;9.2919;-0.0125;-0.0241;-0.0119
0000105703;7.6471;-8.5904;9.2153;-0.0196;-0.0248;-0.0129
0000105712;7.5561;-8.6311;9.2320;-0.0211;-0.0313;-0.0152
0000105725;7.6136;-8.5329;9.2751;-0.0242;-0.0264;-0.0129
0000105734;7.4340;-8.7700;9.2847;-0.0171;-0.0330;-0.0161
0000105746;7.6399;-8.5760;9.2225;-0.0159;-0.0274;-0.0125
0000105755;7.5920;-8.5258;9.2751;-0.0144;-0.0292;-0.0149
0000105768;7.6112;-8.5162;9.2249;-0.0099;-0.0346;-0.0209
0000105777;7.7716;-8.4396;9.2560;-0.0135;-0.0350;-0.0175
0000105786;7.4555;-8.7532;9.1818;-0.0215;-0.0336;-0.0149
0000105798;7.5848;-8.6550;9.2799;-0.0230;-0.0344;-0.0189
0000105807;7.6207;-8.5880;9.2344;-0.0176;-0.0361;-0.0144
0000105820;7.7979;-8.5904;9.3039;-0.0183;-0.0338;-0.0107
0000105829;7.6591;-8.6024;9.2895;-0.0153;-0.0340;-0.0137
0000105841;7.7117;-8.5712;9.2273;-0.0116;-0.0325;-0.0175
0000105850;7.7788;-8.5281;9.2632;-0.0105;-0.0254;-0.0109
0000105863;7.6303;-8.5425;9.2536;-0.0161;-0.0258;-0.0084
0000105872;7.6279;-8.5736;9.2871;-0.0163;-0.0350;-0.0125
0000105881;7.8721;-8.5234;9.3039;-0.0205;-0.0328;0.0012
0000105893;7.6854;-8.6167;9.1937;-0.0135;-0.0370;-0.0059
0000105902;7.5681;-8.6191;9.1985;-0.0196;-0.0256;0.0027
0000105971;7.6279;-8.6598;9.2680;-0.0099;-0.0408;-0.0207
0000105980;7.7476;-8.6455;9.2871;-0.0091;-0.0448;-0.0188
0000105992;7.6758;-8.6215;9.2823;-0.0073;-0.0470;-0.0121
0000106001;7.7859;-8.5138;9.2296;-0.0103;-0.0416;-0.0119
0000106014;7.7189;-8.5018;9.2943;-0.0151;-0.0302;-0.0152
0000106023;7.6040;-8.6886;9.2009;-0.0203;-0.0237;-0.0115
0000106035;7.5082;-8.5832;9.4499;0.0036;-0.0306;-0.0055
0000106044;7.6758;-8.5234;9.2416;-0.0028;-0.0378;-0.0111
0000106053;7.6567;-8.9016;9.1482;-0.0330;-0.0285;-0.0123
0000106066;7.8003;-8.7221;9.2871;-0.0160;-0.0302;-0.0141
0000106075;7.7261;-8.6048;9.3063;-0.0103;-0.0382;-0.0171
0000106087;7.7620;-8.5497;9.2751;-0.0137;-0.0333;-0.0147
0000106096;7.7764;-8.4084;9.2512;-0.0217;-0.0256;-0.0119
0000106109;7.4555;-8.6550;9.2129;-0.0177;-0.0262;-0.0088
0000106118;7.5872;-8.6000;9.2296;-0.0159;-0.0274;-0.0124
0000106130;7.6255;-8.5952;9.1554;-0.0121;-0.0310;-0.0161
0000106139;7.5753;-8.5928;9.2249;-0.0201;-0.0240;-0.0075
0000106153;7.8171;-8.5138;9.2632;-0.0201;-0.0286;-0.0152
0000106162;7.7524;-8.5425;9.3087;-0.0216;-0.0272;-0.0172
0000106171;7.6279;-8.6287;9.3111;-0.0148;-0.0276;-0.0151
0000106184;7.7644;-8.4420;9.3230;-0.0187;-0.0253;-0.0177
0000106193;7.7572;-8.5305;9.3302;-0.0165;-0.0261;-0.0139
0000106262;7.7165;-8.4779;9.2368;-0.0167;-0.0212;-0.0109
0000106271;7.6543;-8.6670;9.2033;-0.0169;-0.0290;-0.0233
0000106284;7.6136;-8.6407;9.2799;-0.0167;-0.0246;-0.0212
0000106293;7.3741;-8.7364;9.3422;-0.0151;-0.0282;-0.0191
0000106305;7.6902;-8.5641;9.2105;-0.0149;-0.0374;-0.0195
0000106314;7.6040;-8.5976;9.2512;-0.0143;-0.0348;-0.0104
0000106327;7.7165;-8.6311;9.2392;-0.0145;-0.0290;-0.0095
0000106336;7.8482;-8.5162;9.2249;-0.0112;-0.0322;-0.0133
0000106345;7.6184;-8.6263;9.2632;-0.0167;-0.0217;-0.0099
0000106357;7.6064;-8.7197;9.2225;-0.0205;-0.0220;-0.0040
0000106366;7.5513;-8.7484;9.2775;-0.0056;-0.0242;-0.0148
0000106379;7.7644;-8.5281;9.1937;-0.0133;-0.0250;-0.0128
0000106388;7.6471;-8.6359;9.2847;-0.0137;-0.0185;-0.0151
0000106400;7.5896;-8.6000;9.3470;0.0087;-0.0308;-0.0113
0000106409;7.8338;-8.7029;9.1363;-0.0234;-0.0245;-0.0123
0000106422;7.6327;-8.6383;9.2751;-0.0179;-0.0226;-0.0164
0000106431;7.6447;-8.5904;9.2584;-0.0140;-0.0256;-0.0160
0000106440;7.5824;-8.6670;9.2177;-0.0091;-0.0333;-0.0160
0000106452;7.7069;-8.6167;9.2296;-0.0091;-0.0333;-0.0204
0000106461;7.8458;-8.5114;9.2129;-0.0100;-0.0314;-0.0096
0000106474;7.7261;-8.5856;9.2201;-0.0105;-0.0248;-0.0136
0000106483;7.5896;-8.6598;9.2608;-0.0091;-0.0240;-0.0135
0000106552;7.6351;-8.6024;9.1650;-0.0128;-0.0324;-0.0153
0000106561;7.4795;-8.6024;9.1889;-0.0096;-0.0292;-0.0136
0000106574;7.6782;-8.4372;9.2847;-0.0183;-0.0353;-0.0161
0000106583;7.6495;-8.4874;9.2680;-0.0183;-0.0297;-0.0103
0000106595;7.6471;-8.6239;9.2560;-0.0181;-0.0309;-0.0103
0000106604;7.5753;-8.6694;9.2560;-0.0107;-0.0393;-0.0164
0000106613;7.6998;-8.5712;9.3661;-0.0123;-0.0304;-0.0055
0000106626;7.6375;-8.5904;9.2751;-0.0188;-0.0312;-0.0103
0000106635;7.6327;-8.5712;9.2057;-0.0091;-0.0417;-0.0165
0000106647;7.9248;-8.4324;9.2440;-0.0135;-0.0356;-0.0151
0000106656;7.8075;-8.5617;9.1626;-0.0157;-0.0340;-0.0140
0000106669;7.5441;-8.7891;9.2967;-0.0163;-0.0317;-0.0177
0000106678;7.6926;-8.5281;9.2273;-0.0157;-0.0333;-0.0185
0000106690;7.8458;-8.6095;9.2249;-0.0128;-0.0252;-0.0131
0000106699;7.5705;-8.5880;9.2296;-0.0131;-0.0278;-0.0156
0000106712;7.6758;-8.5090;9.2296;-0.0164;-0.0309;-0.0183
0000106721;7.6758;-8.6574;9.2153;-0.0213;-0.0333;-0.0091
0000106730;7.6375;-8.6910;9.2895;-0.0204;-0.0348;-0.0085
0000106742;7.6495;-8.5162;9.1554;-0.0192;-0.0406;-0.0104
0000106751;7.8769;-8.4348;9.1842;-0.0167;-0.0421;-0.0181
0000106764;7.6447;-8.6790;9.2488;-0.0173;-0.0325;-0.0184
0000106773;7.7572;-8.5856;9.2105;-0.0183;-0.0273;-0.0168
0000106841;7.4436;-8.7149;9.2033;-0.0171;-0.0410;-0.0089
0000106850;7.6638;-8.6814;9.2512;-0.0207;-0.0394;-0.0127
0000106863;7.6591;-8.5641;9.2320;-0.0141;-0.0305;-0.0153
0000106872;7.6375;-8.7580;9.2512;-0.0093;-0.0384;-0.0208
0000106884;7.7907;-8.6000;9.2153;-0.0076;-0.0297;-0.0213
0000106893;7.7428;-8.6790;9.2153;-0.0168;-0.0272;-0.0109
0000106902;7.7883;-8.6263;9.1411;-0.0096;-0.0364;-0.0199
0000106915;7.8458;-8.5018;9.3254;-0.0161;-0.0256;-0.0144
0000106924;7.6471;-8.5712;9.2057;-0.0140;-0.0310;-0.0153
0000106936;7.5417;-8.6526;9.2775;-0.0115;-0.0330;-0.0169
0000106945;7.5657;-8.5569;9.2680;-0.0133;-0.0337;-0.0179
0000106958;7.6279;-8.5641;9.2512;-0.0101;-0.0364;-0.0147
0000106967;7.6207;-8.5449;9.2225;-0.0140;-0.0326;-0.0116
0000106979;7.6423;-8.5401;9.1937;-0.0177;-0.0409;-0.0152
0000106986;7.7093;-8.4922;9.1698;-0.0140;-0.0452;-0.0177
0000106998;7.5657;-8.6526;9.2823;-0.0131;-0.0380;-0.0175
0000107006;7.7692;-8.5832;9.3134;-0.0173;-0.0352;-0.0147
0000107014;7.6471;-8.4252;9.3565;-0.0073;-0.0346;-0.0108
0000107025;7.5944;-8.6000;9.2895;0.0080;-0.0357;-0.0048
0000107033;7.7764;-8.5377;9.1626;-0.0081;-0.0432;-0.0120
0000107045;7.6088;-8.7747;9.1339;-0.0149;-0.0314;-0.0112
0000107053;7.6279;-8.7388;9.3350;-0.0085;-0.0309;-0.0069
