time;acc_x;acc_y;acc_z;gyro_x;gyro_y;gyro_z
0000230137;4.3431;-16.1321;1.3312;-0.0432;0.0221;0.0011
0000230145;4.3239;-16.1776;1.3695;-0.0345;0.0155;-0.0015
0000230152;4.3958;-15.9981;1.3575;-0.0137;0.0065;-0.0087
0000230160;4.5035;-15.8760;1.3384;-0.0107;0.0089;-0.0017
0000230169;4.2880;-16.0005;1.3503;0.0023;0.0025;-0.0083
0000230177;4.3431;-15.8760;1.2665;0.0032;0.0068;-0.0099
0000230189;4.4676;-15.5886;1.3168;-0.0032;0.0064;-0.0085
0000230197;4.4628;-15.6629;1.2665;0.0021;0.0072;-0.0179
0000230205;4.5442;-15.5767;1.3647;-0.0117;0.0107;-0.0115
0000230216;4.5873;-15.6844;1.3479;-0.0197;0.0115;-0.0226
0000230224;4.4077;-15.6892;1.2617;-0.0285;0.0192;-0.0183
0000230236;4.4748;-15.6341;1.3599;-0.0365;0.0256;-0.0195
0000230244;4.4149;-15.7898;1.2785;-0.0328;0.0257;-0.0256
0000230311;4.4101;-15.7395;1.2067;-0.0333;0.0238;-0.0153
0000230319;4.3311;-15.7993;1.2043;-0.0306;0.0181;-0.0145
0000230331;4.3838;-15.6820;1.1420;-0.0356;0.0157;-0.0132
0000230339;4.4580;-15.7682;1.0032;-0.0504;0.0180;-0.0051
0000230350;4.4436;-15.7443;1.0582;-0.0553;0.0171;-0.0092
0000230358;4.5921;-15.6030;1.0175;-0.0702;0.0203;-0.0091
0000230366;4.3622;-15.7084;1.0151;-0.0701;0.0274;-0.0125
0000230378;4.4796;-15.9741;0.9792;-0.0709;0.0304;-0.0160
0000230386;4.3024;-16.0507;1.0487;-0.0661;0.0392;-0.0165
0000230397;4.4819;-16.1441;0.9888;-0.0594;0.0457;-0.0232
0000230405;4.4796;-16.0890;1.1564;-0.0517;0.0457;-0.0293
0000230417;4.3766;-16.0866;1.0511;-0.0329;0.0388;-0.0412
0000230425;4.3407;-15.9669;1.0319;-0.0265;0.0440;-0.0452
0000230436;4.3766;-15.9310;0.9313;-0.0167;0.0420;-0.0426
0000230444;4.4748;-15.6533;1.0534;-0.0155;0.0301;-0.0500
0000230456;4.5633;-15.6485;0.9792;-0.0245;0.0309;-0.0440
0000230464;4.1707;-15.7802;1.0870;-0.0249;0.0213;-0.0449
0000230472;4.1611;-15.8329;1.1564;-0.0332;0.0213;-0.0338
0000230483;4.4532;-15.6437;1.3264;-0.0310;0.0105;-0.0317
0000230491;4.4077;-15.7969;1.1325;-0.0418;0.0045;-0.0302
0000230503;4.4748;-15.7754;1.0439;-0.0416;0.0001;-0.0344
0000230511;4.4317;-15.8903;1.1037;-0.0500;0.0081;-0.0301
0000230578;4.4053;-16.0172;1.0199;-0.0473;-0.0328;-0.0099
0000230586;4.3790;-15.9837;1.0104;-0.0470;-0.0354;-0.0039
0000230598;4.5586;-15.9813;0.9720;-0.0324;-0.0433;-0.0080
0000230606;4.4005;-15.9406;1.0750;-0.0272;-0.0434;-0.0081
0000230617;4.4077;-15.9262;0.9840;-0.0105;-0.0504;-0.0147
0000230625;4.3191;-15.8760;0.9840;-0.0039;-0.0593;-0.0245
0000230633;4.3239;-15.7323;0.9433;-0.0049;-0.0629;-0.0226
0000230645;4.4221;-15.7179;0.9433;-0.0096;-0.0626;-0.0216
0000230653;4.4173;-15.7251;1.0367;-0.0093;-0.0697;-0.0249
0000230664;4.1348;-16.0172;1.0247;-0.0143;-0.0682;-0.0157
0000230672;4.3287;-15.8137;1.0846;-0.0085;-0.0766;-0.0215
0000230684;4.4173;-15.7443;1.0558;-0.0103;-0.0758;-0.0221
0000230692;4.3598;-15.8161;1.0989;-0.0064;-0.0802;-0.0157
0000230703;4.4269;-15.7562;1.1253;-0.0097;-0.0805;-0.0135
0000230711;4.3670;-15.9023;1.1085;-0.0121;-0.0905;-0.0161
0000230723;4.5346;-15.7562;1.1037;-0.0109;-0.0973;-0.0139
0000230731;4.4125;-15.7634;1.0080;-0.0077;-0.0957;-0.0183
0000230742;4.3910;-15.8760;1.0271;-0.0195;-0.0885;-0.0099
0000230750;4.5346;-15.7850;0.9194;-0.0145;-0.0894;-0.0140
0000230758;4.4700;-15.7730;0.9409;-0.0189;-0.0875;-0.0077
0000230770;4.3120;-15.8592;0.9673;-0.0221;-0.0861;-0.0055
0000230778;4.4125;-15.7802;0.9625;-0.0306;-0.0886;-0.0051
0000230845;4.5897;-15.6150;0.8811;-0.0349;-0.1019;-0.0048
0000230853;4.5011;-15.5671;0.9098;-0.0448;-0.0949;0.0031
0000230865;4.4819;-15.5456;0.9697;-0.0537;-0.0971;-0.0001
0000230873;4.3670;-15.7419;0.9026;-0.0552;-0.0983;0.0007
0000230884;4.5370;-15.7323;0.9385;-0.0594;-0.0970;-0.0007
0000230892;4.4053;-15.8616;1.0008;-0.0546;-0.0981;-0.0033
0000230904;4.4412;-15.8688;0.9912;-0.0453;-0.0923;-0.0033
0000230912;4.4939;-15.8999;0.9768;-0.0438;-0.0890;-0.0001
0000230920;4.5945;-15.8712;1.0415;-0.0460;-0.0835;0.0039
0000230931;4.5777;-15.8688;1.0271;-0.0436;-0.0855;0.0037
0000230939;4.6615;-15.7084;0.9744;-0.0494;-0.0793;-0.0027
0000230951;4.4819;-15.8400;0.9505;-0.0474;-0.0769;-0.0032
0000230959;4.3622;-15.9262;0.9098;-0.0502;-0.0653;-0.0037
0000230970;4.4125;-15.9167;1.0032;-0.0466;-0.0703;-0.0171
0000230978;4.2904;-16.0723;0.9960;-0.0497;-0.0781;-0.0269
0000230990;4.6040;-15.8664;1.0127;-0.0476;-0.0791;-0.0270
0000230998;4.5849;-16.0627;1.0487;-0.0366;-0.0755;-0.0200
0000231009;4.4772;-16.0076;1.0463;-0.0312;-0.0778;-0.0144
0000231017;4.6112;-15.9262;0.9936;-0.0336;-0.0641;-0.0028
0000231029;4.5538;-15.6988;0.9744;-0.0349;-0.0586;0.0048
0000231037;4.5155;-15.8712;1.0127;-0.0393;-0.0568;0.0087
0000231045;4.5562;-15.8999;0.9481;-0.0386;-0.0584;0.0028
0000231112;4.6950;-15.6557;1.1325;-0.0171;-0.0533;-0.0369
0000231120;4.5370;-15.7802;1.1396;-0.0233;-0.0445;-0.0341
0000231132;4.7238;-15.7467;1.0439;-0.0332;-0.0434;-0.0376
0000231140;4.6112;-15.7730;1.0894;-0.0298;-0.0482;-0.0434
0000231151;4.5083;-15.8999;1.0965;-0.0346;-0.0405;-0.0304
0000231159;4.6759;-15.7874;1.0965;-0.0268;-0.0428;-0.0313
0000231171;4.5777;-15.9047;1.1085;-0.0258;-0.0414;-0.0326
0000231179;4.5514;-15.8927;1.0534;-0.0249;-0.0361;-0.0238
0000231190;4.5298;-15.9214;1.0678;-0.0176;-0.0329;-0.0290
0000231198;4.5418;-15.9550;1.1349;-0.0187;-0.0270;-0.0232
0000231210;4.5729;-15.9143;0.9792;-0.0205;-0.0225;-0.0278
0000231218;4.4341;-15.8783;1.0942;-0.0215;-0.0164;-0.0253
0000231226;4.5993;-15.7922;1.0271;-0.0215;-0.0209;-0.0329
0000231237;4.3622;-15.9597;1.0702;-0.0241;-0.0207;-0.0340
0000231245;4.4365;-15.8424;1.0511;-0.0285;-0.0175;-0.0278
0000231257;4.5681;-15.7610;1.1037;-0.0230;-0.0222;-0.0273
0000231265;4.5083;-15.9238;1.0822;-0.0272;-0.0105;-0.0224
0000231276;4.4724;-15.9119;1.0678;-0.0238;-0.0176;-0.0197
0000231284;4.5203;-15.8352;1.0846;-0.0292;-0.0156;-0.0207
0000231296;4.3886;-15.9909;1.0606;-0.0230;-0.0228;-0.0236
0000231304;4.4604;-15.9071;1.0008;-0.0288;-0.0153;-0.0191
0000231371;4.3263;-16.0196;1.1037;-0.0226;-0.0057;-0.0226
0000231379;4.5274;-15.9095;1.0151;-0.0236;-0.0029;-0.0137
0000231391;4.2976;-16.0196;1.0439;-0.0181;-0.0003;-0.0123
0000231399;4.6280;-15.7754;0.9697;-0.0161;-0.0079;-0.0139
0000231407;4.4341;-15.9478;1.0247;-0.0081;-0.0087;-0.0168
0000231418;4.3694;-15.9023;1.0415;-0.0096;-0.0004;-0.0187
0000231426;4.4293;-15.8975;1.1253;-0.0093;-0.0083;-0.0261
0000231438;4.4125;-16.0076;1.0918;-0.0076;-0.0072;-0.0278
0000231446;4.5825;-15.9047;1.1205;-0.0107;-0.0021;-0.0211
0000231457;4.4412;-15.9382;1.0678;-0.0081;-0.0060;-0.0157
0000231465;4.5873;-15.8927;1.0439;-0.0113;-0.0076;-0.0217
0000231477;4.3598;-15.8089;0.9601;-0.0167;-0.0027;-0.0173
0000231485;4.6352;-15.8329;1.0798;-0.0212;-0.0011;-0.0068
0000231497;4.5203;-15.9310;1.0463;-0.0129;-0.0063;-0.0045
0000231505;4.5035;-15.8496;0.9960;-0.0104;-0.0103;-0.0088
0000231516;4.3814;-15.8664;1.0319;-0.0067;-0.0147;-0.0097
0000231524;4.3551;-15.7251;0.9840;-0.0075;-0.0171;-0.0124
0000231532;4.4604;-15.7922;0.9505;-0.0083;-0.0128;-0.0113
0000231544;4.3694;-15.7562;1.0127;-0.0124;-0.0132;-0.0203
0000231552;4.5011;-15.7203;1.0295;-0.0187;-0.0238;-0.0217
0000231564;4.5514;-15.7706;1.0511;-0.0212;-0.0203;-0.0298
0000231572;4.1827;-16.0842;0.9744;-0.0145;-0.0197;-0.0236
0000231640;4.4484;-15.9693;1.0582;-0.0009;-0.0498;-0.0124
0000231648;4.4125;-15.9645;1.1372;-0.0072;-0.0437;-0.0073
0000231659;4.5418;-15.8568;1.0606;-0.0011;-0.0402;-0.0111
0000231667;4.5394;-15.8975;1.0008;0.0053;-0.0454;-0.0145
0000231679;4.5490;-15.7706;0.9553;0.0061;-0.0360;-0.0108
0000231687;4.5753;-15.8424;1.0271;0.0107;-0.0374;-0.0105
0000231695;4.4891;-15.8017;1.0487;0.0191;-0.0388;-0.0161
0000231706;4.4436;-15.8975;0.9625;0.0266;-0.0474;-0.0242
0000231714;4.4101;-15.8951;1.0582;0.0200;-0.0368;-0.0220
0000231726;4.3886;-15.8185;1.0774;0.0226;-0.0380;-0.0211
0000231734;4.5849;-15.7730;0.9936;0.0144;-0.0437;-0.0211
0000231745;4.3981;-15.8855;1.1205;0.0151;-0.0410;-0.0129
0000231753;4.4700;-15.8520;1.1013;0.0153;-0.0401;-0.0203
0000231765;4.4412;-15.8855;1.0104;0.0200;-0.0456;-0.0222
0000231773;4.5203;-15.9885;1.0271;0.0207;-0.0384;-0.0169
0000231784;4.4700;-15.9621;1.0151;0.0285;-0.0414;-0.0272
0000231792;4.4652;-15.9023;1.0942;0.0258;-0.0348;-0.0217
0000231800;4.5346;-15.7491;1.0606;0.0280;-0.0396;-0.0298
0000231812;4.5825;-15.6653;1.0678;0.0228;-0.0424;-0.0200
0000231820;4.4388;-15.8089;1.0654;0.0176;-0.0380;-0.0179
0000231832;4.4293;-15.8209;1.1851;0.0143;-0.0506;-0.0140
0000231840;4.3598;-15.8807;1.1229;0.0100;-0.0430;-0.0117
0000231908;4.5562;-15.7203;1.0894;0.0249;-0.0461;-0.0261
0000231916;4.4388;-15.8807;0.9577;0.0203;-0.0506;-0.0215
0000231927;4.3886;-15.7778;1.0439;0.0037;-0.0589;-0.0135
0000231935;4.4580;-15.6964;1.0247;-0.0031;-0.0594;-0.0047
0000231947;4.4149;-15.8999;1.0654;-0.0087;-0.0654;-0.0045
0000231955;4.5562;-15.7730;1.0750;-0.0104;-0.0655;-0.0073
0000231963;4.4604;-15.8568;1.1253;0.0011;-0.0741;-0.0116
0000231974;4.4843;-15.8137;1.0487;0.0085;-0.0661;-0.0160
0000231982;4.5418;-15.7850;1.0822;0.0131;-0.0604;-0.0208
0000231994;4.5681;-15.5934;1.0870;0.0124;-0.0581;-0.0270
0000232002;4.5394;-15.7610;1.1085;0.0063;-0.0584;-0.0350
0000232013;4.7453;-15.5408;1.0487;-0.0021;-0.0548;-0.0356
0000232021;4.4652;-15.7730;1.0822;-0.0068;-0.0573;-0.0361
0000232033;4.5155;-15.7850;1.0702;-0.0147;-0.0540;-0.0325
0000232041;4.5059;-15.7898;1.0558;-0.0180;-0.0545;-0.0321
0000232052;4.4365;-15.9574;1.1037;-0.0159;-0.0561;-0.0301
0000232060;4.5705;-15.9717;1.1588;-0.0141;-0.0605;-0.0270
0000232068;4.4173;-16.0507;1.1420;-0.0031;-0.0694;-0.0274
0000232080;4.4460;-16.1178;1.0511;0.0012;-0.0673;-0.0248
0000232088;4.4460;-16.0627;1.0918;0.0007;-0.0629;-0.0236
0000232100;4.3455;-16.1297;1.0989;0.0076;-0.0640;-0.0234
0000232108;4.6184;-15.9669;1.1157;0.0127;-0.0695;-0.0316
0000232176;4.4867;-15.8712;1.1109;0.0292;-0.0702;-0.0322
0000232184;4.5729;-15.8975;1.1588;0.0305;-0.0715;-0.0309
0000232195;4.5418;-15.7945;1.1636;0.0360;-0.0790;-0.0337
0000232203;4.5681;-15.9478;1.1349;0.0334;-0.0762;-0.0352
0000232215;4.5729;-15.8089;1.1181;0.0338;-0.0739;-0.0385
0000232223;4.3383;-16.0100;1.0534;0.0338;-0.0734;-0.0344
0000232231;4.5610;-15.9334;1.1157;0.0340;-0.0750;-0.0428
0000232242;4.6208;-15.8424;1.2019;0.0325;-0.0781;-0.0410
0000232250;4.5226;-15.8688;1.1516;0.0352;-0.0851;-0.0397
0000232262;4.4724;-15.8568;1.1205;0.0293;-0.0806;-0.0398
0000232270;4.6639;-15.8520;1.1181;0.0344;-0.0801;-0.0417
0000232281;4.5107;-15.8712;1.0678;0.0236;-0.0735;-0.0340
0000232289;4.6112;-15.6796;1.2043;0.0316;-0.0794;-0.0373
0000232301;4.5586;-15.8616;1.1684;0.0304;-0.0802;-0.0286
0000232309;4.5131;-15.9454;1.2450;0.0277;-0.0707;-0.0265
0000232320;4.6663;-15.7467;1.1564;0.0342;-0.0719;-0.0357
0000232328;4.6591;-15.8472;1.1732;0.0400;-0.0670;-0.0442
0000232336;4.4819;-16.0435;1.2522;0.0336;-0.0597;-0.0404
0000232348;4.5753;-15.9143;1.1564;0.0245;-0.0552;-0.0464
0000232356;4.6807;-15.8688;1.0056;0.0224;-0.0597;-0.0420
0000232368;4.3958;-15.9597;0.8571;0.0195;-0.0576;-0.0297
0000232376;4.4436;-15.9095;1.0223;0.0252;-0.0624;-0.0217
0000232444;4.7429;-15.5527;1.2617;0.0839;-0.0742;-0.0497
0000232452;4.6328;-15.5743;1.2163;0.0733;-0.0622;-0.0429
0000232463;4.6495;-15.5575;1.2019;0.0628;-0.0542;-0.0537
0000232471;4.6424;-15.6246;1.1253;0.0545;-0.0557;-0.0570
0000232483;4.7573;-15.8305;1.2163;0.0357;-0.0541;-0.0537
0000232491;4.7262;-15.8281;1.2426;0.0274;-0.0464;-0.0444
0000232499;4.5945;-16.0459;1.2402;0.0286;-0.0508;-0.0464
0000232510;4.5993;-15.9837;1.3431;0.0386;-0.0560;-0.0470
0000232518;4.6687;-15.9837;1.3001;0.0402;-0.0541;-0.0446
0000232530;4.5274;-16.0148;1.2139;0.0516;-0.0570;-0.0433
0000232538;4.4341;-16.0005;1.1756;0.0600;-0.0614;-0.0494
0000232549;4.5849;-15.8089;1.1732;0.0677;-0.0633;-0.0489
0000232557;4.5753;-15.8448;1.1157;0.0782;-0.0582;-0.0502
0000232569;4.6256;-15.8544;1.0487;0.0866;-0.0558;-0.0512
0000232577;4.7764;-15.7155;1.0942;0.0847;-0.0453;-0.0460
0000232588;4.7836;-15.6700;1.1636;0.0915;-0.0440;-0.0392
0000232596;4.7094;-15.8209;1.1253;0.0919;-0.0473;-0.0474
0000232604;4.8554;-15.6964;1.2282;0.0937;-0.0366;-0.0494
0000232616;4.7190;-15.8305;1.3455;0.0930;-0.0446;-0.0689
0000232624;4.6639;-15.8448;1.3791;0.1017;-0.0513;-0.0930
0000232636;4.3598;-15.9334;1.3048;0.1025;-0.0580;-0.1144
0000232644;4.1875;-16.0435;1.1013;0.1074;-0.0621;-0.1279
0000232710;4.9943;-16.0651;0.9337;0.2678;-0.1781;-0.1015
0000232718;4.8746;-15.7515;0.8930;0.2655;-0.1884;-0.0986
0000232729;4.8028;-15.3612;0.6800;0.2154;-0.1955;-0.0958
0000232737;4.8554;-15.2223;0.5818;0.1715;-0.1872;-0.0953
0000232749;4.9704;-15.1888;0.5076;0.1055;-0.1633;-0.0923
0000232757;5.1068;-15.0883;0.4956;0.0786;-0.1474;-0.0887
0000232765;5.1667;-15.2798;0.5531;0.0481;-0.1287;-0.0906
0000232776;4.9512;-15.4354;0.5291;0.0187;-0.1178;-0.0917
0000232784;4.7070;-15.4570;0.6129;0.0103;-0.1207;-0.0947
0000232796;4.2258;-15.6772;0.8930;0.0133;-0.1544;-0.0955
0000232804;3.9696;-15.6772;1.0894;0.0272;-0.1988;-0.0897
0000232815;3.6057;-15.9023;1.2091;0.0536;-0.2942;-0.0773
0000232823;3.2777;-15.9885;1.4078;0.0590;-0.3777;-0.0589
0000232835;3.3902;-15.7227;1.2354;0.0666;-0.5015;-0.0292
0000232843;3.5027;-15.6437;1.1875;0.0538;-0.5766;-0.0067
0000232855;3.7828;-15.7131;1.1109;0.0352;-0.6686;0.0156
0000232863;4.2617;-15.7251;1.0702;0.0278;-0.7240;0.0115
0000232871;4.6639;-15.6174;1.0367;0.0145;-0.7466;0.0250
0000232882;5.0470;-15.6605;0.9337;-0.0037;-0.7669;0.0177
0000232890;5.0709;-15.8209;0.9625;-0.0268;-0.7568;0.0242
0000232902;5.3175;-15.9071;0.9505;-0.0509;-0.7477;0.0157
0000232910;5.5426;-15.9861;0.8667;-0.0586;-0.7282;0.0141
0000232973;4.9536;-15.8376;0.8212;0.0783;-0.5899;-0.0608
0000232981;4.9057;-15.7754;0.8140;0.0826;-0.5818;-0.0644
0000232993;4.9871;-15.6892;0.9290;0.0969;-0.5618;-0.0725
0000233001;5.0613;-15.8640;1.0439;0.1111;-0.5618;-0.0741
0000233009;5.0901;-15.8736;0.9936;0.1146;-0.5476;-0.0723
0000233020;5.0159;-15.9310;0.7470;0.1283;-0.5381;-0.0829
0000233028;5.1451;-15.7826;0.7207;0.1272;-0.5284;-0.0813
0000233040;4.8937;-15.8616;0.5555;0.1406;-0.5108;-0.0931
0000233048;4.6783;-16.0364;0.6201;0.1536;-0.5065;-0.1035
0000233059;4.8147;-16.0699;0.7661;0.1835;-0.4948;-0.1070
0000233067;4.7094;-16.2135;0.9768;0.2149;-0.4951;-0.1151
0000233079;4.8866;-16.0627;1.1516;0.2641;-0.4891;-0.1186
0000233087;4.7932;-16.0866;1.0415;0.2847;-0.4907;-0.1264
0000233098;5.0063;-15.7155;0.8619;0.2906;-0.5029;-0.1392
0000233106;4.9536;-15.4306;0.7087;0.2683;-0.4923;-0.1375
0000233114;5.1164;-15.3492;0.4764;0.2545;-0.4926;-0.1395
0000233126;4.8578;-15.0907;0.3926;0.2256;-0.4863;-0.1303
0000233134;4.9344;-15.1314;0.4549;0.2041;-0.4736;-0.1186
0000233145;4.5777;-15.6509;0.6728;0.2192;-0.4828;-0.1244
0000233153;4.4293;-15.9310;0.7973;0.2499;-0.4955;-0.1259
0000233165;4.1707;-16.1656;1.0415;0.3079;-0.5240;-0.1436
0000233173;4.2569;-16.1154;1.1205;0.3487;-0.5504;-0.1605
0000233236;5.0206;-14.9542;0.8954;0.3459;-0.6458;-0.1893
0000233244;4.7357;-15.0930;1.0439;0.3487;-0.6532;-0.2098
0000233256;4.6663;-15.2989;1.3479;0.3744;-0.6784;-0.2414
0000233264;4.6495;-15.3037;1.4485;0.3977;-0.6975;-0.2542
0000233272;4.4556;-15.4737;1.5251;0.4405;-0.7374;-0.2745
0000233283;4.6543;-15.3708;1.5730;0.4931;-0.7663;-0.2846
0000233291;4.5993;-15.4546;1.5514;0.5264;-0.7850;-0.3016
0000233303;4.8291;-15.1673;1.2809;0.5633;-0.7957;-0.3292
0000233311;4.9249;-15.0045;1.2594;0.5648;-0.7961;-0.3531
0000233322;4.9321;-14.7459;1.4581;0.5762;-0.8066;-0.4013
0000233330;4.9057;-14.5807;1.4676;0.5828;-0.8215;-0.4361
0000233342;4.6615;-14.4035;1.5682;0.6037;-0.8781;-0.4764
0000233350;4.5729;-14.1641;1.6017;0.6230;-0.9229;-0.4839
0000233361;4.3120;-14.0252;1.5921;0.6324;-0.9758;-0.4628
0000233369;4.1252;-14.0324;1.5419;0.6414;-1.0148;-0.4545
0000233377;4.2353;-13.8505;1.6735;0.6566;-1.0475;-0.4469
0000233389;4.3455;-13.9271;2.2721;0.7105;-1.0768;-0.4445
0000233397;4.6855;-13.8122;2.3583;0.7545;-1.1065;-0.4655
0000233408;5.2768;-13.6278;2.4014;0.8064;-1.1574;-0.5155
0000233416;5.1523;-13.7451;2.2817;0.8576;-1.2097;-0.5560
0000233428;4.8363;-13.2591;2.0782;0.9621;-1.3023;-0.5850
0000233436;4.6543;-12.9550;2.1691;1.0585;-1.3531;-0.5690
0000233499;5.7293;-9.2991;0.4980;1.1716;-1.6192;-0.4338
0000233507;6.2872;-8.9854;0.3567;1.1590;-1.6072;-0.4879
0000233515;6.4236;-9.2680;0.4142;1.1330;-1.5961;-0.5662
0000233527;6.6008;-9.6941;0.3184;1.1527;-1.6331;-0.7457
0000233535;6.7253;-9.8378;0.2131;1.1868;-1.6747;-0.8671
0000233546;6.4811;-10.7021;0.3663;1.2967;-1.7111;-0.9980
0000233554;6.0047;-11.0708;0.5650;1.3654;-1.7251;-0.9963
0000233566;5.5689;-11.7364;1.4461;1.4742;-1.8087;-0.9999
0000233574;5.6455;-12.4690;2.1691;1.5068;-1.8286;-0.9979
0000233585;5.4660;-13.0388;2.8419;1.4838;-1.9514;-1.0463
0000233593;5.7054;-13.8600;3.1867;1.4402;-2.0364;-1.1443
0000233605;7.2257;-14.3293;3.6655;1.4237;-2.1272;-1.3921
0000233613;8.3725;-14.4083;3.3902;1.4761;-2.1338;-1.5676
0000233621;9.1363;-14.4514;2.8970;1.5820;-2.1276;-1.7459
0000233632;10.2400;-14.4418;2.2984;1.7152;-1.9886;-1.8949
0000233640;10.5560;-13.7044;2.3008;1.8398;-1.8611;-1.9708
0000233652;10.6757;-12.9502;3.1244;1.9253;-1.6486;-1.9941
0000233660;10.5034;-12.3445;4.0199;1.9177;-1.5227;-2.0195
0000233671;8.9591;-12.0237;5.3008;1.8528;-1.4216;-2.0775
0000233679;7.2880;-12.1889;4.9680;1.6169;-1.3620;-2.1093
0000233691;5.3463;-15.0643;0.6991;1.3761;-1.4033;-2.2926
0000233699;4.3000;-15.6892;-1.2163;1.3911;-1.4206;-2.4797
0000233762;2.6504;-14.0300;-0.4525;2.7964;-1.6517;-2.6537
0000233770;3.2729;-11.8513;2.4062;2.6985;-1.6403;-2.6971
0000233778;3.5626;-9.4595;4.3886;2.1802;-1.5144;-2.6007
0000233790;3.3758;-8.5258;3.5434;1.5515;-1.2620;-2.6504
0000233798;4.6519;-9.6678;-0.3017;1.4109;-1.2344;-2.6803
0000233809;7.5322;-11.9375;-4.7190;1.5287;-1.2963;-2.6705
0000233817;9.0597;-12.2152;-4.3694;1.4386;-1.3827;-2.6345
0000233829;11.8824;-11.4156;-2.2434;0.8130;-1.5520;-2.6055
0000233837;12.6318;-10.6039;-0.9409;0.4824;-1.7192;-2.5965
0000233848;12.5336;-10.1394;1.0008;0.4987;-1.7685;-2.5997
0000233856;13.0125;-9.1339;4.9057;0.6648;-1.6257;-2.4379
0000233868;16.1393;-6.4548;12.1530;0.6281;-1.2566;-1.5310
0000233876;22.6084;-3.6105;17.1664;0.2854;-0.6692;-0.7350
0000233887;33.6361;-1.5610;11.3677;0.5754;0.6039;0.9086
0000233895;36.7247;4.5346;11.0612;1.0353;1.9345;2.0284
0000233903;39.7294;10.7045;13.5608;0.9715;2.8770;3.1068
0000233915;40.9696;13.1777;6.8690;0.2061;3.5058;3.2520
0000233923;44.4867;15.0883;6.6631;-0.6013;4.3656;2.0880
0000233934;54.2287;22.2182;8.7340;0.0244;4.3656;-2.0764
0000233942;63.4272;12.6127;1.4078;0.4072;4.3656;-3.8233
0000233954;66.4463;1.9848;28.8286;-2.4778;1.8847;-4.3657
0000233962;59.6132;-9.0477;49.3301;-3.7494;0.1531;-4.3657
0000234025;5.8371;0.3256;2.0423;3.2290;1.8923;-1.4145
0000234033;4.4532;0.2777;1.4006;2.9842;1.3065;-1.4063
0000234041;2.8036;-0.3280;-0.3089;2.5604;0.8813;-1.2412
0000234053;1.4868;-0.4334;-1.7933;1.9454;0.2309;-0.9711
0000234061;0.8284;0.3663;-0.7207;1.3867;-0.0711;-0.8964
0000234072;-0.6081;2.1859;2.3750;0.2718;-0.3673;-0.9980
0000234080;-0.7159;2.2505;3.2729;-0.5902;-0.5692;-1.0946
0000234092;0.0814;-0.0551;1.8890;-1.3197;-0.5983;-1.1119
0000234100;0.9266;-1.2426;1.3168;-1.4827;-0.3728;-0.9697
0000234112;1.8699;-2.7461;0.9984;-1.5058;0.1845;-0.5474
0000234120;2.4708;-2.7126;1.5969;-1.4991;0.6215;-0.1035
0000234128;4.2737;-3.1173;2.1787;-1.4958;0.9610;0.4387
0000234140;6.8690;-3.1747;2.0566;-1.1839;1.3215;1.0435
0000234148;8.3941;-3.3567;2.1021;-0.7186;1.4749;1.1642
0000234160;10.9367;-3.6200;2.7485;-0.0725;1.6253;0.9886
0000234168;11.9016;-3.9097;2.6528;0.1885;1.7091;0.7189
0000234179;12.8497;-4.3287;2.5235;0.1575;1.7854;0.2832
0000234187;13.0556;-3.6176;2.7150;-0.1960;1.7797;-0.0245
0000234199;11.9183;-2.5187;4.2377;-0.9537;1.7909;-0.6035
0000234207;10.8242;-1.6975;5.5115;-1.4586;1.8018;-0.9117
0000234215;9.5074;-0.6752;7.1682;-1.9093;1.7082;-1.1146
0000234278;8.0349;-6.9839;16.2183;0.3593;-0.0253;0.1841
0000234286;9.4332;-6.8594;13.5033;0.6815;-0.2450;0.1601
0000234298;11.9375;-5.8179;15.7203;0.5189;-0.3190;0.1463
0000234306;12.0476;-7.4077;16.3261;0.5029;-0.3537;0.1593
0000234318;11.7914;-8.7125;16.5966;0.7592;-0.5625;0.2282
0000234326;11.7603;-8.8059;14.7363;0.8941;-0.6301;0.2583
0000234338;11.4539;-8.4994;10.9343;0.8712;-0.5840;0.2785
0000234346;11.5185;-8.3222;9.5337;0.6809;-0.5375;0.2694
0000234354;11.1594;-8.2815;8.5186;0.5032;-0.4652;0.2134
0000234366;10.4842;-7.7740;8.6024;0.2813;-0.3941;0.0446
0000234374;9.8952;-7.5920;8.0996;0.1721;-0.3679;-0.0727
0000234386;9.1435;-7.4412;7.7620;0.1235;-0.2994;-0.1709
0000234394;7.9033;-8.0565;6.2560;0.1446;-0.2765;-0.1326
0000234405;6.8714;-8.1451;5.4636;0.2078;-0.1996;0.0117
0000234413;6.7133;-7.5633;5.8586;0.1907;-0.1412;0.0851
0000234425;6.8522;-6.9288;5.9496;0.0994;-0.1170;0.1431
0000234433;6.9384;-6.8115;6.1339;0.0060;-0.1552;0.1761
0000234441;6.6008;-6.9743;6.4452;-0.0753;-0.1889;0.2176
0000234452;6.8163;-7.1251;7.9033;-0.1450;-0.2558;0.3159
0000234460;7.1443;-7.5729;9.0884;-0.1488;-0.3232;0.4358
0000234472;8.0397;-8.1666;9.7276;-0.1296;-0.5045;0.5989
0000234480;9.0692;-8.3629;9.5074;-0.1098;-0.5989;0.6524
0000234543;13.1944;-6.9312;9.5888;-0.0232;-0.0353;0.1973
0000234551;12.2751;-6.7397;9.4499;0.0136;0.0718;0.1927
0000234563;11.2432;-6.3327;9.6319;0.0021;0.1652;0.2004
0000234571;10.7141;-6.1627;9.6534;-0.0414;0.1704;0.2037
0000234579;10.3070;-6.4117;9.7157;-0.0648;0.1379;0.1932
0000234591;10.2280;-6.5410;9.5720;-0.0502;0.0288;0.1916
0000234599;10.0173;-6.7133;9.4930;-0.0269;-0.0564;0.2020
0000234611;10.1873;-6.7397;9.1267;0.0175;-0.1883;0.1925
0000234619;10.2376;-6.8331;8.8945;0.0372;-0.2562;0.1679
0000234631;10.3549;-6.8738;8.6838;0.0344;-0.3170;0.1292
0000234639;10.6710;-6.8283;8.3079;0.0199;-0.3519;0.0963
0000234651;10.9200;-6.5338;8.1882;0.0105;-0.3523;0.0798
0000234659;11.1690;-6.4260;8.1666;0.0207;-0.3429;0.0893
0000234667;11.3557;-6.2896;8.1475;0.0397;-0.3256;0.1023
0000234678;11.5233;-6.1148;8.0445;0.0779;-0.3048;0.1255
0000234686;11.5305;-6.1603;7.9344;0.0834;-0.2695;0.1448
0000234698;11.6238;-6.1172;7.8673;0.0819;-0.2134;0.1787
0000234706;11.3605;-6.3375;7.9847;0.0682;-0.1749;0.1931
0000234718;11.3150;-6.2728;8.0206;0.0438;-0.1059;0.2118
0000234726;11.3509;-6.2776;8.1714;0.0281;-0.0667;0.2316
0000234738;11.2240;-6.5410;8.3821;0.0208;-0.0510;0.2342
0000234746;11.3246;-6.5960;8.3989;0.0321;-0.0589;0.2253
0000234754;11.1666;-6.8833;8.3725;0.0293;-0.0746;0.2061
0000234821;11.2240;-7.1156;8.6622;0.0015;-0.0181;0.0091
0000234829;11.1115;-7.0749;8.6072;-0.0089;-0.0376;-0.0237
0000234841;10.6614;-7.0342;8.3773;-0.0396;-0.0424;-0.0505
0000234849;10.7404;-7.0437;8.4587;-0.0576;-0.0334;-0.0586
0000234861;10.9583;-7.1395;8.4156;-0.0697;-0.0195;-0.0677
0000234869;11.0516;-7.1706;8.5138;-0.0640;-0.0141;-0.0842
0000234881;11.1570;-7.2065;8.5904;-0.0456;0.0055;-0.0974
0000234889;11.4084;-7.1754;8.5090;-0.0338;0.0169;-0.1041
0000234900;11.2743;-7.1467;8.5736;-0.0185;0.0144;-0.1291
0000234908;11.0468;-7.1371;8.6287;-0.0248;0.0270;-0.1423
0000234916;11.0612;-6.9695;8.5401;-0.0250;0.0192;-0.1568
0000234928;10.6279;-6.7253;8.5880;-0.0366;0.0168;-0.1636
0000234936;10.6494;-6.6200;8.6335;-0.0496;0.0148;-0.1649
0000234948;10.3334;-6.6200;8.6670;-0.0593;-0.0028;-0.1736
0000234956;10.3358;-6.5601;8.6048;-0.0654;-0.0097;-0.1699
0000234968;10.4363;-6.4787;8.7077;-0.0697;-0.0163;-0.1411
0000234976;10.6757;-6.3829;8.6957;-0.0610;-0.0205;-0.1200
0000234988;10.6781;-6.6918;8.5258;-0.0444;-0.0013;-0.0839
0000234996;10.9032;-6.7804;8.4515;-0.0254;0.0116;-0.0594
0000235008;10.8122;-6.8618;8.6359;-0.0027;0.0256;-0.0520
0000235016;10.8314;-7.0174;8.7724;0.0079;0.0324;-0.0546
0000235024;10.7955;-6.8953;8.7317;0.0226;0.0293;-0.0558
0000235091;10.5560;-6.7109;8.5186;0.0029;-0.0448;-0.0044
0000235099;10.6566;-6.6032;8.5952;-0.0136;-0.0380;0.0040
0000235111;10.7045;-6.6439;8.6550;-0.0153;-0.0408;-0.0031
0000235119;10.5417;-6.8043;8.6814;-0.0221;-0.0332;0.0096
0000235131;10.6326;-6.6726;8.7053;-0.0131;-0.0388;0.0197
0000235139;10.8242;-6.6415;8.6933;-0.0124;-0.0394;0.0266
0000235152;10.7931;-6.6726;8.6455;-0.0125;-0.0441;0.0257
0000235161;10.7212;-6.7205;8.5904;-0.0137;-0.0416;0.0306
0000235174;10.7236;-6.7971;8.5856;-0.0229;-0.0370;0.0240
0000235183;10.8529;-6.7588;8.5353;-0.0188;-0.0353;0.0184
0000235192;10.9726;-6.7062;8.6311;-0.0121;-0.0292;0.0201
0000235205;10.8745;-6.6774;8.5856;0.0055;-0.0366;0.0132
0000235214;11.0684;-6.6080;8.5712;0.0109;-0.0334;0.0228
0000235227;10.9607;-6.6942;8.5305;0.0056;-0.0346;0.0221
0000235236;11.1163;-6.6415;8.5497;0.0003;-0.0306;0.0224
0000235249;10.8146;-6.7277;8.5353;-0.0148;-0.0256;0.0111
0000235258;10.8673;-6.7157;8.6455;-0.0236;-0.0364;0.0080
0000235271;10.9295;-6.8019;8.5856;-0.0234;-0.0332;0.0040
0000235280;10.7643;-6.9216;8.5928;-0.0224;-0.0313;0.0036
0000235293;10.7093;-7.0006;8.4970;-0.0193;-0.0280;-0.0111
0000235302;11.0373;-6.7109;8.5353;-0.0141;-0.0308;-0.0197
0000235311;10.7643;-6.9408;8.5593;-0.0196;-0.0290;-0.0294
0000235379;10.9247;-6.5649;8.5904;-0.0083;-0.0081;-0.0384
0000235388;10.7380;-6.6295;8.6814;-0.0033;-0.0123;-0.0437
0000235401;10.8026;-6.5601;8.6048;-0.0116;-0.0160;-0.0390
0000235410;10.7188;-6.5984;8.6072;-0.0059;-0.0244;-0.0413
0000235423;10.6303;-6.8043;8.5976;-0.0107;-0.0212;-0.0316
0000235432;10.8026;-6.6966;8.5928;-0.0123;-0.0179;-0.0244
0000235445;10.7859;-6.7229;8.5234;-0.0129;-0.0072;-0.0232
0000235454;10.7548;-6.8139;8.6335;-0.0179;-0.0101;-0.0250
0000235467;10.5105;-6.7493;8.5880;-0.0151;-0.0234;-0.0346
0000235476;10.5919;-6.6870;8.7795;-0.0157;-0.0366;-0.0329
0000235489;10.7356;-6.5481;8.6119;-0.0173;-0.0372;-0.0244
0000235498;10.6805;-6.6679;8.6670;-0.0119;-0.0401;-0.0277
0000235507;10.6686;-6.7445;8.5712;-0.0261;-0.0285;-0.0145
0000235520;10.7978;-6.7516;8.5952;-0.0177;-0.0269;-0.0077
0000235529;10.6374;-6.8642;8.6359;-0.0064;-0.0304;-0.0209
0000235542;10.6159;-6.6679;8.5928;-0.0053;-0.0229;-0.0168
0000235551;10.6303;-6.8307;8.5353;-0.0112;-0.0249;-0.0222
0000235567;10.5680;-6.8019;8.5952;-0.0147;-0.0151;-0.0151
0000235576;10.6805;-6.7780;8.5952;-0.0145;-0.0125;-0.0133
0000235645;10.9176;-6.7373;8.5904;0.0017;-0.0188;-0.0242
0000235654;10.7739;-6.6343;8.5976;-0.0024;-0.0217;-0.0241
0000235666;10.5872;-6.6990;8.6670;-0.0101;-0.0273;-0.0225
0000235675;10.6973;-6.5984;8.6072;-0.0152;-0.0309;-0.0220
0000235684;10.4770;-6.7445;8.6143;-0.0144;-0.0445;-0.0282
0000235697;10.7476;-6.4739;8.6574;-0.0268;-0.0490;-0.0180
0000235706;10.8888;-6.6463;8.6287;-0.0268;-0.0473;-0.0108
0000235718;10.8457;-6.7229;8.5497;-0.0225;-0.0337;-0.0056
0000235727;10.6398;-6.9791;8.5521;-0.0195;-0.0386;-0.0105
0000235740;10.7955;-6.8211;8.6694;-0.0132;-0.0366;-0.0155
0000235749;10.6973;-6.8546;8.5928;-0.0165;-0.0298;-0.0157
0000235761;10.6398;-6.8139;8.6574;-0.0152;-0.0325;-0.0197
0000235770;10.5034;-6.8091;8.6646;-0.0108;-0.0336;-0.0264
0000235783;10.6183;-6.7397;8.7005;-0.0151;-0.0269;-0.0144
0000235792;10.7260;-6.6679;8.6407;-0.0183;-0.0317;-0.0077
0000235804;10.8074;-6.7732;8.5952;-0.0200;-0.0286;-0.0008
0000235813;10.8026;-6.7612;8.6455;-0.0208;-0.0232;-0.0025
0000235822;10.6135;-6.8211;8.6550;-0.0209;-0.0294;-0.0083
0000235835;10.8457;-6.6631;8.6407;-0.0189;-0.0380;-0.0145
0000235844;10.8218;-6.5481;8.7556;-0.0159;-0.0438;-0.0159
0000235856;10.7524;-6.7014;8.5808;-0.0155;-0.0380;-0.0095
0000235865;10.8840;-6.5864;8.5784;-0.0071;-0.0446;-0.0129
0000235933;10.7452;-6.7660;8.6095;-0.0184;-0.0196;-0.0183
0000235942;10.8170;-6.6990;8.6670;-0.0230;-0.0189;-0.0129
0000235954;10.7955;-6.8402;8.7915;-0.0292;-0.0244;-0.0196
0000235963;10.7428;-6.7157;8.7460;-0.0285;-0.0441;-0.0318
0000235976;10.5034;-6.7971;9.0309;-0.0484;-0.0751;-0.0368
0000235985;10.4627;-6.7277;8.9974;-0.0486;-0.1002;-0.0368
0000235997;10.4435;-6.6343;8.8801;-0.0522;-0.1231;-0.0522
0000236006;10.2352;-6.7756;8.8107;-0.0548;-0.1267;-0.0446
0000236015;10.4818;-6.4955;8.6622;-0.0468;-0.1406;-0.0440
0000236028;10.4938;-6.6295;8.4970;-0.0396;-0.1455;-0.0237
0000236037;10.4842;-6.7493;8.4108;-0.0417;-0.1291;-0.0080
0000236049;10.7404;-6.6056;8.2552;-0.0450;-0.1179;0.0016
0000236058;10.5800;-6.5912;8.4396;-0.0528;-0.1083;0.0093
0000236071;10.6662;-6.5529;8.5186;-0.0509;-0.1070;0.0185
0000236080;10.6925;-6.5481;8.6143;-0.0548;-0.0958;0.0385
0000236092;10.7380;-6.3877;8.6574;-0.0572;-0.0937;0.0617
0000236101;10.7715;-6.4691;8.5521;-0.0549;-0.0930;0.0802
0000236114;11.1282;-6.4021;8.5353;-0.0694;-0.0905;0.1055
0000236123;10.7500;-6.4380;8.5401;-0.0675;-0.0875;0.1231
0000236132;10.8481;-6.5170;8.6383;-0.0613;-0.0886;0.1395
0000236144;10.6949;-6.8785;8.4467;-0.0397;-0.0878;0.1426
0000236153;10.9630;-6.9432;8.3965;-0.0309;-0.0714;0.1552
0000236221;11.0636;-7.0701;8.6838;0.0108;-0.0557;0.0581
0000236230;10.9511;-7.0198;8.5952;0.0024;-0.0524;0.0506
0000236242;11.1594;-6.9552;8.6862;-0.0119;-0.0449;0.0486
0000236251;11.0205;-7.2018;8.5617;-0.0125;-0.0465;0.0430
0000236264;11.1929;-7.1635;8.5401;-0.0116;-0.0494;0.0218
0000236273;11.0397;-7.0390;8.5329;-0.0144;-0.0516;-0.0035
0000236285;10.9080;-7.1635;8.5784;-0.0091;-0.0480;-0.0234
0000236294;11.1259;-6.8426;8.6407;-0.0004;-0.0596;-0.0474
0000236303;11.0636;-6.8833;8.5521;0.0011;-0.0526;-0.0472
0000236316;11.2839;-6.7588;8.4276;0.0017;-0.0540;-0.0494
0000236325;11.0708;-7.0485;8.5401;0.0041;-0.0514;-0.0570
0000236337;10.9391;-7.0126;8.4204;-0.0001;-0.0494;-0.0593
0000236346;11.1498;-6.7445;8.3941;-0.0052;-0.0441;-0.0598
0000236359;10.9798;-6.8259;8.5593;-0.0029;-0.0353;-0.0649
0000236368;11.0325;-6.6870;8.4420;-0.0015;-0.0268;-0.0625
0000236380;10.9894;-6.8833;8.4731;0.0053;-0.0273;-0.0605
0000236389;11.0277;-6.7995;8.4946;0.0061;-0.0269;-0.0602
0000236402;10.7859;-6.8857;8.4348;-0.0025;-0.0221;-0.0622
0000236411;10.8721;-6.7181;8.4803;-0.0012;-0.0273;-0.0703
0000236423;10.8098;-6.8139;8.6790;-0.0137;-0.0197;-0.0703
0000236432;10.8050;-6.6224;8.6239;-0.0139;-0.0369;-0.0734
0000236441;10.9032;-6.6343;8.7101;-0.0177;-0.0440;-0.0601
0000236510;10.7835;-6.8618;8.5258;-0.0039;-0.0397;-0.0238
0000236519;10.7308;-6.8019;8.6574;-0.0036;-0.0338;-0.0149
0000236531;10.7548;-6.6774;8.6167;-0.0020;-0.0354;-0.0028
0000236540;10.8146;-6.8163;8.6311;-0.0008;-0.0462;-0.0032
0000236553;10.8026;-6.7900;8.5114;-0.0080;-0.0476;0.0041
0000236562;10.7835;-6.7062;8.5377;-0.0148;-0.0492;0.0028
0000236574;10.9774;-6.6559;8.5736;-0.0149;-0.0446;0.0072
0000236583;10.9104;-6.6200;8.6431;-0.0157;-0.0461;0.0053
0000236596;10.8026;-6.8785;8.5042;-0.0151;-0.0410;0.0100
0000236605;11.0085;-6.7612;8.5593;-0.0073;-0.0477;0.0101
0000236614;10.9415;-6.8019;8.5042;-0.0143;-0.0462;0.0105
0000236626;11.0708;-6.7277;8.4443;-0.0188;-0.0497;0.0039
0000236635;10.8529;-6.9336;8.4827;-0.0265;-0.0445;0.0039
0000236648;10.9511;-6.8211;8.6263;-0.0298;-0.0460;0.0040
0000236657;11.0014;-6.9073;8.5593;-0.0268;-0.0434;0.0019
0000236669;11.0133;-6.7373;8.6431;-0.0220;-0.0512;-0.0023
0000236678;10.8840;-6.8738;8.5449;-0.0230;-0.0425;0.0004
0000236691;10.9822;-6.8738;8.4372;-0.0209;-0.0368;0.0005
0000236700;10.9630;-6.8785;8.5114;-0.0211;-0.0408;-0.0035
0000236712;11.0277;-6.8642;8.4324;-0.0241;-0.0262;-0.0085
0000236721;11.0947;-6.8139;8.4611;-0.0165;-0.0262;-0.0179
0000236730;10.9798;-7.0294;8.5665;-0.0053;-0.0248;-0.0175
0000236799;10.7595;-6.8953;8.5760;-0.0225;-0.0260;-0.0245
0000236808;10.8697;-6.8187;8.6215;-0.0238;-0.0306;-0.0266
0000236820;11.0253;-6.8474;8.5138;-0.0165;-0.0356;-0.0261
0000236829;10.7811;-6.8714;8.5162;-0.0107;-0.0380;-0.0274
0000236842;10.9176;-6.9480;8.4898;-0.0076;-0.0362;-0.0258
0000236851;10.9487;-6.8378;8.5042;-0.0048;-0.0354;-0.0302
0000236863;10.7236;-6.8498;8.4922;0.0017;-0.0285;-0.0262
0000236872;11.0085;-6.5793;8.4898;-0.0011;-0.0254;-0.0148
0000236885;11.0229;-6.5529;8.4851;0.0000;-0.0293;-0.0121
0000236894;10.9870;-6.7062;8.4324;-0.0063;-0.0317;-0.0047
0000236906;10.7715;-6.9336;8.5210;-0.0195;-0.0277;-0.0016
0000236915;10.7356;-6.8211;8.5832;-0.0222;-0.0330;-0.0056
0000236922;10.6686;-6.7804;8.5904;-0.0313;-0.0276;-0.0064
0000236934;10.9223;-6.8833;8.5760;-0.0289;-0.0298;-0.0009
0000236942;10.7212;-6.9288;8.5329;-0.0184;-0.0296;-0.0041
0000236953;10.8673;-6.9456;8.4707;-0.0049;-0.0325;-0.0049
0000236961;11.0014;-6.8546;8.5186;-0.0101;-0.0204;0.0027
0000236973;10.9271;-6.7971;8.4779;-0.0088;-0.0288;-0.0049
0000236981;10.9798;-6.8115;8.4707;-0.0165;-0.0322;-0.0123
0000236993;10.9726;-6.7038;8.5066;-0.0236;-0.0326;-0.0193
0000237001;10.8338;-6.8378;8.4252;-0.0244;-0.0384;-0.0213
