time;acc_x;acc_y;acc_z;gyro_x;gyro_y;gyro_z
0000013542;6.3614;-16.4960;1.7238;-0.0088;0.1055;0.2205
0000013550;6.2560;-16.4530;1.8435;0.0133;0.1182;0.1984
0000013557;6.1794;-16.4649;1.7645;0.0494;0.1255;0.1789
0000013565;6.3015;-16.4218;1.8316;0.0787;0.1296;0.1561
0000013574;6.2393;-16.1992;1.7765;0.1007;0.1435;0.1258
0000013582;6.1172;-16.2327;1.7119;0.1300;0.1320;0.0998
0000013590;6.2058;-15.9765;1.6999;0.1430;0.1371;0.0737
0000013602;6.0118;-15.7538;1.7238;0.1510;0.1247;0.0269
0000013610;5.8035;-15.7155;1.7885;0.1451;0.1112;-0.0067
0000013621;5.9831;-15.3827;1.6520;0.1388;0.1007;-0.0341
0000013629;5.7557;-15.5551;1.6113;0.1400;0.0785;-0.0518
0000013641;5.5833;-15.6006;1.5227;0.1488;0.0612;-0.0633
0000013649;5.6743;-15.5168;1.4078;0.1484;0.0537;-0.0544
0000013660;5.5952;-15.6724;1.3479;0.1443;0.0368;-0.0302
0000013668;5.7844;-15.6533;1.3168;0.1335;0.0333;0.0051
0000013676;5.7413;-15.7227;1.1708;0.1112;0.0428;0.0454
0000013688;5.9065;-15.5958;0.9768;0.0709;0.0602;0.1198
0000013696;5.7006;-15.6772;0.8882;0.0404;0.0682;0.1597
0000013763;3.8379;-17.0012;0.6057;-0.0596;0.0168;0.1330
0000013771;4.0390;-17.1688;0.6632;-0.0370;-0.0100;0.1096
0000013783;4.1803;-17.3005;0.7063;0.0013;-0.0493;0.0994
0000013791;4.1587;-17.1425;0.9744;0.0270;-0.0847;0.0985
0000013802;4.1156;-16.7905;0.8930;0.0320;-0.1288;0.1154
0000013810;3.9624;-16.5152;0.8356;0.0312;-0.1828;0.1148
0000013818;3.9792;-16.1465;0.9074;0.0081;-0.2317;0.1220
0000013830;3.8738;-15.9095;0.7063;-0.0418;-0.3176;0.1210
0000013838;4.0175;-15.7969;0.7566;-0.0687;-0.3829;0.1063
0000013849;4.3814;-15.7419;0.7278;-0.0983;-0.4866;0.0794
0000013857;4.5490;-15.7323;0.6536;-0.1104;-0.5404;0.0702
0000013869;4.8459;-15.9119;0.5722;-0.1075;-0.6030;0.0602
0000013877;5.0135;-15.9095;0.5507;-0.1005;-0.6290;0.0456
0000013888;5.1020;-15.8400;0.5914;-0.0745;-0.6583;0.0316
0000013896;5.2122;-15.7922;0.6871;-0.0758;-0.6504;0.0254
0000013908;5.5641;-15.7251;0.7949;-0.0663;-0.6386;-0.0016
0000013916;5.7820;-15.8472;0.8787;-0.0454;-0.6275;-0.0153
0000013924;6.2058;-15.7922;1.0822;-0.0230;-0.5957;-0.0159
0000013935;6.6463;-16.0412;1.4724;0.0123;-0.5427;-0.0141
0000013943;6.9216;-16.0866;1.7502;0.0249;-0.4804;0.0087
0000013955;7.2688;-16.5679;1.8747;0.0272;-0.3868;0.0313
0000013963;7.5393;-16.6517;2.0470;0.0192;-0.3144;0.0400
0000014026;5.4755;-16.0076;1.9297;-0.0181;0.0771;0.0666
0000014034;5.1475;-15.9334;1.9034;-0.0119;0.0729;0.0616
0000014046;4.6591;-15.6389;1.8364;-0.0011;0.0476;0.0389
0000014054;4.6448;-15.5408;1.5850;0.0097;0.0192;0.0149
0000014062;4.8291;-15.1529;1.4868;0.0317;-0.0115;-0.0065
0000014073;4.9608;-15.1002;1.4222;0.0332;-0.0604;-0.0441
0000014081;4.9464;-15.1625;1.4605;0.0301;-0.0883;-0.0674
0000014093;5.2553;-15.2175;1.5897;0.0201;-0.1234;-0.0826
0000014101;5.3175;-15.2032;1.6257;0.0183;-0.1474;-0.0874
0000014112;5.7150;-15.1361;1.6496;0.0143;-0.1528;-0.0827
0000014120;5.9017;-15.2702;1.4916;0.0195;-0.1665;-0.0978
0000014132;6.0813;-15.5791;1.5538;0.0120;-0.1743;-0.1011
0000014140;6.2824;-15.5671;1.5706;0.0105;-0.1739;-0.0905
0000014151;6.2896;-15.7299;1.5802;0.0057;-0.1808;-0.0882
0000014159;6.3686;-15.8305;1.4772;-0.0011;-0.1721;-0.0718
0000014167;6.4620;-15.9909;1.6448;-0.0068;-0.1692;-0.0640
0000014179;6.4165;-15.9454;1.6879;-0.0055;-0.1591;-0.0404
0000014187;6.2465;-16.0196;1.7119;-0.0028;-0.1531;-0.0242
0000014198;6.1339;-15.9909;1.6424;-0.0020;-0.1451;-0.0075
0000014206;6.0047;-15.9621;1.7023;-0.0059;-0.1444;0.0065
0000014218;5.9113;-15.9645;1.5347;-0.0111;-0.1446;0.0108
0000014226;5.8012;-15.9238;1.5993;-0.0125;-0.1541;0.0093
0000014289;5.9424;-16.0699;1.8747;-0.0049;-0.2053;-0.0409
0000014297;6.1723;-16.1776;1.7813;-0.0003;-0.1980;-0.0353
0000014309;6.1244;-16.1273;1.8771;0.0104;-0.1865;-0.0390
0000014317;5.9783;-16.2782;1.8962;0.0270;-0.1848;-0.0518
0000014328;6.2225;-16.0531;1.7669;0.0456;-0.1616;-0.0545
0000014336;6.0932;-16.0627;1.8507;0.0613;-0.1519;-0.0570
0000014344;6.2465;-15.8352;1.7861;0.0685;-0.1340;-0.0705
0000014356;6.1699;-15.6748;1.6903;0.0650;-0.1175;-0.0867
0000014364;6.0980;-15.7371;1.6616;0.0590;-0.0987;-0.0929
0000014375;6.3135;-15.6964;1.6927;0.0505;-0.0675;-0.0993
0000014383;6.2106;-15.8281;1.6999;0.0425;-0.0545;-0.0951
0000014395;6.3351;-15.8400;1.6640;0.0414;-0.0215;-0.0863
0000014403;6.2728;-15.8688;1.7047;0.0373;-0.0043;-0.0769
0000014414;6.0262;-15.9071;1.8220;0.0334;0.0107;-0.0617
0000014422;6.0908;-15.7802;1.7142;0.0269;0.0143;-0.0641
0000014430;5.9616;-15.7754;1.8387;0.0284;0.0125;-0.0633
0000014442;5.8634;-16.0435;1.8962;0.0305;0.0201;-0.0514
0000014450;5.7700;-15.9981;1.8411;0.0325;0.0099;-0.0420
0000014461;5.9185;-15.8807;1.9082;0.0276;0.0045;-0.0281
0000014469;5.9017;-15.7179;1.8411;0.0241;-0.0015;-0.0256
0000014481;5.7389;-15.8688;1.8004;0.0092;-0.0152;-0.0197
0000014489;5.8347;-15.9310;1.7669;0.0036;-0.0246;-0.0113
0000014552;5.9400;-15.8520;1.7119;-0.0254;-0.1074;-0.0072
0000014560;5.9759;-15.8736;1.7430;-0.0203;-0.1114;-0.0020
0000014572;5.9975;-15.9334;1.7310;-0.0201;-0.1159;0.0035
0000014580;6.1746;-15.8855;1.6975;-0.0258;-0.1144;0.0093
0000014588;6.0525;-15.8951;1.8292;-0.0209;-0.1156;0.0063
0000014599;6.2465;-15.7275;1.6185;-0.0184;-0.1166;0.0045
0000014607;6.2944;-15.7898;1.6903;-0.0224;-0.1158;0.0081
0000014619;6.3039;-15.8448;1.7047;-0.0164;-0.1111;0.0031
0000014627;6.1579;-15.9909;1.6903;-0.0096;-0.1091;-0.0044
0000014638;6.2560;-15.8616;1.7478;-0.0057;-0.1049;-0.0173
0000014646;6.3087;-15.8233;1.7430;-0.0116;-0.1045;-0.0189
0000014658;6.2752;-15.9741;1.8100;-0.0107;-0.1042;-0.0296
0000014666;6.2417;-15.9334;1.7190;-0.0107;-0.1079;-0.0366
0000014677;6.2201;-16.0483;1.8148;-0.0107;-0.1062;-0.0325
0000014685;6.2632;-16.0076;1.7573;-0.0047;-0.1015;-0.0330
0000014693;6.1723;-15.9693;1.8052;-0.0024;-0.1051;-0.0329
0000014705;6.3327;-15.9550;1.7478;-0.0015;-0.0997;-0.0289
0000014713;6.1723;-16.0412;1.8842;0.0097;-0.0966;-0.0325
0000014724;6.2058;-16.0196;1.8794;0.0096;-0.0946;-0.0328
0000014732;6.2632;-16.0052;1.8890;0.0155;-0.0990;-0.0378
0000014744;6.1794;-15.9502;1.7885;0.0161;-0.0933;-0.0318
0000014752;6.1387;-15.9502;1.8340;0.0189;-0.0919;-0.0345
0000014815;6.0717;-16.0196;1.8340;0.0262;-0.0745;-0.0309
0000014823;6.2632;-15.8712;1.7837;0.0298;-0.0793;-0.0390
0000014835;6.0047;-15.9143;1.8196;0.0233;-0.0766;-0.0433
0000014843;6.4069;-15.6389;1.7885;0.0157;-0.0738;-0.0382
0000014851;6.2273;-15.6868;1.8507;0.0149;-0.0691;-0.0390
0000014862;6.2369;-15.7323;1.8387;0.0143;-0.0650;-0.0356
0000014870;6.3087;-15.6389;1.7214;0.0155;-0.0719;-0.0405
0000014882;6.1076;-15.7562;1.8028;0.0145;-0.0655;-0.0354
0000014890;6.3087;-15.7275;1.8340;0.0121;-0.0670;-0.0342
0000014902;6.2824;-15.8688;1.8771;0.0065;-0.0594;-0.0213
0000014910;6.1459;-16.0124;1.8196;0.0108;-0.0648;-0.0266
0000014921;6.2010;-15.9454;1.7957;0.0075;-0.0622;-0.0264
0000014929;6.1555;-16.0076;1.7789;0.0147;-0.0585;-0.0264
0000014941;6.2776;-16.0076;1.7909;0.0088;-0.0516;-0.0216
0000014949;6.1794;-16.0292;1.7526;0.0101;-0.0540;-0.0284
0000014957;6.1507;-16.0292;1.7789;0.0148;-0.0525;-0.0278
0000014968;6.1675;-15.9214;1.7909;0.0103;-0.0460;-0.0264
0000014976;6.1411;-15.8831;1.8364;0.0165;-0.0509;-0.0314
0000014988;6.1890;-15.8760;1.8052;0.0111;-0.0506;-0.0301
0000014996;6.1148;-15.9597;1.9465;0.0121;-0.0556;-0.0317
0000015008;6.2345;-15.9693;1.8124;0.0109;-0.0573;-0.0254
0000015016;6.1531;-15.9550;1.8771;0.0148;-0.0593;-0.0218
0000015080;6.3566;-15.8137;1.8699;0.0085;-0.0437;-0.0237
0000015088;6.0885;-16.0005;1.8842;0.0120;-0.0370;-0.0192
0000015099;6.2106;-15.8376;1.8699;0.0152;-0.0406;-0.0257
0000015107;6.1603;-16.1321;1.9393;0.0140;-0.0341;-0.0211
0000015115;6.1938;-15.9741;1.8938;0.0145;-0.0381;-0.0209
0000015127;6.3207;-15.9693;1.8914;0.0159;-0.0336;-0.0131
0000015135;6.2345;-16.1297;1.9393;0.0208;-0.0324;-0.0163
0000015146;6.3590;-15.9310;1.9585;0.0211;-0.0385;-0.0137
0000015154;6.0430;-16.1345;1.8938;0.0160;-0.0288;-0.0060
0000015166;6.2249;-15.8185;1.9273;0.0168;-0.0256;-0.0081
0000015174;6.3111;-15.8065;1.8603;0.0254;-0.0336;-0.0181
0000015185;6.1986;-15.8137;2.0518;0.0253;-0.0324;-0.0233
0000015193;6.0717;-16.0340;1.9010;0.0353;-0.0289;-0.0265
0000015205;6.1723;-15.8400;1.9273;0.0345;-0.0345;-0.0349
0000015213;6.1196;-16.0196;1.9393;0.0321;-0.0234;-0.0288
0000015221;6.3231;-15.8616;2.0207;0.0288;-0.0137;-0.0321
0000015232;6.1842;-15.8616;1.8699;0.0229;-0.0253;-0.0324
0000015240;6.2632;-15.7084;1.8890;0.0147;-0.0197;-0.0282
0000015252;6.2393;-15.6892;1.8316;0.0153;-0.0285;-0.0349
0000015260;6.3015;-15.7898;1.8890;0.0081;-0.0309;-0.0285
0000015272;6.1818;-15.8376;1.8866;0.0061;-0.0306;-0.0236
0000015280;6.1339;-15.5839;1.9249;0.0065;-0.0380;-0.0197
0000015344;6.1579;-15.8760;1.8962;-0.0097;-0.0472;-0.0084
0000015352;6.3470;-15.9430;1.9393;-0.0111;-0.0513;-0.0156
0000015363;6.1914;-15.9190;1.9513;-0.0117;-0.0480;-0.0107
0000015371;6.3638;-15.8568;1.9944;-0.0095;-0.0546;-0.0093
0000015379;6.2345;-15.9358;1.8124;-0.0159;-0.0453;-0.0044
0000015391;6.2513;-15.9981;1.8196;-0.0111;-0.0525;-0.0004
0000015399;6.2010;-15.9167;1.9201;-0.0103;-0.0582;-0.0029
0000015410;6.3686;-15.9981;1.9489;-0.0077;-0.0517;0.0000
0000015418;6.2177;-15.9550;2.0087;-0.0032;-0.0569;-0.0028
0000015430;6.4667;-15.7060;1.8866;-0.0080;-0.0488;-0.0073
0000015438;6.1866;-15.9143;1.9561;-0.0043;-0.0569;-0.0047
0000015449;6.2608;-15.7323;1.8986;-0.0091;-0.0593;-0.0069
0000015457;6.3877;-15.5503;1.8794;-0.0151;-0.0525;-0.0019
0000015469;6.2345;-15.7491;1.9417;-0.0144;-0.0494;-0.0057
0000015477;6.1531;-15.9286;1.9776;-0.0164;-0.0482;-0.0032
0000015488;6.0286;-15.9262;1.9728;-0.0164;-0.0508;-0.0041
0000015496;6.2848;-15.8951;1.8962;-0.0172;-0.0560;-0.0087
0000015504;6.2608;-15.8041;1.9680;-0.0127;-0.0602;-0.0156
0000015516;6.2489;-15.8712;1.8938;-0.0109;-0.0546;-0.0092
0000015524;6.2752;-15.8472;1.8842;-0.0156;-0.0552;-0.0056
0000015536;6.2177;-15.8496;1.8651;-0.0112;-0.0564;-0.0108
0000015544;6.3063;-15.8640;2.0016;-0.0124;-0.0482;-0.0033
0000015608;6.1196;-15.9502;1.8220;-0.0105;-0.0465;-0.0019
0000015616;6.2704;-15.9478;1.8435;-0.0211;-0.0458;-0.0031
0000015627;6.2584;-15.8783;1.9249;-0.0123;-0.0437;-0.0007
0000015635;6.2058;-15.9957;1.9082;-0.0088;-0.0430;0.0003
0000015647;6.0549;-15.9119;1.9944;-0.0061;-0.0464;-0.0059
0000015655;6.2177;-15.8616;1.9752;-0.0025;-0.0516;-0.0069
0000015663;6.2082;-15.7682;2.0806;-0.0049;-0.0488;-0.0008
0000015674;6.1363;-15.8352;2.0111;-0.0051;-0.0570;-0.0017
0000015682;6.1651;-15.8257;1.8962;-0.0097;-0.0488;0.0049
0000015694;6.2513;-15.8975;1.9513;-0.0051;-0.0446;0.0016
0000015702;6.1268;-15.9813;1.9561;-0.0061;-0.0385;0.0057
0000015713;6.2297;-15.9167;1.8196;-0.0133;-0.0321;0.0099
0000015721;6.1627;-15.9023;1.8220;-0.0155;-0.0329;0.0060
0000015733;6.1100;-15.9526;1.9130;-0.0160;-0.0294;0.0043
0000015741;6.1531;-15.9574;2.0039;-0.0092;-0.0365;-0.0059
0000015752;6.3015;-15.9813;1.9178;-0.0163;-0.0321;-0.0005
0000015760;6.0861;-16.1465;1.9489;-0.0053;-0.0358;-0.0089
0000015772;6.0956;-16.0483;1.9992;-0.0043;-0.0280;0.0028
0000015780;6.2249;-15.9502;1.9369;0.0031;-0.0304;-0.0032
0000015788;6.0190;-15.8951;1.8483;0.0073;-0.0356;-0.0092
0000015800;6.1076;-15.8400;1.9465;0.0119;-0.0254;-0.0101
0000015808;6.2848;-15.7371;1.8387;0.0124;-0.0184;-0.0073
0000015872;6.2201;-15.9837;1.9225;-0.0055;-0.0081;-0.0039
0000015880;6.1531;-15.9119;1.9776;-0.0004;-0.0088;-0.0019
0000015891;6.1387;-15.8496;1.9345;0.0071;-0.0143;-0.0055
0000015899;5.9304;-15.9693;1.9106;0.0020;-0.0079;-0.0005
0000015911;5.9927;-16.0196;1.9345;0.0060;-0.0075;-0.0017
0000015919;6.0358;-15.9382;1.8771;0.0104;-0.0165;-0.0048
0000015930;6.0190;-15.9693;1.8890;0.0093;-0.0169;-0.0107
0000015938;6.1770;-15.9334;1.8842;0.0087;-0.0200;-0.0016
0000015946;6.1387;-15.7491;1.8771;0.0081;-0.0252;-0.0036
0000015958;6.1339;-15.8736;1.9082;0.0100;-0.0269;-0.0005
0000015966;5.9352;-15.9550;1.8603;0.0121;-0.0386;-0.0044
0000015977;6.1435;-15.8185;1.8364;0.0075;-0.0392;-0.0004
0000015985;6.0023;-16.0268;1.9537;0.0180;-0.0424;0.0057
0000015997;5.9209;-16.0483;1.8387;0.0140;-0.0452;0.0123
0000016005;6.1818;-16.0507;1.9417;0.0197;-0.0478;0.0027
0000016016;6.0310;-16.1034;1.9225;0.0222;-0.0474;0.0000
0000016024;6.0861;-16.1226;1.8866;0.0310;-0.0542;-0.0061
0000016032;6.2393;-16.0555;1.9848;0.0348;-0.0506;-0.0075
0000016044;6.2896;-15.8616;1.9106;0.0356;-0.0490;-0.0105
0000016052;6.3351;-16.0268;1.9369;0.0310;-0.0394;-0.0017
0000016064;6.0908;-16.0747;1.9106;0.0276;-0.0405;-0.0009
0000016072;6.2345;-15.7826;1.9249;0.0258;-0.0422;-0.0041
0000016140;5.8682;-16.0244;1.8723;0.0414;-0.0556;-0.0097
0000016148;6.2249;-15.7299;1.9465;0.0426;-0.0568;-0.0145
0000016159;6.1866;-16.0172;1.9728;0.0441;-0.0630;-0.0137
0000016167;6.0813;-16.0292;2.0279;0.0432;-0.0633;-0.0179
0000016179;6.1435;-15.9119;1.9609;0.0533;-0.0629;-0.0092
0000016187;6.1603;-15.9717;2.0782;0.0500;-0.0678;-0.0135
0000016195;6.1507;-15.8783;1.9920;0.0494;-0.0741;-0.0120
0000016206;6.2393;-15.7203;1.9201;0.0405;-0.0725;-0.0093
0000016214;6.1220;-15.7443;2.0159;0.0369;-0.0652;-0.0064
0000016226;6.1220;-15.7203;2.0063;0.0253;-0.0592;-0.0013
0000016234;6.1890;-15.6796;1.9465;0.0348;-0.0695;-0.0065
0000016246;6.0238;-15.8688;2.1165;0.0298;-0.0657;-0.0079
0000016254;6.0478;-15.7395;2.1069;0.0308;-0.0722;-0.0159
0000016265;6.1387;-15.7778;2.0877;0.0296;-0.0710;-0.0147
0000016273;6.0765;-15.7850;2.0494;0.0316;-0.0783;-0.0242
0000016285;5.9999;-15.6533;1.8914;0.0342;-0.0910;-0.0149
0000016293;5.9209;-15.5456;2.0063;0.0410;-0.0947;-0.0149
0000016301;5.9544;-15.5958;1.9800;0.0321;-0.0897;-0.0012
0000016312;5.9185;-15.5408;1.9992;0.0306;-0.0914;0.0144
0000016320;6.1483;-15.4857;1.8172;0.0370;-0.1070;0.0148
0000016332;5.8730;-15.8089;1.8866;0.0326;-0.1162;0.0201
0000016340;5.7820;-16.0220;1.9417;0.0404;-0.1195;0.0216
0000016407;5.7485;-15.0260;2.1691;0.4919;-0.3539;0.1033
0000016415;5.6934;-14.3772;1.8890;0.4750;-0.3946;0.1601
0000016427;5.4013;-13.7260;1.7142;0.3881;-0.4656;0.2028
0000016435;5.0159;-13.6206;1.3336;0.3034;-0.5096;0.2158
0000016443;5.1499;-13.5272;1.1013;0.2161;-0.5485;0.2102
0000016454;5.2481;-14.1425;1.2115;0.0919;-0.5716;0.2000
0000016462;5.6407;-14.5184;1.3958;0.0268;-0.5961;0.1788
0000016474;6.0932;-15.5120;1.6233;-0.0517;-0.6225;0.1673
0000016482;6.3782;-16.0795;1.6592;-0.0849;-0.6402;0.1607
0000016493;6.5936;-16.9342;1.4174;-0.1143;-0.6654;0.1436
0000016501;6.6343;-17.4394;1.5155;-0.1218;-0.6751;0.1287
0000016513;6.2369;-17.8584;1.4988;-0.1034;-0.6988;0.1144
0000016521;6.1148;-17.7410;1.5299;-0.0582;-0.7163;0.1010
0000016532;5.9496;-17.4298;1.5802;0.0250;-0.7437;0.0981
0000016540;5.6982;-17.0371;1.4174;0.0771;-0.7552;0.0981
0000016548;5.7652;-16.4338;1.5562;0.1055;-0.7560;0.1014
0000016560;6.0956;-15.9717;1.4964;0.1404;-0.7666;0.0873
0000016568;6.2201;-15.7419;1.5682;0.1471;-0.7777;0.0787
0000016579;6.5888;-15.6988;1.5467;0.1391;-0.7600;0.0781
0000016587;6.9552;-15.5575;1.5778;0.1306;-0.7378;0.0895
0000016599;6.9767;-15.6509;1.4293;0.1176;-0.7031;0.0966
0000016607;7.0342;-15.7419;1.5347;0.1092;-0.6803;0.0990
0000016674;6.2513;-15.7562;1.4509;0.2272;-0.5682;0.0442
0000016682;6.4141;-15.6222;1.2881;0.2262;-0.5626;0.0317
0000016690;6.4284;-15.5671;1.3264;0.2260;-0.5413;0.0250
0000016702;6.4021;-15.5551;1.3048;0.2202;-0.5031;0.0258
0000016710;6.3949;-15.7730;1.5251;0.2286;-0.4991;0.0151
0000016721;6.3925;-15.9238;1.4533;0.2332;-0.4787;0.0044
0000016729;6.3470;-15.9813;1.5730;0.2491;-0.4818;-0.0015
0000016741;6.0621;-16.2016;1.4916;0.2685;-0.4814;-0.0116
0000016749;6.1148;-16.2518;1.5060;0.2968;-0.4980;-0.0225
0000016760;6.0310;-16.2471;1.6065;0.3296;-0.4971;-0.0171
0000016768;6.0358;-16.1441;1.5993;0.3533;-0.5079;-0.0264
0000016776;5.9424;-16.1130;1.7717;0.3705;-0.5159;-0.0261
0000016788;5.7988;-15.8161;1.8627;0.3765;-0.5275;-0.0208
0000016796;5.8347;-15.6581;1.8483;0.3714;-0.5361;-0.0188
0000016807;5.8083;-15.4091;1.9465;0.3579;-0.5596;-0.0196
0000016815;5.9209;-15.3756;1.7837;0.3553;-0.5834;-0.0242
0000016827;5.6719;-15.4977;1.6616;0.3419;-0.5917;-0.0103
0000016835;6.0885;-15.3444;1.7669;0.3489;-0.6102;-0.0171
0000016846;6.1459;-15.5049;1.7741;0.3663;-0.6285;-0.0224
0000016854;6.2273;-15.5551;1.8890;0.3806;-0.6347;-0.0220
0000016866;6.1411;-15.7945;2.2410;0.4060;-0.6562;-0.0266
0000016874;6.2345;-15.7754;2.2817;0.4338;-0.6712;-0.0304
0000016882;6.0430;-15.7371;2.3631;0.4455;-0.6860;-0.0269
0000016949;6.3566;-15.2080;2.2817;0.4715;-0.8383;-0.0274
0000016957;6.4404;-15.3995;2.3296;0.4982;-0.8318;-0.0234
0000016969;6.3710;-15.6964;2.5570;0.5716;-0.8464;-0.0306
0000016977;6.3494;-15.4977;2.5786;0.6395;-0.8609;-0.0341
0000016988;6.2393;-15.4977;2.6336;0.7284;-0.8596;-0.0244
0000016996;6.2824;-15.2582;2.7892;0.7925;-0.8571;-0.0143
0000017008;6.5505;-14.8297;2.8970;0.8952;-0.8448;0.0196
0000017016;6.5122;-14.5280;2.8419;0.9457;-0.8358;0.0330
0000017027;6.5218;-13.9199;2.3679;0.9719;-0.7850;0.0773
0000017035;6.5362;-13.6517;1.9632;0.9691;-0.7405;0.1025
0000017043;6.8929;-13.2351;1.6520;0.9754;-0.6948;0.1164
0000017055;7.2664;-12.7874;1.6113;1.0108;-0.6470;0.0895
0000017063;7.4843;-13.0364;2.0159;1.0596;-0.6197;0.0481
0000017074;7.6926;-13.1633;2.4229;1.1374;-0.5630;-0.0068
0000017082;7.7644;-13.4602;2.3487;1.2068;-0.5252;-0.0542
0000017094;7.4077;-13.3980;2.3200;1.3141;-0.4684;-0.1292
0000017102;6.9719;-13.2112;2.2458;1.3679;-0.4434;-0.1651
0000017113;6.2584;-13.0652;1.9872;1.3901;-0.4502;-0.2208
0000017121;5.9592;-12.6342;1.8723;1.3783;-0.4549;-0.2522
0000017129;5.6599;-12.4570;1.7957;1.3735;-0.4799;-0.2709
0000017141;5.1858;-12.5241;2.0423;1.3864;-0.5379;-0.2868
0000017149;5.2361;-12.4834;2.2386;1.4141;-0.5955;-0.3096
0000017216;7.4460;-14.2718;1.7358;1.7620;-0.8768;-0.4852
0000017224;7.7620;-14.2527;1.6783;1.7930;-0.8419;-0.4963
0000017236;7.9416;-14.3939;1.5730;1.8022;-0.7901;-0.5464
0000017244;8.3965;-14.7100;1.7454;1.8579;-0.7342;-0.6118
0000017255;8.2911;-15.0116;2.0758;1.9594;-0.6876;-0.7322
0000017263;8.3294;-15.0428;2.1428;1.9686;-0.6544;-0.7958
0000017275;8.2432;-15.6078;2.2458;2.0784;-0.6039;-0.9225
0000017283;8.3007;-15.9095;2.3224;2.2023;-0.5738;-1.0055
0000017291;8.4779;-16.1178;2.7318;2.3128;-0.5267;-1.0375
0000017302;8.3270;-16.1968;2.9640;2.4268;-0.4402;-1.0107
0000017310;7.9607;-16.3069;3.1340;2.4710;-0.3383;-1.0114
0000017322;7.6974;-16.0196;2.9042;2.4996;-0.2750;-1.0122
0000017330;7.3694;-15.8281;2.4014;2.4640;-0.2337;-0.9918
0000017341;6.6631;-15.3708;1.9393;2.4477;-0.2649;-1.0497
0000017349;6.0406;-15.4522;1.7238;2.5103;-0.2828;-1.1377
0000017361;5.4660;-16.3955;0.3280;2.7618;-0.3355;-1.2388
0000017369;4.7788;-16.7091;-0.1867;2.9399;-0.4586;-1.2283
0000017381;4.1372;-16.5104;-0.8499;3.2098;-0.6414;-1.2083
0000017389;3.9121;-15.7850;-0.4836;3.3484;-0.7410;-1.2331
0000017397;4.1420;-15.3660;-0.6081;3.4252;-0.8115;-1.2249
0000017409;3.8738;-14.9135;-1.1516;3.5662;-0.8039;-1.2211
0000017417;3.8738;-14.3461;-1.7262;3.5782;-0.8703;-1.1672
0000017484;4.5586;-8.0589;-3.0694;3.8112;-0.8915;-1.4476
0000017492;5.0470;-5.8754;-1.8699;3.9045;-0.9395;-1.5957
0000017504;7.0557;-4.0725;-1.3455;4.0763;-0.9900;-1.6118
0000017512;8.4994;-3.5650;-1.1995;4.1343;-1.0131;-1.4087
0000017524;10.0245;-2.3535;0.3903;3.7698;-1.1147;-0.9200
0000017532;10.3046;-1.9609;1.1396;3.2939;-1.0559;-0.6892
0000017544;10.4028;-0.6632;1.5945;2.4838;-0.8595;-0.3889
0000017552;10.7763;1.6855;4.0079;1.8659;-0.8607;-0.0585
0000017560;10.5034;7.5393;8.0996;1.0973;-0.9145;0.4526
0000017572;11.8513;32.6497;21.6125;-0.9570;-0.4445;1.6177
0000017580;30.2436;40.2441;21.9931;-2.6801;0.4666;1.2205
0000017592;29.6019;29.1350;9.3063;-3.1479;2.4349;0.9068
0000017600;29.3625;24.8159;6.6367;-2.6052;3.7369;0.4198
0000017612;28.0864;19.9820;8.9854;-2.9334;4.3656;0.1527
0000017620;26.3961;15.7682;8.3342;-3.6167;4.3656;0.3042
0000017631;25.5892;11.4299;11.5137;-4.3657;4.2730;0.4206
0000017639;22.4720;9.9216;23.4273;-4.3657;3.5406;0.1772
0000017647;8.3318;-14.7148;78.4508;-4.3657;1.3175;-0.3909
0000017659;31.8716;-64.3370;78.4508;3.7086;1.0565;-2.3277
0000017667;23.8151;-30.9929;21.9692;4.3656;1.1662;-3.5254
0000017731;1.9680;-0.7518;0.5411;-0.9694;-0.8493;0.2153
0000017739;3.0430;-2.1045;0.3472;-0.3327;-1.0841;0.1504
0000017751;4.1013;-3.8451;0.1101;0.3750;-1.2939;0.0393
0000017759;4.2186;-4.2832;0.4166;0.6555;-1.3471;-0.0530
0000017771;4.5729;-3.8307;1.7669;0.7690;-1.1379;-0.2385
0000017779;5.1451;-2.9066;2.8108;0.6805;-0.8660;-0.3212
0000017791;7.7979;-2.4995;4.0175;0.3309;-0.5737;-0.1283
0000017799;8.7915;-3.2274;3.9073;-0.0068;-0.3664;0.0829
0000017807;9.5265;-4.2928;3.2130;-0.2016;-0.1183;0.2972
0000017819;10.1945;-5.6982;2.0710;-0.2345;0.3484;0.6229
0000017827;9.8162;-6.3686;1.9585;-0.2325;0.6179;0.7674
0000017839;9.4834;-6.7469;2.2122;-0.4066;0.8484;0.8631
0000017847;9.4954;-6.8522;2.4493;-0.5949;0.9252;0.8529
0000017859;9.8258;-6.1866;3.6919;-0.9238;1.0112;0.6726
0000017867;9.9695;-5.7174;4.3574;-1.1532;1.0692;0.4434
0000017875;9.8521;-4.9177;6.0310;-1.3286;1.0836;0.1310
0000017887;8.8873;-4.6112;8.0948;-1.3885;1.0948;-0.3533
0000017895;8.0373;-5.0111;9.0644;-1.2670;1.0953;-0.5794
0000017907;6.7540;-6.1363;10.8577;-0.9049;1.0269;-0.6408
0000017915;5.9640;-7.2975;12.4498;-0.5895;0.9431;-0.4831
0000017927;5.6240;-8.9783;13.8457;-0.1608;0.7742;-0.0731
0000017935;5.9041;-9.5433;13.9486;0.0530;0.6175;0.1544
0000018002;7.6303;-5.2361;13.2998;0.1685;-0.3998;-0.0504
0000018010;7.8458;-5.8347;12.7659;0.2466;-0.4972;-0.0782
0000018022;8.5593;-6.2944;11.6765;0.3126;-0.5979;-0.0723
0000018030;8.9447;-6.5194;10.9942;0.3104;-0.6404;-0.0372
0000018038;9.4595;-6.8283;10.1969;0.2815;-0.6752;-0.0037
0000018050;10.0437;-7.0605;9.5744;0.2002;-0.6880;0.0644
0000018058;10.3046;-7.3789;9.3541;0.1548;-0.6708;0.0903
0000018070;10.7691;-7.6830;8.6933;0.0991;-0.5978;0.1378
0000018078;10.8960;-7.8147;8.2768;0.1027;-0.5291;0.1514
0000018090;11.2336;-7.8051;7.8817;0.1511;-0.3585;0.1462
0000018098;11.4491;-8.0469;8.0110;0.1780;-0.1883;0.1296
0000018110;11.5137;-8.3893;7.7979;0.2441;0.0281;0.0921
0000018118;11.2384;-8.4348;5.8514;0.2146;0.1130;0.0766
0000018126;11.7029;-8.2600;5.7868;0.1108;0.2369;0.0501
0000018138;11.6693;-8.8083;7.1251;0.0671;0.5203;-0.0092
0000018146;11.6622;-8.8729;8.0397;0.1573;0.6498;-0.0240
0000018158;10.7835;-8.4348;8.5114;0.2749;0.7945;-0.0328
0000018166;10.3573;-7.4101;8.0828;0.2642;0.8663;-0.0845
0000018178;8.9232;-6.6750;6.2656;0.0131;0.8074;-0.1994
0000018186;8.1020;-6.5218;6.7732;-0.2094;0.7432;-0.2718
0000018198;5.8227;-6.6487;7.4340;-0.5291;0.6141;-0.2900
0000018206;4.3431;-6.7756;8.1738;-0.6166;0.4855;-0.2502
0000018214;3.0095;-7.3837;9.0333;-0.6021;0.3136;-0.1705
0000018281;9.0118;-8.3199;10.4986;0.2741;-0.8182;0.2658
0000018289;10.6039;-8.2744;10.7188;0.3095;-0.7536;0.1743
0000018301;12.5983;-8.0421;11.1115;0.2935;-0.6150;0.1037
0000018309;13.4219;-7.6112;11.1067;0.2653;-0.5011;0.1268
0000018321;13.8768;-6.5721;10.6853;0.2052;-0.2942;0.2065
0000018329;13.1059;-6.0142;10.2448;0.1423;-0.1350;0.2743
0000018341;11.6095;-5.2912;9.5313;0.0545;0.0741;0.3447
0000018349;10.3214;-5.2433;9.1291;0.0045;0.1655;0.3621
0000018357;9.1602;-5.2577;8.9423;-0.0246;0.2165;0.3449
0000018369;7.7835;-5.7940;8.8274;-0.0051;0.2113;0.2677
0000018377;7.1682;-6.3494;8.7173;0.0246;0.1659;0.1847
0000018389;7.2520;-6.7301;8.6862;0.0541;0.0950;0.0338
0000018397;7.3502;-7.0174;8.6407;0.0492;0.0525;-0.0520
0000018408;7.9128;-7.3574;8.7077;0.0024;-0.0017;-0.1364
0000018416;8.1786;-7.7596;8.8657;-0.0370;-0.0321;-0.1671
0000018428;8.2887;-8.1523;8.9615;-0.0749;-0.0994;-0.1695
0000018436;8.4803;-8.1642;8.9998;-0.0822;-0.1323;-0.1471
0000018444;8.7053;-8.3055;9.0357;-0.0770;-0.1549;-0.1065
0000018456;9.1339;-7.8027;9.1147;-0.0636;-0.1815;-0.0671
0000018464;9.3278;-7.5154;9.1530;-0.0530;-0.1956;-0.0460
0000018476;9.3158;-6.9767;9.0980;-0.0560;-0.2038;-0.0152
0000018484;9.3853;-6.6631;9.0740;-0.0530;-0.2006;-0.0007
0000018552;9.7923;-7.2425;9.4451;0.0120;0.0891;-0.1216
0000018561;9.3254;-7.3502;9.4691;0.0211;0.1035;-0.1508
0000018574;8.7101;-7.1778;9.3206;0.0168;0.1162;-0.1724
0000018583;8.3510;-7.1275;9.3039;0.0173;0.1135;-0.1773
0000018592;8.3007;-6.9959;9.2991;0.0080;0.1164;-0.1668
0000018605;7.9009;-6.9312;9.3134;0.0049;0.1083;-0.1455
0000018614;8.0349;-6.8905;9.2847;-0.0063;0.1091;-0.1126
0000018627;8.0158;-6.8929;9.2967;-0.0115;0.0789;-0.0849
0000018636;7.9224;-6.9097;9.3829;-0.0229;0.0665;-0.0522
0000018649;7.7764;-7.1419;9.4164;-0.0318;0.0418;-0.0317
0000018658;8.1427;-7.0174;9.4212;-0.0422;0.0317;-0.0254
0000018671;8.1523;-7.0940;9.5146;-0.0389;0.0093;-0.0258
0000018680;8.0876;-7.2353;9.5122;-0.0405;-0.0043;-0.0277
0000018689;8.2432;-7.1084;9.4571;-0.0318;-0.0141;-0.0318
0000018702;8.4156;-7.1084;9.4332;-0.0320;-0.0246;-0.0428
0000018711;8.4827;-7.1587;9.4715;-0.0268;-0.0393;-0.0626
0000018724;8.6670;-6.8570;9.5409;-0.0281;-0.0284;-0.0709
0000018733;8.6095;-6.9719;9.4571;-0.0272;-0.0155;-0.0735
0000018746;8.6479;-6.8426;9.3685;-0.0252;-0.0009;-0.0613
0000018755;8.4372;-7.0557;9.4763;-0.0257;0.0051;-0.0445
0000018768;8.4324;-7.2113;9.3518;-0.0260;-0.0048;-0.0238
0000018777;8.4994;-7.0150;9.4164;-0.0173;-0.0148;-0.0081
0000018845;8.3893;-7.0198;9.2464;-0.0452;-0.0825;0.0151
0000018854;8.5138;-7.0270;9.2847;-0.0473;-0.0778;0.0266
0000018863;8.6670;-6.9336;9.3039;-0.0389;-0.0769;0.0246
0000018876;8.6862;-6.9815;9.4188;-0.0318;-0.0673;0.0252
0000018885;8.7724;-6.9887;9.2680;-0.0305;-0.0556;0.0313
0000018898;8.7340;-7.0773;9.3063;-0.0234;-0.0477;0.0268
0000018907;8.8202;-7.0557;9.2680;-0.0176;-0.0420;0.0193
0000018920;8.8538;-7.0677;9.2225;-0.0100;-0.0410;0.0091
0000018929;8.5425;-7.3502;9.3613;-0.0121;-0.0330;0.0064
0000018942;8.5473;-7.1347;9.3087;-0.0100;-0.0309;-0.0019
0000018951;8.7197;-7.1084;9.2632;-0.0149;-0.0289;-0.0053
0000018960;8.8274;-6.9935;9.3350;-0.0217;-0.0309;-0.0104
0000018973;8.5353;-7.1874;9.2943;-0.0302;-0.0356;-0.0073
0000018982;8.5377;-7.1323;9.3134;-0.0478;-0.0264;-0.0001
0000018998;8.5569;-7.1826;9.2967;-0.0444;-0.0392;-0.0199
0000019007;8.6335;-7.2161;9.3518;-0.0484;-0.0304;-0.0217
0000019020;8.6646;-7.2233;9.4068;-0.0325;-0.0348;-0.0338
0000019029;8.8011;-7.1563;9.3925;-0.0246;-0.0340;-0.0374
0000019041;8.7724;-7.1204;9.3350;-0.0092;-0.0352;-0.0437
0000019050;8.6479;-7.2664;9.2033;-0.0112;-0.0257;-0.0402
0000019119;8.6814;-6.9887;9.3829;-0.0320;-0.0057;-0.0180
0000019128;8.4922;-7.0605;9.4092;-0.0349;-0.0100;-0.0136
0000019137;8.4659;-6.9839;9.3901;-0.0406;-0.0061;-0.0132
0000019149;8.6191;-6.9528;9.4451;-0.0429;-0.0104;-0.0172
0000019158;8.3462;-7.0174;9.4188;-0.0316;-0.0168;-0.0215
0000019171;8.4874;-6.9887;9.5529;-0.0340;-0.0241;-0.0209
0000019180;8.5066;-7.0246;9.4188;-0.0225;-0.0277;-0.0205
0000019192;8.4827;-7.0413;9.3541;-0.0278;-0.0222;-0.0159
0000019201;8.4180;-7.0868;9.4643;-0.0245;-0.0249;-0.0109
0000019214;8.4467;-7.1108;9.3158;-0.0256;-0.0286;-0.0095
0000019223;8.4372;-7.1419;9.3326;-0.0300;-0.0317;-0.0069
0000019232;8.4108;-7.1539;9.3709;-0.0290;-0.0453;-0.0143
0000019244;8.4324;-7.2329;9.3278;-0.0297;-0.0441;-0.0147
0000019253;8.4731;-7.1467;9.3015;-0.0358;-0.0402;-0.0095
0000019266;8.4970;-7.2161;9.2967;-0.0333;-0.0416;-0.0055
0000019275;8.5305;-7.1012;9.3613;-0.0316;-0.0453;-0.0068
0000019287;8.6598;-7.1156;9.2225;-0.0312;-0.0549;-0.0059
0000019296;8.5425;-7.2209;9.2560;-0.0377;-0.0520;-0.0097
0000019309;8.5018;-7.1347;9.2488;-0.0372;-0.0665;-0.0217
0000019318;8.6000;-7.1635;9.3111;-0.0398;-0.0610;-0.0177
0000019330;8.3989;-7.2856;9.2560;-0.0410;-0.0642;-0.0179
0000019339;8.7652;-7.1419;9.3470;-0.0373;-0.0629;-0.0218
0000019348;8.6838;-7.1060;9.3039;-0.0294;-0.0610;-0.0230
0000019417;8.5569;-7.1491;9.3182;-0.0180;-0.0500;-0.0390
0000019426;8.7005;-7.0413;9.2871;-0.0199;-0.0408;-0.0361
0000019438;8.4779;-7.1491;9.2895;-0.0270;-0.0388;-0.0278
0000019447;8.6646;-6.9743;9.2775;-0.0286;-0.0410;-0.0326
0000019460;8.6694;-7.1970;9.2703;-0.0270;-0.0448;-0.0258
0000019469;8.4803;-7.2808;9.3613;-0.0272;-0.0437;-0.0234
0000019481;8.5449;-7.1323;9.3254;-0.0280;-0.0424;-0.0277
0000019490;8.5521;-7.1730;9.4140;-0.0248;-0.0366;-0.0278
0000019503;8.6407;-7.1730;9.3374;-0.0185;-0.0313;-0.0280
0000019512;8.6886;-7.1706;9.3015;-0.0119;-0.0320;-0.0248
0000019521;8.5186;-7.3406;9.3039;0.0017;-0.0404;-0.0212
0000019533;8.4994;-7.2329;9.2488;0.0085;-0.0458;-0.0252
0000019542;8.5688;-7.1563;9.2105;0.0041;-0.0442;-0.0241
0000019555;8.5976;-7.1419;9.3182;0.0012;-0.0450;-0.0229
0000019564;8.4755;-7.2999;9.3278;-0.0075;-0.0341;-0.0105
0000019576;8.5138;-7.2113;9.3733;-0.0067;-0.0322;-0.0044
0000019585;8.5784;-7.2209;9.2751;-0.0003;-0.0409;-0.0105
0000019598;8.6263;-7.2137;9.2703;-0.0029;-0.0362;-0.0096
0000019607;8.5712;-7.2353;9.3111;-0.0125;-0.0296;-0.0036
0000019619;8.6143;-7.1156;9.3925;-0.0137;-0.0261;-0.0057
0000019628;8.5736;-7.2257;9.3901;-0.0107;-0.0350;-0.0124
0000019637;8.4396;-7.3191;9.3661;-0.0045;-0.0338;-0.0115
0000019706;8.5904;-7.2305;9.2895;-0.0027;-0.0362;-0.0233
0000019715;8.5377;-7.2233;9.3158;-0.0095;-0.0278;-0.0205
0000019727;8.6215;-7.1419;9.3637;-0.0168;-0.0342;-0.0242
0000019736;8.5712;-7.2305;9.3063;-0.0128;-0.0353;-0.0213
0000019749;8.5928;-7.2449;9.2751;-0.0112;-0.0285;-0.0268
0000019758;8.6862;-7.0868;9.2512;-0.0164;-0.0230;-0.0173
0000019770;8.7005;-7.1395;9.2081;-0.0111;-0.0249;-0.0249
0000019779;8.4611;-7.2089;9.2991;-0.0153;-0.0180;-0.0193
0000019788;8.5545;-7.1754;9.4164;-0.0093;-0.0265;-0.0266
0000019801;8.5569;-7.1228;9.3350;-0.0143;-0.0249;-0.0208
0000019810;8.5473;-7.1299;9.3613;-0.0229;-0.0244;-0.0163
0000019822;8.6981;-6.9576;9.3589;-0.0265;-0.0293;-0.0141
0000019831;8.5281;-7.0916;9.3446;-0.0167;-0.0320;-0.0165
0000019844;8.4084;-7.2784;9.3278;-0.0180;-0.0297;-0.0051
0000019853;8.4108;-7.2880;9.3111;-0.0059;-0.0372;-0.0179
0000019865;8.2456;-7.4220;9.3278;-0.0084;-0.0345;-0.0108
0000019874;8.5473;-7.1419;9.2967;-0.0133;-0.0324;-0.0131
0000019887;8.7149;-7.0390;9.2871;-0.0076;-0.0378;-0.0148
0000019896;8.5593;-7.1275;9.2608;-0.0117;-0.0350;-0.0121
0000019905;8.6479;-7.1635;9.1866;-0.0103;-0.0349;-0.0127
0000019917;8.7125;-7.1060;9.2536;-0.0124;-0.0360;-0.0085
0000019926;8.7867;-7.0629;9.2464;-0.0111;-0.0306;-0.0124
0000019995;8.6287;-7.2113;9.4188;-0.0052;-0.0294;-0.0151
0000020004;8.7269;-7.2712;9.3446;-0.0009;-0.0366;-0.0230
0000020016;8.4779;-7.2712;9.4092;0.0052;-0.0362;-0.0265
0000020025;8.5114;-7.1682;9.2392;-0.0049;-0.0306;-0.0248
0000020038;8.5473;-7.2113;9.2201;-0.0087;-0.0309;-0.0241
0000020047;8.5665;-7.1563;9.2895;-0.0020;-0.0300;-0.0237
0000020059;8.6048;-7.2209;9.2895;-0.0064;-0.0288;-0.0197
0000020068;8.6957;-7.0222;9.3302;-0.0089;-0.0266;-0.0225
0000020077;8.5736;-7.0581;9.2751;-0.0149;-0.0241;-0.0168
0000020090;8.4491;-7.1491;9.3254;-0.0132;-0.0272;-0.0185
0000020099;8.8250;-6.9863;9.3206;-0.0131;-0.0277;-0.0168
0000020111;8.6766;-7.1012;9.4547;-0.0047;-0.0196;-0.0145
0000020120;8.7963;-6.9959;9.4379;-0.0040;-0.0217;-0.0147
0000020133;8.6574;-7.1539;9.4595;0.0031;-0.0232;-0.0156
0000020142;8.6526;-7.1994;9.3350;-0.0008;-0.0199;-0.0060
0000020154;8.6287;-7.2664;9.4188;0.0125;-0.0300;-0.0143
0000020163;8.5305;-7.2161;9.3134;0.0085;-0.0222;-0.0067
0000020176;8.4372;-7.2880;9.2967;0.0085;-0.0282;-0.0048
0000020185;8.5569;-7.2903;9.3589;0.0073;-0.0296;-0.0091
0000020194;8.4851;-7.1802;9.2895;0.0044;-0.0270;-0.0075
0000020206;8.4898;-7.0916;9.2344;-0.0035;-0.0260;-0.0093
0000020215;8.5545;-7.0557;9.3948;-0.0001;-0.0325;-0.0116
0000020284;8.6191;-7.0749;9.2967;-0.0017;-0.0193;-0.0024
0000020293;8.7556;-6.8905;9.3446;-0.0085;-0.0148;-0.0011
0000020305;8.5281;-7.0078;9.3541;-0.0059;-0.0270;-0.0115
0000020314;8.6263;-6.9192;9.2703;-0.0085;-0.0313;-0.0207
0000020327;8.6024;-7.0006;9.2703;-0.0085;-0.0410;-0.0280
0000020336;8.7173;-7.0677;9.2895;-0.0112;-0.0373;-0.0217
0000020345;8.5186;-7.1156;9.3134;-0.0048;-0.0432;-0.0333
0000020357;8.6311;-7.2018;9.3063;-0.0099;-0.0429;-0.0300
0000020366;8.6072;-7.0461;9.3661;-0.0167;-0.0373;-0.0157
0000020379;8.5856;-7.2496;9.3518;-0.0244;-0.0302;-0.0173
0000020388;8.7580;-7.1850;9.3613;-0.0193;-0.0297;-0.0161
0000020400;8.7340;-7.1132;9.2129;-0.0147;-0.0193;-0.0160
0000020409;8.5808;-7.2903;9.1315;-0.0148;-0.0173;-0.0116
0000020422;8.5569;-7.1778;9.1387;-0.0071;-0.0148;-0.0152
0000020431;8.5760;-7.1012;9.3302;-0.0085;-0.0238;-0.0188
0000020442;8.5449;-7.1299;9.4571;-0.0119;-0.0213;-0.0167
0000020451;8.5856;-7.0270;9.4068;-0.0104;-0.0256;-0.0120
0000020460;8.5305;-6.9983;9.3398;-0.0119;-0.0317;-0.0119
0000020474;8.5162;-7.1778;9.3087;-0.0155;-0.0276;-0.0184
0000020483;8.6119;-7.1084;9.2536;-0.0168;-0.0200;-0.0047
0000020552;8.5665;-7.0605;9.4284;0.0055;-0.0141;-0.0105
0000020561;8.4922;-7.1347;9.3565;0.0020;-0.0160;-0.0139
0000020573;8.5473;-7.0916;9.3613;-0.0027;-0.0160;-0.0135
0000020582;8.6263;-7.0940;9.2823;-0.0112;-0.0092;-0.0027
0000020595;8.5976;-7.1060;9.4499;-0.0023;-0.0185;-0.0072
0000020604;8.8011;-6.9959;9.3661;-0.0080;-0.0121;-0.0032
0000020616;8.5138;-7.0509;9.3685;-0.0032;-0.0132;-0.0037
0000020625;8.4970;-7.2185;9.3039;0.0024;-0.0136;-0.0068
0000020634;8.4994;-7.1323;9.2919;0.0087;-0.0180;-0.0100
0000020647;8.5736;-7.1515;9.2847;0.0089;-0.0181;-0.0187
0000020656;8.5497;-7.0222;9.3111;0.0071;-0.0203;-0.0197
0000020668;8.6886;-6.8977;9.2727;-0.0008;-0.0220;-0.0163
0000020677;8.4874;-7.0198;9.2727;0.0019;-0.0314;-0.0265
0000020690;8.4803;-7.1108;9.3613;-0.0084;-0.0404;-0.0266
0000020699;8.4587;-7.0940;9.2991;-0.0140;-0.0321;-0.0215
0000020711;8.4851;-7.0150;9.3182;-0.0153;-0.0360;-0.0212
0000020720;8.5473;-7.1251;9.2775;-0.0160;-0.0386;-0.0302
0000020729;8.4300;-7.1515;9.2727;-0.0184;-0.0344;-0.0189
0000020742;8.7077;-6.9743;9.2991;-0.0069;-0.0302;-0.0238
0000020751;8.6694;-7.1084;9.2727;-0.0032;-0.0270;-0.0209
0000020763;8.5258;-7.2089;9.4164;0.0020;-0.0250;-0.0156
0000020772;8.6048;-7.1156;9.4236;0.0031;-0.0285;-0.0133
0000020839;8.4324;-7.1156;9.3613;-0.0141;-0.0384;-0.0099
0000020847;8.2983;-7.2305;9.3087;-0.0096;-0.0456;-0.0193
0000020858;8.5018;-7.1587;9.3374;-0.0079;-0.0465;-0.0173
0000020866;8.5329;-7.0988;9.2847;-0.0172;-0.0385;-0.0159
