time;acc_x;acc_y;acc_z;gyro_x;gyro_y;gyro_z
0000120790;2.7078;-14.7100;0.4525;0.0901;0.4365;-0.0973
0000120798;2.8730;-14.6214;-0.0144;0.0466;0.3918;-0.1472
0000120805;2.6288;-14.7363;-0.0862;0.0143;0.3628;-0.1795
0000120813;2.4636;-14.7052;-0.0622;-0.0179;0.3343;-0.2092
0000120880;3.1173;-15.2439;1.8986;-0.1082;-0.0394;-0.1993
0000120888;3.8666;-15.3492;1.7909;-0.0646;-0.0393;-0.2262
0000120900;4.8387;-15.3995;1.7430;-0.0183;0.0007;-0.2750
0000120908;5.3798;-15.4234;1.8435;0.0069;0.0541;-0.3004
0000120916;5.8993;-15.4211;2.0063;0.0338;0.1147;-0.3360
0000120927;6.1914;-15.4809;2.2889;0.0605;0.2286;-0.3742
0000120935;6.1339;-15.4139;2.3224;0.0709;0.3083;-0.4113
0000120947;5.8299;-15.6629;2.2769;0.0927;0.4230;-0.4710
0000120955;5.6000;-15.8664;2.2505;0.0937;0.4883;-0.5073
0000120966;5.1260;-15.9262;2.1548;0.0875;0.5404;-0.5608
0000120974;4.7094;-15.9789;2.1931;0.0849;0.5508;-0.5824
0000120986;4.0654;-16.3285;2.4924;0.0569;0.5589;-0.5514
0000120994;3.7613;-16.6158;2.7749;0.0244;0.5449;-0.4800
0000121002;3.6176;-16.9246;2.9425;-0.0007;0.5148;-0.3850
0000121013;3.3232;-17.1808;3.1077;-0.0306;0.4445;-0.2117
0000121021;2.8970;-17.1066;2.8946;-0.0381;0.3876;-0.0951
0000121033;2.9401;-16.3835;2.5355;-0.0212;0.2964;0.0060
0000121041;2.6528;-15.9119;2.3846;0.0009;0.2278;0.0329
0000121052;2.7078;-15.3013;2.0734;0.0314;0.1368;0.0273
0000121060;2.8730;-14.7650;1.8962;0.0334;0.0798;0.0191
0000121109;4.0917;-14.7555;1.3599;-0.0249;-0.1488;0.0381
0000121117;4.2162;-14.9949;1.2594;-0.0570;-0.1824;0.0401
0000121128;4.4652;-15.2726;1.4916;-0.1167;-0.2229;0.0585
0000121136;4.3981;-15.6820;1.3623;-0.1537;-0.2579;0.0544
0000121144;4.4508;-16.0052;1.5395;-0.1825;-0.2759;0.0548
0000121156;4.5322;-16.2064;1.5347;-0.1997;-0.2871;0.0420
0000121164;4.6256;-16.3859;1.5897;-0.1880;-0.2976;0.0200
0000121175;4.5538;-16.6014;1.7861;-0.1613;-0.3036;0.0001
0000121183;5.0230;-16.3285;1.8244;-0.1391;-0.3050;-0.0203
0000121251;5.3391;-15.4546;2.2027;-0.0452;-0.1442;0.0044
0000121259;5.1284;-15.5192;2.2170;-0.0436;-0.1278;-0.0016
0000121270;4.9344;-15.5719;2.2553;-0.0510;-0.1023;-0.0016
0000121278;4.9321;-15.6724;2.2913;-0.0578;-0.0807;-0.0035
0000121290;4.8339;-15.7275;2.0877;-0.0541;-0.0554;-0.0152
0000121298;4.8123;-15.6820;2.1452;-0.0434;-0.0433;-0.0269
0000121306;4.7573;-15.7562;2.1141;-0.0334;-0.0345;-0.0326
0000121317;4.7573;-15.7945;2.0566;-0.0264;-0.0199;-0.0485
0000121325;4.6687;-15.8616;2.0614;-0.0211;-0.0165;-0.0541
0000121337;4.4412;-15.7371;2.0279;-0.0221;-0.0218;-0.0540
0000121345;4.3886;-15.8496;2.0518;-0.0257;-0.0329;-0.0516
0000121356;4.1563;-15.8520;2.0039;-0.0373;-0.0504;-0.0382
0000121364;3.9672;-15.9167;2.0327;-0.0366;-0.0685;-0.0344
0000121376;4.1084;-15.8257;2.1380;-0.0329;-0.0874;-0.0160
0000121384;4.2497;-15.6605;2.1308;-0.0336;-0.0966;-0.0061
0000121395;4.2952;-15.7084;2.0375;-0.0213;-0.1186;0.0007
0000121403;4.5226;-15.5503;2.0734;-0.0218;-0.1171;0.0109
0000121415;4.5011;-15.6054;1.9130;-0.0218;-0.1259;0.0113
0000121423;4.8195;-15.4139;1.9345;-0.0228;-0.1298;-0.0013
0000121431;4.6448;-15.6102;2.0590;-0.0289;-0.1243;0.0027
0000121443;4.7860;-15.5240;2.0016;-0.0388;-0.1164;-0.0045
0000121451;4.8052;-15.7012;2.0039;-0.0365;-0.1176;-0.0208
0000121519;4.8076;-15.7491;1.9345;-0.0494;-0.0437;-0.0180
0000121527;4.7573;-15.6772;1.9154;-0.0424;-0.0506;-0.0176
0000121538;4.5610;-15.8807;1.9154;-0.0496;-0.0378;-0.0109
0000121546;4.6687;-15.8041;1.8794;-0.0428;-0.0397;-0.0192
0000121558;4.8219;-15.6365;1.8651;-0.0420;-0.0360;-0.0165
0000121566;4.7573;-15.6293;1.7262;-0.0332;-0.0381;-0.0234
0000121577;4.7860;-15.7060;1.8794;-0.0385;-0.0424;-0.0241
0000121585;4.5418;-15.8831;1.8316;-0.0329;-0.0469;-0.0225
0000121593;4.7453;-15.6724;1.8411;-0.0360;-0.0509;-0.0249
0000121605;4.5945;-15.7634;1.7717;-0.0366;-0.0497;-0.0237
0000121613;4.8722;-15.6509;1.7813;-0.0429;-0.0388;-0.0151
0000121624;4.8698;-15.5839;1.7885;-0.0441;-0.0354;-0.0161
0000121632;4.8770;-15.6030;1.7693;-0.0534;-0.0277;-0.0072
0000121644;4.6519;-15.7131;1.6855;-0.0582;-0.0345;-0.0128
0000121652;4.7740;-15.5695;1.6424;-0.0585;-0.0396;-0.0116
0000121663;4.6400;-15.7850;1.8220;-0.0640;-0.0460;-0.0059
0000121671;4.5849;-15.8496;1.7047;-0.0666;-0.0601;-0.0123
0000121683;4.7692;-15.7179;1.8172;-0.0385;-0.0723;-0.0064
0000121691;4.6184;-15.8329;1.8052;-0.0561;-0.0695;0.0007
0000121703;4.7309;-15.6940;1.6065;-0.0799;-0.0785;-0.0103
0000121711;4.6256;-15.8376;1.7789;-0.0705;-0.0838;-0.0125
0000121719;4.6567;-15.8137;1.7406;-0.0690;-0.0727;-0.0131
0000121787;4.6424;-15.8137;1.7023;-0.0833;-0.0902;-0.0031
0000121795;4.6256;-15.8855;1.6592;-0.0730;-0.0962;-0.0063
0000121806;4.5873;-15.8376;1.6616;-0.0702;-0.0961;-0.0105
0000121814;4.6759;-15.7945;1.7382;-0.0670;-0.0981;-0.0067
0000121826;4.5131;-15.7826;1.6161;-0.0608;-0.1119;-0.0091
0000121834;4.7118;-15.6341;1.7454;-0.0422;-0.1218;-0.0091
0000121845;4.5729;-15.7802;1.6735;-0.0486;-0.1220;0.0008
0000121853;4.6711;-15.9478;1.6017;-0.0695;-0.1187;-0.0004
0000121865;4.7764;-15.8903;1.5514;-0.0605;-0.1279;-0.0077
0000121873;4.6591;-16.0172;1.6328;-0.0490;-0.1260;-0.0081
0000121884;4.7285;-15.7850;1.6688;-0.0377;-0.1275;-0.0007
0000121892;4.5562;-15.9645;1.6185;-0.0349;-0.1250;-0.0045
0000121900;4.6160;-15.8855;1.6305;-0.0340;-0.1322;-0.0103
0000121912;4.7118;-15.7945;1.6807;-0.0329;-0.1315;-0.0076
0000121920;4.6855;-15.8137;1.6424;-0.0344;-0.1272;-0.0084
0000121931;4.7238;-15.6796;1.6999;-0.0426;-0.1302;-0.0065
0000121939;4.7022;-15.7203;1.7621;-0.0430;-0.1312;-0.0100
0000121951;4.8100;-15.8041;1.6855;-0.0457;-0.1290;-0.0133
0000121959;4.7788;-15.7634;1.7166;-0.0420;-0.1275;-0.0124
0000121970;4.7836;-15.7754;1.6927;-0.0457;-0.1222;-0.0097
0000121978;4.9105;-15.7586;1.6735;-0.0497;-0.1219;-0.0091
0000122046;4.8171;-15.8879;1.6041;-0.0241;-0.0887;-0.0144
0000122054;4.9153;-15.7371;1.5969;-0.0176;-0.0867;-0.0101
0000122065;4.7836;-15.8568;1.6113;-0.0244;-0.0810;-0.0131
0000122073;4.7932;-15.8664;1.7023;-0.0244;-0.0785;-0.0127
0000122081;4.6543;-15.7275;1.7693;-0.0312;-0.0702;-0.0081
0000122093;4.6783;-15.8257;1.8124;-0.0301;-0.0690;-0.0039
0000122101;4.6735;-15.8951;1.7765;-0.0254;-0.0739;-0.0060
0000122112;4.7118;-15.8616;1.6831;-0.0156;-0.0731;-0.0104
0000122120;4.6424;-15.8927;1.6951;-0.0155;-0.0636;-0.0012
0000122132;4.9799;-15.8329;1.6855;-0.0111;-0.0617;-0.0101
0000122140;4.9321;-15.8305;1.6640;-0.0092;-0.0565;-0.0085
0000122151;4.9344;-15.8736;1.6879;0.0000;-0.0562;-0.0135
0000122159;5.0781;-15.7778;1.8124;-0.0028;-0.0470;-0.0043
0000122171;4.9991;-15.6461;1.6400;0.0029;-0.0441;-0.0060
0000122179;4.8746;-15.6964;1.6017;0.0045;-0.0432;0.0015
0000122187;4.8195;-15.6078;1.7286;0.0063;-0.0393;0.0017
0000122199;4.7788;-15.7993;1.6759;0.0128;-0.0305;-0.0059
0000122207;4.8195;-15.7012;1.6879;0.0033;-0.0253;-0.0073
0000122218;4.6663;-15.8329;1.7406;0.0031;-0.0280;-0.0121
0000122226;4.7692;-15.6820;1.7334;0.0013;-0.0268;-0.0228
0000122238;4.9344;-15.5767;1.7526;0.0047;-0.0197;-0.0277
0000122246;4.8626;-15.7491;1.7286;0.0043;-0.0163;-0.0221
0000122313;4.7908;-15.7562;1.7047;0.0044;-0.0092;-0.0092
0000122321;4.8866;-15.6916;1.7693;0.0033;-0.0087;-0.0113
0000122333;4.6304;-15.8999;1.7909;0.0048;-0.0099;-0.0172
0000122341;4.7932;-15.7347;1.7286;0.0025;-0.0019;-0.0133
0000122349;4.7022;-15.7515;1.8459;0.0049;-0.0017;-0.0204
0000122360;4.8004;-15.7347;1.6975;0.0080;-0.0028;-0.0201
0000122368;4.6998;-15.7371;1.7621;0.0088;-0.0091;-0.0220
0000122380;4.6663;-15.7371;1.7669;0.0153;-0.0181;-0.0172
0000122388;4.7142;-15.7778;1.8316;0.0101;-0.0168;-0.0196
0000122399;4.6017;-15.8041;1.8387;0.0112;-0.0242;-0.0220
0000122407;4.9608;-15.5719;1.7478;0.0075;-0.0140;-0.0107
0000122419;4.8076;-15.6557;1.7310;0.0079;-0.0157;-0.0175
0000122427;4.6735;-15.7778;1.8172;0.0081;-0.0179;-0.0175
0000122438;4.6735;-15.7012;1.7717;0.0091;-0.0151;-0.0173
0000122446;4.6112;-15.7155;1.6544;0.0112;-0.0193;-0.0233
0000122454;4.7980;-15.7538;1.7071;0.0055;-0.0149;-0.0153
0000122466;4.7453;-15.7634;1.7573;0.0044;-0.0155;-0.0175
0000122474;4.6998;-15.9119;1.7813;0.0012;-0.0147;-0.0163
0000122485;4.6448;-15.8568;1.8220;0.0028;-0.0189;-0.0160
0000122493;4.7501;-15.9382;1.7526;0.0105;-0.0204;-0.0213
0000122505;4.6471;-15.8376;1.7478;0.0165;-0.0237;-0.0245
0000122513;4.6519;-15.7945;1.7214;0.0192;-0.0119;-0.0156
0000122580;4.7094;-15.7179;1.7693;0.0096;-0.0301;-0.0137
0000122588;4.7477;-15.7155;1.8052;0.0061;-0.0286;-0.0144
0000122600;4.5107;-15.8664;1.8028;0.0143;-0.0300;-0.0179
0000122608;4.8004;-15.7371;1.7980;0.0200;-0.0376;-0.0195
0000122616;4.7692;-15.7706;1.7597;0.0153;-0.0338;-0.0201
0000122627;4.7573;-15.6820;1.7573;0.0225;-0.0456;-0.0257
0000122635;4.7357;-15.6964;1.7957;0.0250;-0.0413;-0.0205
0000122647;4.7238;-15.6820;1.7071;0.0168;-0.0446;-0.0147
0000122655;4.7836;-15.6653;1.6712;0.0116;-0.0370;-0.0045
0000122666;4.6040;-15.8185;1.7789;0.0149;-0.0417;-0.0125
0000122674;4.6280;-15.8616;1.7765;0.0127;-0.0372;-0.0036
0000122686;4.7549;-15.7060;1.7837;0.0169;-0.0406;-0.0059
0000122694;4.7309;-15.6892;1.8675;0.0184;-0.0442;-0.0117
0000122705;4.6328;-15.6964;1.8531;0.0133;-0.0405;-0.0155
0000122713;4.7166;-15.6006;1.7645;0.0171;-0.0412;-0.0244
0000122721;4.7908;-15.6988;1.9106;0.0120;-0.0390;-0.0215
0000122733;4.6974;-15.7251;1.7933;0.0119;-0.0414;-0.0288
0000122741;4.7956;-15.6126;1.8866;0.0095;-0.0385;-0.0222
0000122752;4.7788;-15.6413;1.8794;0.0069;-0.0366;-0.0199
0000122760;4.7549;-15.5432;1.8028;0.0061;-0.0420;-0.0269
0000122772;4.8578;-15.6700;1.8220;0.0061;-0.0454;-0.0296
0000122780;4.8339;-15.7515;1.7765;0.0051;-0.0384;-0.0252
0000122847;4.8770;-15.6078;1.8866;0.0081;-0.0059;-0.0364
0000122855;4.8123;-15.6700;2.0087;0.0043;-0.0044;-0.0292
0000122863;4.8171;-15.6437;1.9201;0.0051;-0.0039;-0.0310
0000122875;4.9225;-15.5432;1.9824;0.0037;-0.0041;-0.0292
0000122883;4.8267;-15.6557;1.9537;0.0044;-0.0020;-0.0309
0000122894;4.8842;-15.6605;1.9585;0.0059;0.0064;-0.0340
0000122902;4.9967;-15.6102;1.9130;0.0104;0.0119;-0.0305
0000122914;4.9440;-15.6174;1.8411;0.0112;0.0165;-0.0276
0000122922;4.7501;-15.8544;1.9992;0.0107;0.0113;-0.0277
0000122933;4.8722;-15.7060;1.9728;0.0033;0.0187;-0.0286
0000122941;4.7573;-15.6892;1.9632;-0.0019;0.0204;-0.0258
0000122953;4.7501;-15.8472;2.0734;-0.0061;0.0168;-0.0314
0000122961;4.6591;-15.7251;1.9082;-0.0079;0.0129;-0.0296
0000122969;4.7860;-15.8209;2.0590;-0.0063;0.0092;-0.0300
0000122980;4.7716;-15.7084;1.8675;-0.0033;0.0097;-0.0302
0000122988;4.7932;-15.7036;1.9944;-0.0095;0.0116;-0.0264
0000123000;4.6855;-15.9262;1.9417;-0.0083;0.0107;-0.0253
0000123008;4.6783;-15.7323;1.9465;-0.0071;0.0093;-0.0253
0000123019;4.8004;-15.6844;1.8986;-0.0104;0.0073;-0.0252
0000123027;4.7070;-15.6461;1.9345;-0.0057;0.0044;-0.0233
0000123039;4.7884;-15.8424;1.9010;-0.0081;-0.0023;-0.0232
0000123047;4.6088;-15.7036;2.0016;-0.0031;-0.0087;-0.0248
0000123114;4.7549;-15.7012;1.9465;0.0087;-0.0425;-0.0208
0000123122;4.6495;-15.8975;1.9800;0.0097;-0.0429;-0.0237
0000123130;4.8219;-15.6174;1.9345;0.0160;-0.0550;-0.0277
0000123142;4.7669;-15.7515;1.9824;0.0139;-0.0502;-0.0203
0000123150;4.7405;-15.8329;1.9034;0.0085;-0.0434;-0.0103
0000123161;4.7046;-15.5240;1.9537;0.0037;-0.0478;-0.0095
0000123169;4.7980;-15.5958;1.8842;-0.0025;-0.0453;-0.0061
0000123181;4.7573;-15.7060;1.9513;-0.0037;-0.0525;-0.0093
0000123189;4.6735;-15.5982;1.9680;-0.0083;-0.0589;-0.0087
0000123200;4.7836;-15.7323;1.9848;-0.0131;-0.0653;-0.0141
0000123208;4.7118;-15.6389;2.0159;-0.0111;-0.0681;-0.0184
0000123220;4.7501;-15.7443;1.9680;-0.0139;-0.0634;-0.0244
0000123228;4.8004;-15.7323;1.9465;-0.0107;-0.0670;-0.0225
0000123236;4.8914;-15.6868;2.0207;-0.0015;-0.0662;-0.0258
0000123247;4.7573;-15.6581;1.8531;-0.0105;-0.0542;-0.0183
0000123255;4.9129;-15.6700;1.9561;-0.0140;-0.0548;-0.0189
0000123267;4.8626;-15.6844;1.9393;-0.0200;-0.0564;-0.0230
0000123275;4.7812;-15.6916;1.9561;-0.0169;-0.0616;-0.0224
0000123286;4.7477;-15.7969;1.9489;-0.0200;-0.0655;-0.0249
0000123294;4.7501;-15.8065;1.9058;-0.0135;-0.0636;-0.0228
0000123306;4.8746;-15.6988;1.9632;-0.0085;-0.0703;-0.0212
0000123314;4.7405;-15.7778;1.9872;-0.0135;-0.0601;-0.0205
0000123381;4.7525;-15.7419;1.8531;-0.0064;-0.0577;-0.0176
0000123389;4.8195;-15.7179;1.9489;-0.0080;-0.0534;-0.0147
0000123401;4.7357;-15.7730;1.9824;-0.0047;-0.0581;-0.0187
0000123409;4.8123;-15.6844;1.9872;-0.0008;-0.0610;-0.0203
0000123417;4.7190;-15.7108;1.9058;-0.0055;-0.0637;-0.0224
0000123428;4.8219;-15.6868;1.9872;0.0013;-0.0731;-0.0238
0000123436;4.8267;-15.6246;1.8220;-0.0083;-0.0658;-0.0191
0000123448;4.8818;-15.7754;1.9513;-0.0076;-0.0644;-0.0160
0000123456;4.7812;-15.8807;1.9345;-0.0108;-0.0642;-0.0156
0000123467;4.9392;-15.7443;2.0183;-0.0033;-0.0626;-0.0119
0000123475;4.9249;-15.9286;1.9393;0.0001;-0.0525;-0.0173
0000123487;4.8842;-15.7682;1.9656;0.0031;-0.0477;-0.0181
0000123495;4.8985;-15.7108;1.8866;0.0069;-0.0502;-0.0236
0000123506;4.9752;-15.5479;1.9968;-0.0004;-0.0420;-0.0213
0000123514;4.9177;-15.7682;1.9968;0.0037;-0.0422;-0.0245
0000123526;4.9847;-15.6509;2.0279;0.0000;-0.0413;-0.0264
0000123534;4.8267;-15.7969;2.0638;-0.0075;-0.0382;-0.0261
0000123542;4.7836;-15.8592;2.0470;-0.0143;-0.0360;-0.0282
0000123554;4.8818;-15.7538;2.0470;-0.0047;-0.0369;-0.0262
0000123562;4.8123;-15.7467;1.9225;-0.0108;-0.0266;-0.0256
0000123629;5.0661;-15.7874;2.0446;-0.0055;-0.0173;-0.0302
0000123637;4.8435;-15.8352;1.9561;-0.0083;-0.0043;-0.0257
0000123649;5.1451;-15.6748;1.9010;-0.0068;-0.0035;-0.0248
0000123657;4.9273;-15.8424;1.9537;-0.0108;0.0072;-0.0168
0000123668;4.7405;-15.7945;1.9441;-0.0107;-0.0015;-0.0185
0000123676;4.8890;-15.6413;1.8890;-0.0124;-0.0037;-0.0213
0000123688;4.8291;-15.7275;1.9130;-0.0123;-0.0272;-0.0281
0000123696;4.6998;-15.8927;1.9369;-0.0160;-0.0321;-0.0221
0000123704;4.7333;-15.7371;1.9297;-0.0139;-0.0380;-0.0234
0000123715;4.7812;-15.8927;1.9848;-0.0133;-0.0384;-0.0192
0000123723;5.0159;-15.7251;1.8914;-0.0073;-0.0385;-0.0220
0000123735;4.7669;-15.8999;1.9106;-0.0015;-0.0278;-0.0156
0000123743;4.8746;-15.8065;1.9034;0.0019;-0.0300;-0.0191
0000123754;4.8507;-15.7084;1.9441;-0.0025;-0.0304;-0.0246
0000123762;5.0087;-15.6341;1.9058;-0.0092;-0.0318;-0.0189
0000123774;4.7669;-15.7874;1.9154;-0.0152;-0.0389;-0.0151
0000123782;5.0398;-15.6629;1.8459;-0.0108;-0.0360;-0.0124
0000123793;4.8483;-15.6748;1.8675;-0.0003;-0.0264;0.0108
0000123801;5.0230;-15.4474;1.7047;-0.0039;-0.0244;0.0253
0000123813;4.7884;-15.2989;1.6735;-0.0017;-0.0248;0.0277
0000123821;4.6400;-15.3756;1.5658;-0.0091;-0.0249;0.0289
0000123829;4.5179;-15.4833;1.6807;-0.0037;-0.0352;0.0119
0000123896;4.8794;-15.9597;2.3583;0.0553;-0.1283;-0.0109
0000123904;4.7836;-16.1561;2.3655;0.0648;-0.1312;-0.0089
0000123916;5.0398;-15.9574;2.2697;0.0675;-0.1287;-0.0104
0000123924;5.1332;-15.8520;2.2841;0.0621;-0.1079;-0.0037
0000123935;5.0661;-16.0100;2.1117;0.0570;-0.0942;0.0104
0000123943;5.0853;-15.9789;2.1524;0.0430;-0.0683;0.0349
0000123955;5.0015;-16.2854;2.2865;0.0472;-0.0464;0.0642
0000123963;4.9704;-16.3189;2.3727;0.0578;-0.0332;0.0787
0000123971;4.8052;-16.3620;2.4373;0.0787;-0.0336;0.0871
0000123982;4.5897;-16.1896;2.1284;0.0961;-0.0249;0.0773
0000123990;4.2952;-16.0531;1.9489;0.0934;-0.0216;0.0739
0000124002;3.8379;-15.8855;1.4341;0.0849;-0.0409;0.0345
0000124010;3.8666;-15.5839;1.2186;0.0683;-0.0549;0.0008
0000124021;3.6631;-15.2870;1.2522;0.0417;-0.0754;-0.0340
0000124029;3.7948;-15.1433;1.4246;0.0286;-0.1184;-0.0661
0000124041;4.0390;-15.1026;1.5371;-0.0003;-0.1841;-0.0930
0000124049;4.0773;-15.1553;1.1540;-0.0187;-0.2160;-0.0985
0000124060;4.6328;-15.0093;0.5459;-0.0113;-0.2463;-0.0946
0000124068;4.7812;-15.0045;0.2969;-0.0095;-0.2386;-0.0739
0000124076;5.1691;-15.1361;0.2274;-0.0017;-0.2209;-0.0649
0000124088;5.8466;-15.2415;0.3974;0.0127;-0.1659;-0.0477
0000124096;6.1746;-15.4378;0.3472;0.0321;-0.1247;-0.0304
0000124163;4.2306;-16.7450;1.9393;0.1347;0.1755;-0.0717
0000124171;3.8547;-16.5870;1.9489;0.1683;0.1446;-0.0693
0000124183;3.6895;-16.1585;1.8028;0.2241;0.0775;-0.0909
0000124191;3.8690;-15.7945;1.7430;0.2493;0.0326;-0.1045
0000124202;3.9169;-15.5312;1.5131;0.2579;-0.0080;-0.0998
0000124210;4.0989;-15.0954;1.4581;0.2401;-0.0316;-0.0793
0000124222;4.3551;-14.8991;1.3910;0.1937;-0.0690;-0.0557
0000124230;4.2473;-15.0547;1.5036;0.1593;-0.0890;-0.0448
0000124238;4.2425;-15.1505;1.7071;0.1408;-0.1231;-0.0345
0000124249;4.3000;-15.4450;1.6520;0.1106;-0.1552;-0.0068
0000124257;4.4317;-15.5456;1.6448;0.0989;-0.1848;0.0076
0000124269;4.5226;-15.8544;1.4748;0.0950;-0.2225;0.0144
0000124277;4.5801;-15.9669;1.5275;0.0941;-0.2350;0.0212
0000124288;4.7669;-16.0220;1.2641;0.1160;-0.2629;0.0101
0000124296;4.6663;-16.1585;1.4078;0.1343;-0.2621;0.0043
0000124308;5.1188;-15.9550;1.3599;0.1725;-0.2590;-0.0079
0000124316;5.0949;-16.0747;1.4293;0.1948;-0.2518;-0.0153
0000124324;5.1643;-16.0603;1.3886;0.2273;-0.2525;-0.0260
0000124335;5.2792;-15.9550;1.3838;0.2534;-0.2312;-0.0270
0000124343;5.0374;-15.9526;1.3001;0.2635;-0.2181;-0.0242
0000124355;4.9632;-15.9526;1.3623;0.2799;-0.2132;-0.0211
0000124363;4.8315;-15.7299;1.3815;0.2906;-0.2200;-0.0236
0000124430;5.1906;-15.3397;1.5443;0.3223;-0.2737;-0.0420
0000124438;5.1332;-15.3420;1.4724;0.3223;-0.2686;-0.0324
0000124450;5.1356;-15.5456;1.5323;0.3357;-0.2634;-0.0250
0000124458;5.0470;-15.5647;1.5299;0.3455;-0.2633;-0.0261
0000124469;5.2888;-15.4402;1.5036;0.3529;-0.2546;-0.0272
0000124477;4.9728;-15.6605;1.4844;0.3693;-0.2622;-0.0405
0000124485;5.0805;-15.5695;1.5730;0.3709;-0.2509;-0.0320
0000124497;5.2002;-15.6030;1.5514;0.3822;-0.2498;-0.0414
0000124505;5.3103;-15.4522;1.6305;0.3846;-0.2419;-0.0424
0000124516;5.3439;-15.4043;1.5323;0.3862;-0.2378;-0.0465
0000124524;5.4636;-15.3277;1.5730;0.3938;-0.2334;-0.0460
0000124536;5.3510;-15.3301;1.5634;0.3986;-0.2249;-0.0437
0000124544;5.4181;-15.1960;1.6161;0.3974;-0.2104;-0.0366
0000124555;5.2337;-15.3851;1.5754;0.4146;-0.2004;-0.0476
0000124563;5.2481;-15.3109;1.6496;0.4307;-0.1799;-0.0584
0000124575;5.1547;-15.6389;1.8938;0.4691;-0.1740;-0.0818
0000124583;5.0374;-15.6724;2.1524;0.4990;-0.1733;-0.0951
0000124591;4.9895;-15.4570;2.0662;0.5189;-0.1869;-0.0990
0000124602;4.7788;-15.4067;1.8603;0.5199;-0.1856;-0.0957
0000124610;4.8147;-15.2295;1.7957;0.5243;-0.1919;-0.0935
0000124622;4.8195;-15.0188;1.9369;0.5224;-0.2008;-0.0906
0000124630;4.7980;-15.3013;2.0806;0.5161;-0.2030;-0.0835
0000124697;5.2912;-14.5639;2.2793;0.6443;-0.2044;-0.0905
0000124705;5.5905;-14.5663;2.2936;0.6494;-0.1884;-0.0961
0000124717;5.6575;-14.5304;2.4397;0.6584;-0.1589;-0.1065
0000124725;5.6407;-14.6190;2.4469;0.6594;-0.1311;-0.1082
0000124736;5.8682;-14.5735;2.2721;0.6799;-0.0977;-0.0969
0000124744;5.9113;-14.5903;2.3224;0.6961;-0.0709;-0.0965
0000124752;5.8442;-14.6334;2.4756;0.7288;-0.0474;-0.1019
0000124764;5.9592;-14.5400;2.2960;0.7634;0.0001;-0.1035
0000124772;5.9161;-14.6070;2.2266;0.7841;0.0488;-0.0990
0000124783;6.0813;-14.4490;1.7645;0.8011;0.1330;-0.0981
0000124791;6.2704;-14.4706;1.2522;0.8120;0.1965;-0.0931
0000124803;6.5481;-14.6381;1.3431;0.8386;0.3203;-0.1015
0000124811;6.7588;-14.7555;1.6185;0.8723;0.3960;-0.1147
0000124822;6.8881;-15.1673;1.8962;0.9240;0.4923;-0.1617
0000124830;7.0509;-15.3397;1.8052;0.9794;0.5520;-0.1877
0000124838;6.8091;-15.2942;1.7382;1.0424;0.6189;-0.2125
0000124850;6.3901;-15.0859;1.7142;1.1389;0.6903;-0.2373
0000124858;5.8371;-14.7890;1.5395;1.1930;0.7198;-0.2535
0000124870;5.3774;-14.0348;1.4605;1.2047;0.7430;-0.2715
0000124878;5.1451;-13.7595;1.5179;1.1965;0.7517;-0.2775
0000124890;4.8794;-13.6206;1.3599;1.2153;0.7573;-0.2872
0000124898;5.0637;-13.6446;1.1851;1.2301;0.7681;-0.2681
0000124964;5.7413;-12.8808;3.7589;1.8315;0.7541;-0.1210
0000124972;5.6312;-12.1769;3.3160;1.8022;0.6991;-0.0789
0000124980;5.2840;-11.5017;3.1603;1.7548;0.6508;-0.0360
0000124992;4.8411;-10.6326;2.9090;1.7507;0.5840;0.0089
0000125000;4.0989;-10.3501;2.5331;1.7447;0.5496;0.0657
0000125012;3.3830;-9.9934;1.8627;1.7563;0.4475;0.1656
0000125020;3.1532;-10.2592;1.6185;1.8470;0.3874;0.2466
0000125032;3.7517;-10.2639;2.5498;2.0939;0.3135;0.3567
0000125040;3.4500;-10.2855;2.8036;2.3077;0.2233;0.4397
0000125048;3.2417;-10.2352;2.4421;2.5047;0.0790;0.4726
0000125060;4.0390;-9.8833;2.7605;2.6557;-0.0718;0.3778
0000125068;4.4700;-9.2416;2.9113;2.6462;-0.1414;0.2292
0000125080;5.3822;-9.0525;1.8244;2.5070;-0.1825;0.0669
0000125088;6.0118;-8.8083;1.7334;2.3711;-0.0789;-0.0557
0000125100;7.3574;-9.4020;1.2833;2.1253;0.1450;-0.1717
0000125108;7.7333;-10.2496;1.0104;2.1180;0.2573;-0.1844
0000125120;8.2361;-10.2711;0.6728;2.2421;0.2579;-0.0593
0000125128;8.0302;-11.5137;0.6680;2.5065;0.0766;0.0966
0000125136;7.2664;-12.8305;0.3759;2.7880;-0.1287;0.2639
0000125148;5.5091;-13.4722;-1.2402;2.8104;-0.4687;0.5820
0000125156;5.8706;-13.3884;-1.5850;2.7752;-0.5962;0.7529
0000125168;6.7684;-9.9407;4.0366;2.5035;-0.2811;0.8140
0000125176;5.3151;-6.5146;18.3109;1.5572;0.2809;0.6157
0000125244;7.7213;-13.7499;1.8148;4.3656;-1.9550;1.6072
0000125252;9.0956;-9.7133;1.8244;4.3656;-2.5447;1.4931
0000125264;10.8960;-0.6321;7.7835;4.3656;-3.4026;1.6029
0000125272;10.1825;12.7802;21.4856;3.6727;-3.7660;1.7440
0000125280;0.7183;28.3857;26.2117;1.9756;-3.6123;1.0172
0000125292;-18.4210;37.1676;8.6957;1.5338;-4.1608;-3.1820
0000125300;-8.5665;23.8630;7.5178;1.1114;-4.3657;-4.0933
0000125312;-0.3280;5.7174;-2.2098;0.2529;-4.3657;-3.1908
0000125320;1.7454;0.5674;-4.8028;0.1382;-4.3657;-2.4726
0000125332;2.4852;-1.1995;-4.6519;0.1507;-4.3657;-1.4236
0000125340;2.1835;0.5411;-2.8299;0.0365;-4.3657;-0.9088
0000125352;0.9266;0.7111;-3.0694;-0.1344;-4.3657;-0.3040
0000125360;-0.4621;0.0096;-4.3335;0.1124;-4.3657;0.1050
0000125372;-1.2522;4.3383;1.3575;0.4822;-4.3657;0.7837
0000125380;3.4117;8.1930;7.5848;-0.0609;-4.3657;1.6326
0000125388;9.9814;8.6167;10.2592;-0.6303;-4.3657;2.6043
0000125400;18.7298;3.0885;5.0159;-0.9078;-3.4500;4.3552
0000125408;20.1903;-2.9975;4.9895;-1.6505;-2.5257;4.3656
0000125420;18.4569;-11.8321;1.2330;-3.5542;-0.9976;4.3656
0000125428;29.9491;-23.7648;5.9424;-4.0322;-1.5212;3.6877
0000125440;66.3553;-42.9711;57.7074;-0.5525;-4.3657;0.4092
0000125448;56.2853;-34.3089;28.9698;3.6713;-4.2077;-1.0718
0000125516;16.6517;9.1985;-2.5786;1.5997;0.3930;-1.5953
0000125524;13.4841;8.3749;-1.9609;2.0779;-0.3047;-1.8579
0000125532;12.4163;6.3375;-1.0846;2.1060;-0.8948;-1.9260
0000125544;11.7723;2.5522;-0.8499;1.2288;-1.1478;-1.6719
0000125552;11.1594;0.8571;-0.6728;0.4118;-1.0488;-1.3643
0000125564;10.3022;-0.8930;-0.3112;-0.8592;-0.7100;-0.7608
0000125572;10.3262;-1.7502;0.4310;-1.5687;-0.4246;-0.2930
0000125584;11.1737;-2.5426;1.4557;-2.2556;-0.0015;0.4097
0000125592;12.3349;-2.6169;2.6576;-2.4809;0.2086;0.7633
0000125604;13.8002;-2.9257;4.7262;-2.4200;0.2854;0.8981
0000125612;14.9997;-3.6871;5.7964;-2.2203;0.2321;0.8876
0000125624;16.6253;-4.6112;6.7445;-1.7997;0.1260;0.7501
0000125632;17.1042;-5.6192;6.9695;-1.4615;0.1051;0.6201
0000125640;17.9158;-6.2513;7.1204;-1.1001;0.0312;0.4763
0000125652;18.1672;-7.5178;6.6750;-0.6326;-0.0254;0.2859
0000125660;18.3492;-8.1547;6.0932;-0.4145;0.0197;0.1693
0000125672;18.5215;-8.6814;5.7820;-0.2738;0.1514;0.0667
0000125680;18.2749;-8.9830;5.7174;-0.2551;0.2807;0.0257
0000125692;17.1664;-8.9711;6.0478;-0.2397;0.5213;0.0101
0000125700;16.5008;-8.8178;5.7197;-0.1915;0.6772;0.0008
0000125712;15.2630;-8.1259;5.6264;-0.0184;0.8070;-0.0939
0000125720;14.7579;-7.0342;5.9137;0.1472;0.8099;-0.2060
0000125728;14.4490;-5.9903;6.1411;0.3163;0.7815;-0.3531
0000125796;12.9143;-6.7900;3.9409;-0.2032;0.8248;-0.0618
0000125805;12.8784;-7.0725;4.4053;-0.3162;0.8515;0.0236
0000125818;13.2902;-7.7213;5.8347;-0.4108;0.9060;0.0382
0000125827;13.6637;-8.3989;6.6176;-0.3922;0.9410;-0.0305
0000125840;13.3022;-9.3805;7.2161;-0.2705;1.0074;-0.1760
0000125849;12.9143;-9.8210;7.1395;-0.1488;1.0417;-0.2661
0000125862;12.5360;-9.6055;7.0749;0.0304;1.1121;-0.3746
0000125871;12.2966;-9.5840;6.6391;0.1545;1.1688;-0.4286
0000125884;12.4690;-8.8131;6.6942;0.3132;1.2450;-0.5156
0000125893;12.8856;-8.2552;7.1970;0.3648;1.2839;-0.5401
0000125902;12.7563;-7.9200;7.7548;0.4088;1.3197;-0.5724
0000125915;12.8377;-7.2736;8.3558;0.4305;1.2901;-0.5632
0000125924;13.2950;-6.9791;8.3103;0.4505;1.2740;-0.5610
0000125937;13.9223;-6.6128;8.6407;0.4843;1.2685;-0.5816
0000125946;14.1042;-6.1770;8.5736;0.4744;1.2594;-0.5598
0000125959;14.3006;-5.7652;7.3023;0.4739;1.3238;-0.5268
0000125968;13.8768;-5.6790;7.2903;0.4575;1.3809;-0.4828
0000125981;13.0364;-5.5737;7.5154;0.4016;1.5012;-0.4465
0000125990;12.1793;-5.3678;8.0349;0.3587;1.5898;-0.4310
0000125999;11.2360;-5.3534;8.4515;0.2978;1.6435;-0.4044
0000126012;10.3262;-5.3917;8.5617;0.2229;1.6237;-0.3750
0000126021;9.9024;-5.5522;8.5593;0.1881;1.5548;-0.3845
0000126090;9.2273;-4.1922;10.0221;0.2854;1.0624;-0.5253
0000126099;9.3925;-3.6176;10.0963;0.1923;1.0071;-0.5668
0000126112;9.3015;-3.0742;9.3709;0.0718;0.9254;-0.6201
0000126121;9.2033;-2.8371;9.0118;-0.0105;0.8460;-0.6275
0000126134;8.7460;-2.7222;8.4803;-0.1320;0.7522;-0.6289
0000126143;8.3677;-2.9951;8.4132;-0.2132;0.7029;-0.5993
0000126152;8.0469;-3.2633;8.4539;-0.3082;0.6688;-0.5608
0000126165;7.3215;-3.8882;8.7819;-0.3852;0.6107;-0.4692
0000126174;6.6152;-4.3598;9.2512;-0.3894;0.5341;-0.4058
0000126187;5.9711;-4.7716;9.5553;-0.3485;0.3708;-0.3059
0000126196;5.9185;-4.7669;9.6941;-0.2974;0.2393;-0.2518
0000126209;5.8155;-5.1475;9.2512;-0.2238;0.0528;-0.2266
0000126218;6.0956;-5.1882;9.0357;-0.1779;-0.0697;-0.2162
0000126231;6.5960;-5.4492;8.9639;-0.1247;-0.1948;-0.1643
0000126240;7.0844;-5.5450;8.9376;-0.0742;-0.2445;-0.1215
0000126249;7.8745;-5.6096;8.8298;-0.0097;-0.2646;-0.0650
0000126262;8.8992;-5.6479;8.9974;0.0842;-0.2278;0.0192
0000126271;9.1794;-5.5617;9.3829;0.1053;-0.1953;0.0693
0000126284;9.4715;-5.0949;9.6175;0.0949;-0.1623;0.1077
0000126293;9.6774;-4.9752;9.4403;0.0709;-0.1314;0.1423
0000126309;9.4355;-4.8554;9.3206;0.0558;-0.1251;0.1868
0000126318;9.2871;-5.0589;9.2680;0.0616;-0.1170;0.2093
0000126387;8.6526;-4.9153;9.0333;0.0041;-0.3289;0.2413
0000126396;9.0070;-4.8770;8.8992;-0.0226;-0.3724;0.2334
0000126405;9.1937;-5.0685;8.9136;-0.0297;-0.4110;0.2292
0000126417;9.9479;-5.0494;8.6838;-0.0373;-0.4329;0.2266
0000126426;10.1586;-5.3917;8.5114;-0.0320;-0.4401;0.2116
0000126439;10.9678;-5.3774;8.5880;-0.0111;-0.4363;0.1636
0000126448;10.9487;-5.5426;8.9016;0.0011;-0.4030;0.1287
0000126460;10.9726;-5.5952;8.7939;0.0203;-0.3435;0.0862
0000126469;10.8505;-5.5426;8.6886;0.0276;-0.2943;0.0671
0000126482;10.5321;-5.6216;8.7700;0.0456;-0.2485;0.0392
0000126491;10.4339;-5.4372;8.8753;0.0477;-0.2186;0.0272
0000126500;10.2927;-5.4803;8.9543;0.0546;-0.1807;0.0349
0000126512;9.9551;-5.5138;8.7915;0.0791;-0.1466;0.0584
0000126521;9.8210;-5.4731;8.7005;0.0953;-0.1195;0.0911
0000126534;10.3118;-5.2720;8.3773;0.1188;-0.0730;0.1210
0000126543;10.4842;-5.2337;8.2911;0.1296;-0.0236;0.1215
0000126555;10.9176;-5.3463;8.4348;0.1644;0.0372;0.0905
0000126564;11.4467;-5.0302;8.4683;0.1803;0.0954;0.0628
0000126633;9.7683;-4.2617;8.8202;0.0442;0.2641;0.0284
0000126642;9.3709;-4.3431;8.9112;-0.0015;0.2149;0.0093
0000126651;9.1267;-4.3742;8.8969;-0.0393;0.1498;-0.0217
0000126663;8.9735;-4.5562;8.9735;-0.0759;0.0826;-0.0545
0000126672;8.9352;-4.8770;8.8801;-0.0997;0.0350;-0.0659
0000126685;9.2967;-5.0877;8.9016;-0.1116;-0.0332;-0.1031
0000126694;9.7372;-5.2241;8.8035;-0.1054;-0.0604;-0.1455
0000126706;10.1610;-5.2529;8.8178;-0.0826;-0.0702;-0.1927
0000126715;10.4627;-5.0805;8.8705;-0.0757;-0.0424;-0.2049
0000126728;10.4196;-5.1020;8.7819;-0.0674;0.0112;-0.2038
0000126737;10.3717;-4.9081;8.8969;-0.0703;0.0485;-0.1913
0000126746;10.3837;-4.7908;8.9399;-0.0809;0.0862;-0.1659
0000126758;9.9120;-4.8291;8.9807;-0.0947;0.1155;-0.1396
0000126767;9.6462;-4.7812;8.9471;-0.1049;0.1259;-0.1307
0000126780;9.1315;-4.9464;9.0836;-0.1111;0.1295;-0.0985
0000126789;8.9256;-5.0781;9.1411;-0.1047;0.1098;-0.0883
0000126801;8.7771;-4.9632;9.1459;-0.0909;0.0830;-0.0831
0000126810;8.7939;-4.9201;9.1578;-0.0679;0.0432;-0.0823
0000126823;8.6526;-5.0733;9.1818;-0.0598;0.0083;-0.0601
0000126832;8.7867;-4.9440;9.1219;-0.0509;-0.0217;-0.0501
0000126841;8.8657;-4.8578;9.0764;-0.0618;-0.0429;-0.0249
0000126853;9.1267;-4.7525;9.0549;-0.0742;-0.0713;-0.0076
0000126862;9.3589;-4.6759;8.9830;-0.0830;-0.0898;-0.0027
0000126931;9.6055;-4.9201;8.9974;-0.1250;-0.1462;0.0097
0000126940;9.4810;-4.9847;9.0166;-0.1412;-0.1625;0.0104
0000126952;9.3853;-4.8698;8.9447;-0.1559;-0.1872;0.0109
0000126961;9.3948;-4.9321;8.7676;-0.1569;-0.2074;0.0096
0000126974;9.3111;-4.9416;8.8825;-0.1635;-0.2369;0.0144
0000126983;9.4739;-4.8171;8.8346;-0.1712;-0.2543;0.0171
0000126995;9.5385;-4.8698;8.8538;-0.1793;-0.2719;0.0199
0000127004;9.7157;-4.9368;8.9711;-0.1868;-0.2868;0.0168
0000127013;9.3158;-5.1523;8.9495;-0.1940;-0.3047;0.0221
0000127026;9.5385;-4.9943;8.9759;-0.2041;-0.3380;0.0143
0000127035;9.5768;-4.9823;8.8514;-0.2168;-0.3520;0.0217
0000127047;9.5577;-5.0039;8.9328;-0.2293;-0.3734;0.0278
0000127056;9.7396;-4.8722;9.0214;-0.2302;-0.3914;0.0234
0000127069;9.5577;-5.1906;9.0668;-0.2342;-0.4076;0.0313
0000127078;9.5768;-5.2936;8.9830;-0.2312;-0.4101;0.0396
0000127090;10.1155;-5.3295;8.8322;-0.2272;-0.3973;0.0542
0000127099;10.2687;-5.4013;8.7149;-0.2193;-0.3805;0.0713
0000127108;10.1825;-5.5689;8.6263;-0.2166;-0.3563;0.0775
0000127121;10.2663;-5.6958;8.5832;-0.1951;-0.3379;0.0777
0000127130;10.4028;-5.6767;8.6574;-0.1801;-0.3222;0.0835
0000127142;10.1873;-5.8682;8.6526;-0.1556;-0.3071;0.0905
0000127151;10.3956;-5.8179;8.6862;-0.1370;-0.3018;0.0838
0000127220;11.2025;-6.0741;8.5090;-0.0258;-0.1403;0.0574
0000127229;11.3964;-5.7892;8.5258;-0.0105;-0.1030;0.0506
0000127241;11.3294;-5.9137;8.4420;0.0060;-0.0633;0.0430
0000127250;11.2097;-5.8442;8.4755;0.0077;-0.0313;0.0304
0000127259;11.1450;-5.7078;8.4635;0.0137;-0.0192;0.0152
0000127272;11.1187;-5.6168;8.4635;0.0152;0.0125;-0.0029
0000127281;10.9702;-5.6838;8.5497;0.0167;0.0264;-0.0192
0000127293;10.9056;-5.6407;8.5784;0.0224;0.0425;-0.0329
0000127302;11.0875;-5.4803;8.5760;0.0167;0.0602;-0.0405
0000127315;10.9559;-5.4133;8.5784;0.0120;0.0750;-0.0558
0000127324;10.7978;-5.3917;8.6694;0.0076;0.0819;-0.0637
0000127336;10.7093;-5.3391;8.7508;0.0007;0.0879;-0.0763
0000127345;10.4411;-5.4277;8.7771;-0.0100;0.0879;-0.0819
0000127358;10.3837;-5.3678;8.8059;-0.0188;0.0799;-0.0861
0000127367;10.3286;-5.3367;8.7340;-0.0248;0.0743;-0.0873
0000127376;10.3525;-5.2577;8.9160;-0.0184;0.0621;-0.0925
0000127388;9.9910;-5.4420;8.8418;-0.0252;0.0569;-0.0937
0000127397;10.0269;-5.3774;8.7197;-0.0344;0.0565;-0.0870
0000127410;10.0461;-5.4229;8.8250;-0.0341;0.0569;-0.0694
0000127419;9.9311;-5.4923;8.6766;-0.0278;0.0436;-0.0657
0000127431;9.8617;-5.5498;8.7747;-0.0200;0.0220;-0.0552
0000127440;9.8569;-5.4971;8.7915;-0.0209;0.0119;-0.0517
0000127509;10.0461;-5.5019;8.9543;-0.0076;-0.0418;0.0017
0000127518;10.0580;-5.5210;8.8801;-0.0079;-0.0524;0.0012
0000127527;9.9982;-5.5210;8.8083;-0.0131;-0.0528;0.0089
0000127539;10.1801;-5.4396;8.7939;-0.0104;-0.0657;0.0069
0000127548;10.1538;-5.4827;8.7149;-0.0141;-0.0620;0.0131
0000127561;10.1634;-5.5641;8.6910;-0.0115;-0.0610;0.0132
0000127570;10.3358;-5.5833;8.7101;-0.0028;-0.0645;0.0049
0000127582;10.4603;-5.5043;8.7221;0.0003;-0.0617;0.0049
0000127591;10.5584;-5.4277;8.8418;-0.0031;-0.0457;0.0088
0000127604;10.4531;-5.6383;8.6742;-0.0075;-0.0461;0.0056
0000127613;10.7643;-5.2984;8.7101;-0.0057;-0.0464;-0.0055
0000127625;10.3860;-5.5833;8.7173;-0.0121;-0.0354;-0.0004
0000127634;10.6255;-5.5234;8.6766;-0.0124;-0.0249;-0.0077
0000127643;10.6590;-5.5330;8.6335;-0.0027;-0.0249;-0.0205
0000127656;10.3477;-5.6312;8.6814;-0.0113;-0.0064;-0.0143
0000127665;10.5393;-5.3870;8.6503;-0.0064;-0.0152;-0.0224
0000127677;10.4698;-5.4396;8.7724;-0.0020;-0.0065;-0.0242
0000127686;10.4890;-5.5689;8.7436;-0.0096;-0.0012;-0.0224
0000127699;10.3669;-5.4468;8.7412;-0.0119;0.0053;-0.0256
0000127708;10.2783;-5.5450;8.7005;-0.0105;0.0037;-0.0257
0000127720;10.2256;-5.6360;8.7628;-0.0096;0.0004;-0.0274
0000127729;10.1873;-5.6000;8.6670;-0.0048;-0.0064;-0.0357
0000127798;10.1658;-5.5617;8.7963;-0.0101;-0.0056;-0.0212
0000127807;10.1730;-5.4851;8.7843;-0.0124;-0.0099;-0.0173
0000127816;10.1586;-5.4827;8.8083;-0.0112;-0.0149;-0.0218
0000127827;9.9886;-5.6958;8.7293;-0.0117;-0.0096;-0.0159
0000127836;10.2927;-5.4324;8.7293;-0.0073;-0.0140;-0.0192
0000127850;10.3789;-5.4516;8.8155;-0.0064;-0.0111;-0.0132
0000127859;10.0173;-5.6623;8.8107;-0.0075;-0.0197;-0.0250
0000127872;10.0006;-5.6048;8.8633;-0.0019;-0.0257;-0.0221
0000127881;10.2017;-5.4851;8.7867;0.0011;-0.0298;-0.0221
0000127893;10.3286;-5.3295;8.8322;-0.0061;-0.0286;-0.0161
0000127902;10.2137;-5.5522;8.8801;-0.0080;-0.0342;-0.0144
0000127915;10.3094;-5.4708;8.7412;-0.0151;-0.0312;-0.0180
0000127924;10.4411;-5.4013;8.7843;-0.0156;-0.0268;-0.0095
0000127936;10.2927;-5.5929;8.7915;-0.0163;-0.0218;-0.0185
0000127945;10.4220;-5.3367;8.7915;-0.0215;-0.0175;-0.0180
0000127954;10.2328;-5.5162;8.8394;-0.0177;-0.0204;-0.0179
0000127967;10.2256;-5.4947;8.8155;-0.0209;-0.0261;-0.0179
0000127976;10.3214;-5.4157;8.7317;-0.0220;-0.0234;-0.0124
0000127988;10.2903;-5.3822;8.8107;-0.0265;-0.0304;-0.0132
0000127997;10.1610;-5.3175;8.7293;-0.0288;-0.0370;-0.0171
0000128010;10.0461;-5.4444;8.8490;-0.0292;-0.0350;-0.0176
0000128019;10.1945;-5.4923;8.7795;-0.0207;-0.0420;-0.0294
0000128088;10.1347;-5.5737;8.7915;-0.0553;-0.0622;-0.0115
0000128097;10.2472;-5.5234;8.7963;-0.0534;-0.0596;-0.0035
0000128110;10.1993;-5.4971;8.8705;-0.0470;-0.0715;-0.0128
0000128119;10.2711;-5.4731;8.7173;-0.0524;-0.0632;-0.0085
0000128131;10.3238;-5.4061;8.7987;-0.0477;-0.0731;-0.0101
0000128140;10.2208;-5.4899;8.7819;-0.0498;-0.0775;-0.0103
0000128149;10.1706;-5.5665;8.7532;-0.0433;-0.0797;-0.0091
0000128162;10.3908;-5.4564;8.7484;-0.0501;-0.0731;-0.0071
0000128171;10.2975;-5.4875;8.7364;-0.0441;-0.0698;0.0005
0000128183;10.3286;-5.4660;8.7891;-0.0434;-0.0594;0.0040
0000128192;10.4028;-5.5091;8.8226;-0.0349;-0.0618;-0.0008
0000128205;10.3214;-5.5115;8.7843;-0.0366;-0.0673;-0.0037
0000128214;10.3813;-5.5306;8.8466;-0.0328;-0.0721;-0.0047
0000128226;10.4196;-5.4660;8.7412;-0.0356;-0.0775;-0.0109
0000128235;10.4004;-5.4636;8.8370;-0.0338;-0.0781;-0.0121
0000128248;10.4675;-5.4636;8.6431;-0.0329;-0.0670;-0.0101
0000128257;10.4291;-5.5833;8.7532;-0.0286;-0.0596;-0.0056
0000128269;10.5824;-5.6144;8.6862;-0.0230;-0.0388;-0.0008
0000128278;10.7571;-5.4731;8.6335;-0.0236;-0.0261;-0.0033
0000128287;10.4986;-5.6024;8.7317;-0.0221;-0.0196;-0.0093
0000128300;10.3860;-5.7197;8.7628;-0.0196;-0.0179;-0.0171
0000128309;10.3884;-5.6360;8.7340;-0.0187;-0.0205;-0.0149
0000128378;10.3837;-5.5737;8.7388;0.0005;-0.0001;-0.0191
0000128387;10.2783;-5.6407;8.7245;-0.0036;-0.0056;-0.0217
0000128400;10.2232;-5.6886;8.7819;0.0021;-0.0060;-0.0199
0000128409;10.3621;-5.4899;8.7891;0.0019;-0.0081;-0.0237
0000128421;10.3837;-5.3846;8.7819;-0.0040;-0.0076;-0.0241
0000128430;10.2496;-5.5498;8.8274;-0.0103;-0.0131;-0.0256
0000128443;10.2065;-5.5450;8.7412;-0.0104;-0.0155;-0.0256
0000128452;10.0916;-5.5545;8.8226;-0.0143;-0.0132;-0.0148
0000128461;10.2089;-5.4444;8.7795;-0.0140;-0.0234;-0.0256
0000128473;10.1299;-5.4660;8.7484;-0.0117;-0.0268;-0.0204
0000128482;10.3238;-5.3582;8.7795;-0.0115;-0.0310;-0.0224
0000128495;10.3238;-5.4995;8.7269;-0.0127;-0.0318;-0.0183
0000128504;10.2137;-5.5833;8.8107;-0.0089;-0.0306;-0.0213
0000128516;10.4220;-5.5498;8.7340;-0.0044;-0.0309;-0.0145
0000128525;10.5417;-5.3893;8.7652;-0.0096;-0.0262;-0.0137
0000128538;10.2759;-5.6240;8.8585;-0.0055;-0.0344;-0.0149
0000128547;10.3837;-5.3870;8.8346;-0.0136;-0.0233;-0.0031
0000128559;10.1586;-5.6048;8.7556;-0.0157;-0.0276;-0.0047
0000128568;10.0485;-5.5713;8.8705;-0.0144;-0.0320;-0.0060
0000128581;10.4267;-5.5138;8.8011;-0.0173;-0.0314;-0.0065
0000128590;10.1586;-5.6120;8.8274;-0.0161;-0.0334;-0.0132
0000128599;10.2448;-5.6216;8.7628;-0.0133;-0.0341;-0.0149
0000128668;10.2951;-5.5474;8.7939;-0.0145;-0.0201;-0.0113
0000128677;10.2951;-5.6503;8.8226;-0.0141;-0.0277;-0.0241
0000128690;10.3094;-5.4708;8.7939;-0.0160;-0.0278;-0.0165
0000128699;10.2113;-5.6479;8.7867;-0.0168;-0.0266;-0.0168
0000128711;10.3286;-5.5258;8.7436;-0.0183;-0.0237;-0.0160
0000128720;10.3094;-5.4779;8.6957;-0.0184;-0.0180;-0.0099
0000128733;10.4507;-5.4779;8.7604;-0.0092;-0.0262;-0.0220
0000128742;10.2807;-5.5115;8.7987;-0.0083;-0.0265;-0.0184
0000128754;10.3094;-5.3630;8.7891;-0.0083;-0.0265;-0.0177
0000128763;10.2639;-5.4636;8.8178;-0.0085;-0.0268;-0.0140
0000128776;10.1706;-5.5234;8.8777;-0.0172;-0.0248;-0.0116
0000128785;10.2161;-5.5569;8.8298;-0.0173;-0.0305;-0.0147
0000128794;10.2208;-5.5378;8.7987;-0.0237;-0.0252;-0.0101
0000128806;10.2017;-5.5306;8.7460;-0.0203;-0.0284;-0.0148
0000128815;10.2999;-5.4564;8.8083;-0.0179;-0.0312;-0.0129
0000128828;10.2999;-5.5019;8.8155;-0.0115;-0.0380;-0.0157
0000128837;10.1011;-5.6000;8.7700;-0.0195;-0.0336;-0.0087
0000128849;10.2448;-5.5354;8.7245;-0.0183;-0.0369;-0.0148
0000128858;10.2161;-5.4923;8.8921;-0.0185;-0.0361;-0.0195
0000128871;10.3142;-5.4803;8.7460;-0.0189;-0.0372;-0.0141
0000128880;10.1754;-5.6479;8.6526;-0.0097;-0.0430;-0.0230
0000128949;10.3262;-5.6551;8.7388;-0.0108;-0.0280;-0.0131
0000128956;10.4148;-5.5929;8.7652;-0.0145;-0.0256;-0.0108
0000128968;10.2352;-5.6527;8.7963;-0.0143;-0.0249;-0.0089
0000128976;10.3573;-5.4971;8.7053;-0.0080;-0.0266;-0.0123
