time;acc_x;acc_y;acc_z;gyro_x;gyro_y;gyro_z
0000551670;5.4779;2.8970;1.6137;0.0398;-0.8242;-0.0657
0000551679;5.5138;2.8276;1.6496;0.0469;-0.8454;-0.0663
0000551686;5.4348;2.9353;1.6257;0.0526;-0.8651;-0.0685
0000551694;5.3008;2.8204;1.7190;0.0526;-0.8879;-0.0739
0000551705;5.5067;2.8778;1.4653;0.0570;-0.9177;-0.0883
0000551713;5.6192;2.8898;1.4293;0.0500;-0.9370;-0.0982
0000551721;5.6527;2.8515;1.4198;0.0485;-0.9631;-0.1100
0000551789;5.8682;3.1220;1.3982;0.0553;-1.0920;-0.1051
0000551797;5.8083;3.0095;1.4892;0.0513;-1.1052;-0.1095
0000551808;5.8371;2.9999;1.4844;0.0432;-1.1167;-0.1007
0000551816;5.8921;3.0406;1.4365;0.0460;-1.1361;-0.0973
0000551828;5.8706;3.0023;1.5610;0.0482;-1.1511;-0.0902
0000551836;5.9496;2.9832;1.5107;0.0577;-1.1519;-0.0834
0000551847;5.9352;2.8515;1.5634;0.0702;-1.1650;-0.0838
0000551855;5.9711;2.9568;1.5562;0.0783;-1.1668;-0.0807
0000551863;5.8778;2.8347;1.4078;0.0823;-1.1812;-0.0769
0000551875;5.9592;2.9329;1.5371;0.0851;-1.1822;-0.0691
0000551883;5.7892;2.8850;1.4126;0.0865;-1.1852;-0.0653
0000551894;6.1962;3.0430;1.3767;0.0913;-1.1908;-0.0661
0000551902;5.7892;2.9473;1.4700;0.0903;-1.1858;-0.0630
0000551914;6.0549;3.0861;1.3575;0.0851;-1.1892;-0.0612
0000551922;6.1196;3.0215;1.4317;0.0775;-1.1823;-0.0586
0000551930;5.9903;3.0263;1.3719;0.0754;-1.1780;-0.0525
0000551941;6.3207;3.0215;1.4246;0.0841;-1.1760;-0.0612
0000551949;6.1339;3.0023;1.3934;0.0850;-1.1688;-0.0601
0000551961;6.3279;3.0191;1.3886;0.0863;-1.1564;-0.0497
0000551969;6.4189;3.1173;1.3719;0.0747;-1.1361;-0.0408
0000551980;6.2513;3.0430;1.3168;0.0767;-1.1263;-0.0458
0000551988;6.1723;3.0742;1.3336;0.0620;-1.1137;-0.0393
0000552055;6.2728;3.1867;1.3336;-0.0484;-1.0477;-0.0697
0000552063;6.2896;3.0742;1.3001;-0.0516;-1.0488;-0.0698
0000552071;6.2393;3.0502;1.3240;-0.0544;-1.0347;-0.0610
0000552082;6.0238;3.1484;1.1947;-0.0655;-1.0452;-0.0581
0000552090;5.9209;3.0622;1.2546;-0.0810;-1.0401;-0.0520
0000552102;6.0501;3.1149;1.2498;-0.1001;-1.0567;-0.0568
0000552110;6.1794;3.0646;1.2019;-0.1010;-1.0708;-0.0652
0000552121;6.2249;3.0047;1.2067;-0.1107;-1.0690;-0.0606
0000552129;6.3231;2.9497;1.3599;-0.1014;-1.0632;-0.0630
0000552141;6.6774;3.1029;1.3312;-0.1098;-1.0564;-0.0642
0000552149;6.7900;3.0263;1.4174;-0.1087;-1.0504;-0.0661
0000552157;6.9073;3.0335;1.3336;-0.1167;-1.0228;-0.0650
0000552168;6.7373;3.0406;1.4724;-0.1250;-1.0130;-0.0751
0000552176;6.4428;2.9161;1.4413;-0.1310;-1.0044;-0.0790
0000552188;6.7157;3.2848;1.4892;-0.1406;-0.9787;-0.0722
0000552196;6.8139;3.1939;1.4102;-0.1447;-0.9822;-0.0759
0000552207;6.8283;3.1173;1.5012;-0.1531;-0.9666;-0.0673
0000552215;7.1371;3.0933;1.6137;-0.1669;-0.9389;-0.0601
0000552227;7.4268;2.8563;1.7406;-0.1688;-0.9136;-0.0741
0000552235;7.6734;2.8994;1.6520;-0.1519;-0.8864;-0.0897
0000552243;7.6088;2.5618;1.6089;-0.1363;-0.8418;-0.0971
0000552254;8.0972;2.4876;1.6999;-0.1099;-0.7927;-0.1147
0000552262;8.2672;2.4517;1.5897;-0.0935;-0.7382;-0.1231
0000552330;7.9224;2.9233;0.8116;0.1989;-0.1400;0.0258
0000552338;7.9009;3.0718;0.7470;0.1998;-0.0839;0.0494
0000552349;7.7812;3.1819;0.6249;0.1876;-0.0372;0.0517
0000552357;7.6878;3.2633;0.7111;0.1595;-0.0129;0.0600
0000552369;7.5154;3.3854;0.8260;0.1171;-0.0012;0.0382
0000552377;7.4460;3.3567;0.8667;0.0830;-0.0073;0.0228
0000552385;7.1539;3.2082;0.8188;0.0512;-0.0225;-0.0052
0000552396;7.1251;3.3447;1.0175;0.0067;-0.0438;-0.0389
0000552404;6.9599;3.2154;1.1851;-0.0201;-0.0773;-0.0678
0000552416;6.7253;3.0742;1.3431;-0.0477;-0.1021;-0.0869
0000552424;6.8714;3.3184;1.2929;-0.0442;-0.1163;-0.0903
0000552435;6.5625;3.1795;1.1708;-0.0320;-0.1251;-0.0750
0000552443;6.7516;3.1771;1.2905;-0.0204;-0.1206;-0.0600
0000552451;6.8331;3.0478;1.2617;0.0031;-0.1034;-0.0326
0000552463;7.1228;3.0358;1.1732;0.0313;-0.0698;-0.0032
0000552471;6.9839;2.6767;1.2378;0.0360;-0.0354;0.0144
0000552482;7.1180;3.0023;1.1588;0.0374;-0.0037;0.0294
0000552490;6.9887;2.9880;1.1157;0.0233;0.0184;0.0409
0000552502;6.7373;3.2106;1.2163;0.0120;0.0252;0.0562
0000552510;6.4620;3.1771;1.1636;0.0047;0.0244;0.0620
0000552518;6.3925;3.3543;1.2713;-0.0055;0.0143;0.0745
0000552530;6.4620;3.3519;1.2857;-0.0159;-0.0124;0.0738
0000552538;6.5027;3.3543;1.3599;-0.0281;-0.0266;0.0822
0000552606;6.7636;2.9951;1.4844;-0.0895;-0.0184;0.0659
0000552614;6.7876;3.1077;1.5371;-0.0882;-0.0103;0.0679
0000552625;6.6726;2.9233;1.5610;-0.0793;-0.0044;0.0717
0000552633;6.6822;2.9760;1.5610;-0.0794;0.0103;0.0817
0000552645;6.7325;2.8874;1.5993;-0.0790;0.0120;0.0729
0000552653;6.6391;2.9856;1.6783;-0.0719;0.0085;0.0702
0000552661;6.5817;2.8922;1.5897;-0.0691;0.0127;0.0749
0000552672;6.7325;3.0095;1.6281;-0.0673;0.0135;0.0721
0000552680;6.7397;2.9904;1.5107;-0.0731;0.0215;0.0798
0000552692;6.7062;2.9521;1.5012;-0.0569;0.0222;0.0843
0000552700;6.7109;2.8994;1.4293;-0.0634;0.0250;0.0919
0000552711;6.8618;3.3686;1.3767;-0.0845;0.0333;0.0851
0000552719;6.8259;3.6081;1.3408;-0.1242;0.0417;0.0661
0000552727;7.0437;3.9385;1.4365;-0.1732;0.0589;0.0301
0000552739;7.1539;4.0965;1.5060;-0.2571;0.1079;-0.0326
0000552747;7.0605;3.7733;1.7071;-0.3106;0.1351;-0.0801
0000552758;6.9001;3.3902;2.0255;-0.3600;0.1708;-0.1116
0000552766;6.8642;2.9042;2.1931;-0.3599;0.1695;-0.1194
0000552778;5.9735;1.8938;2.1428;-0.2980;0.1420;-0.0781
0000552786;5.6647;1.6903;1.9920;-0.2405;0.0839;-0.0457
0000552794;5.0326;1.5395;1.9417;-0.1804;0.0084;0.0005
0000552806;3.9935;1.0846;1.8100;-0.0817;-0.1428;0.0681
0000552814;3.6081;0.9912;1.7262;0.0069;-0.2585;0.1091
0000552882;7.0126;4.6471;0.4645;0.2734;-1.0016;-0.0917
0000552890;7.8051;4.6519;0.5698;0.2783;-0.9627;-0.1187
0000552901;8.2049;4.1061;0.6656;0.2936;-0.9002;-0.1752
0000552909;8.2576;3.6559;0.7087;0.2900;-0.8485;-0.2016
0000552917;7.8985;3.2417;0.7111;0.2811;-0.8003;-0.2182
0000552929;7.7285;3.0023;0.9577;0.2533;-0.7176;-0.2266
0000552937;7.4053;2.9233;1.0175;0.2354;-0.6716;-0.2144
0000552948;7.0390;2.7797;1.0846;0.2196;-0.6294;-0.1929
0000552956;6.8283;2.6887;1.1085;0.2137;-0.6066;-0.1673
0000552968;7.2856;3.1484;1.0343;0.2061;-0.5736;-0.1228
0000552976;7.3574;3.1891;1.0199;0.2004;-0.5520;-0.1039
0000552987;7.5202;3.3806;0.9313;0.1747;-0.5053;-0.0833
0000552995;7.6806;3.6057;0.8763;0.1472;-0.4758;-0.0791
0000553003;7.5848;3.6895;1.0391;0.1144;-0.4361;-0.0755
0000553015;7.5465;3.7110;0.9936;0.0632;-0.3960;-0.0775
0000553023;7.3789;3.8092;1.0487;0.0286;-0.3733;-0.0841
0000553034;7.4627;3.7804;0.9290;-0.0135;-0.3545;-0.0959
0000553042;7.4364;3.6871;1.0223;-0.0625;-0.3287;-0.0931
0000553054;7.5776;3.4716;1.0056;-0.1033;-0.3068;-0.0877
0000553062;7.7045;3.3040;0.9673;-0.1239;-0.2762;-0.0762
0000553074;7.6064;3.0622;1.0127;-0.1448;-0.2399;-0.0557
0000553082;7.6423;3.0047;1.1612;-0.1502;-0.2208;-0.0492
0000553090;7.6279;2.8922;1.1420;-0.1467;-0.2038;-0.0457
0000553158;7.9775;2.9233;1.3838;-0.1371;0.0222;0.0393
0000553166;8.2456;3.0047;1.4748;-0.1328;0.0548;0.0328
0000553178;8.2456;2.9760;1.4437;-0.1263;0.1170;0.0493
0000553186;8.2504;2.9856;1.4748;-0.1199;0.1620;0.0573
0000553197;8.2337;2.9568;1.4174;-0.1001;0.2204;0.0677
0000553205;8.3677;3.0550;1.4078;-0.0885;0.2639;0.0842
0000553213;8.3414;3.0502;1.2809;-0.0785;0.3227;0.1045
0000553225;8.2744;3.1508;1.1372;-0.0814;0.4159;0.1406
0000553233;8.2959;3.0885;1.0534;-0.0889;0.4742;0.1516
0000553244;8.7747;3.4836;0.9361;-0.1183;0.5738;0.1636
0000553252;8.6215;3.3423;0.9625;-0.1474;0.6488;0.1765
0000553264;8.7149;3.4141;1.0822;-0.2026;0.7775;0.1637
0000553272;8.5976;3.4979;1.2498;-0.2260;0.8679;0.1608
0000553280;8.3629;3.2801;1.2929;-0.2567;0.9534;0.1615
0000553291;8.0421;3.1508;1.5275;-0.2663;1.0507;0.1556
0000553299;7.7189;2.9066;1.6209;-0.2735;1.0844;0.1510
0000553311;7.0533;2.6217;1.7310;-0.2434;1.0817;0.1419
0000553319;6.4715;2.3343;1.8603;-0.1859;1.0497;0.1314
0000553330;5.6934;2.0039;1.9178;-0.0858;0.9799;0.1308
0000553338;5.0733;1.8435;1.8866;0.0091;0.9029;0.1275
0000553346;4.4341;1.7885;1.7765;0.1074;0.8064;0.1299
0000553358;3.8738;1.6424;1.2498;0.2406;0.6186;0.1295
0000553366;3.5147;1.5897;0.9218;0.3100;0.4706;0.1394
0000553434;6.0621;4.0725;0.6680;0.2955;-0.3360;0.1848
0000553442;6.7229;4.3862;0.5866;0.2851;-0.3547;0.1310
0000553454;7.4915;4.4867;0.7542;0.2779;-0.3681;0.0121
0000553462;7.5753;4.3742;0.7949;0.2727;-0.3523;-0.0504
0000553470;7.3119;3.8475;0.8140;0.2852;-0.3396;-0.1132
0000553481;7.0366;3.5650;0.8260;0.2826;-0.3401;-0.1696
0000553489;6.7588;3.3375;0.8021;0.2589;-0.3371;-0.1740
0000553501;6.3662;3.1173;0.8380;0.2209;-0.3679;-0.1740
0000553509;6.2896;3.0502;0.9385;0.1861;-0.3846;-0.1627
0000553520;6.3758;3.0263;0.9002;0.1503;-0.4189;-0.1588
0000553528;6.4835;3.0598;0.9960;0.1422;-0.4513;-0.1667
0000553536;6.7756;3.3088;1.0630;0.1248;-0.4671;-0.1499
0000553548;6.9288;3.2896;1.0032;0.1035;-0.4772;-0.1338
0000553556;7.1156;3.5698;0.9840;0.0669;-0.4730;-0.1164
0000553567;7.2592;3.4309;0.9313;0.0153;-0.4545;-0.0974
0000553575;7.4124;3.5434;0.8667;-0.0183;-0.4373;-0.0845
0000553587;7.7069;3.5482;0.9050;-0.0652;-0.4005;-0.0562
0000553595;7.6255;3.4237;1.0295;-0.0793;-0.3810;-0.0502
0000553606;7.7309;3.4620;1.1157;-0.0997;-0.3369;-0.0372
0000553614;7.6255;3.3279;1.2091;-0.1199;-0.3035;-0.0217
0000553622;7.7931;3.3064;1.1061;-0.1322;-0.2822;-0.0284
0000553634;7.6878;3.0430;1.1325;-0.1555;-0.2406;-0.0242
0000553642;7.8841;3.1843;1.2498;-0.1623;-0.2113;-0.0204
0000553709;7.3334;2.7294;1.2833;-0.0618;-0.0416;0.0048
0000553717;7.4172;2.9760;1.3120;-0.0518;-0.0264;0.0103
0000553729;7.1802;2.8491;1.3575;-0.0324;-0.0055;0.0112
0000553737;7.2209;2.9928;1.2306;-0.0310;0.0184;0.0105
0000553748;7.0390;2.9568;1.2426;-0.0120;0.0254;0.0013
0000553756;7.2832;3.0813;1.2570;-0.0113;0.0289;-0.0016
0000553764;7.1658;3.3327;1.2330;0.0009;0.0457;-0.0057
0000553776;7.2640;3.0167;1.1516;0.0064;0.0597;-0.0123
0000553784;7.2927;3.0598;1.0582;0.0051;0.0838;-0.0044
0000553795;7.4244;2.8683;1.1875;0.0124;0.1088;-0.0053
0000553803;7.5465;2.9113;1.1109;0.0163;0.1280;-0.0037
0000553815;7.4460;2.8850;1.0127;0.0200;0.1703;0.0065
0000553823;7.7261;2.9018;1.0463;0.0145;0.2009;0.0125
0000553831;7.5298;2.9760;1.0391;0.0116;0.2158;0.0127
0000553842;7.4412;3.1220;0.9409;0.0107;0.2376;0.0119
0000553850;7.4053;3.2657;0.8763;0.0024;0.2486;0.0041
0000553862;7.1443;3.2130;0.8595;-0.0040;0.2653;-0.0016
0000553870;7.0318;3.1508;0.9864;-0.0025;0.2706;-0.0021
0000553881;7.0533;3.1196;0.8452;0.0019;0.2722;-0.0061
0000553889;6.9432;3.0311;0.8595;-0.0045;0.2790;-0.0027
0000553897;7.0557;3.0885;0.8380;-0.0165;0.2783;-0.0075
0000553909;7.1419;3.0215;0.8045;-0.0256;0.2687;-0.0249
0000553917;7.2233;3.0263;0.8643;-0.0380;0.2713;-0.0284
0000553985;7.4364;3.0502;1.0127;-0.0366;0.3507;0.0180
0000553993;7.3813;3.0694;0.8164;-0.0336;0.3729;0.0224
0000554005;7.4436;3.0263;0.7949;-0.0211;0.3945;0.0245
0000554013;7.3885;2.9185;0.7973;-0.0077;0.4020;0.0221
0000554021;7.1898;2.8898;0.7374;-0.0031;0.4081;0.0278
0000554032;7.0461;2.9951;0.6871;0.0109;0.4097;0.0272
0000554040;6.6511;2.7725;0.6488;0.0213;0.4057;0.0289
0000554052;6.4715;2.9736;0.6560;0.0385;0.3853;0.0274
0000554060;6.5553;2.8802;0.5578;0.0412;0.3736;0.0300
0000554071;6.7900;3.2825;0.6321;0.0341;0.3584;0.0215
0000554079;6.6415;3.1484;0.5219;0.0316;0.3383;0.0161
0000554087;6.6391;3.3184;0.5076;0.0124;0.3269;0.0156
0000554099;6.8977;3.2992;0.4764;-0.0035;0.3068;0.0125
0000554107;6.8139;3.3232;0.5124;-0.0183;0.3031;0.0165
0000554118;7.0102;3.2657;0.5626;-0.0368;0.2878;0.0109
0000554126;6.8211;3.1556;0.5794;-0.0452;0.2769;0.0107
0000554138;6.8426;3.0837;0.5363;-0.0532;0.2695;0.0092
0000554146;6.7636;3.0550;0.5962;-0.0518;0.2463;0.0041
0000554154;6.7660;3.0263;0.6800;-0.0517;0.2332;0.0055
0000554165;6.5194;2.9425;0.5507;-0.0524;0.2104;0.0016
0000554173;6.6487;2.8491;0.5435;-0.0464;0.1990;0.0077
0000554185;6.5481;2.9616;0.5411;-0.0361;0.1739;0.0056
0000554193;6.6128;3.1220;0.5052;-0.0290;0.1525;-0.0033
0000554261;6.6295;3.1747;0.4717;-0.0606;0.0147;-0.0324
0000554269;6.6319;3.0933;0.4142;-0.0518;-0.0055;-0.0345
0000554277;6.5673;3.0933;0.3807;-0.0474;-0.0216;-0.0338
0000554289;6.7062;2.8898;0.3256;-0.0446;-0.0360;-0.0402
0000554297;6.9528;3.0765;0.3472;-0.0414;-0.0562;-0.0485
0000554309;6.6056;2.9832;0.2825;-0.0425;-0.0581;-0.0517
0000554317;6.8307;3.1268;0.2059;-0.0390;-0.0713;-0.0605
0000554329;6.6559;3.1173;0.1700;-0.0558;-0.0829;-0.0557
0000554337;6.5170;2.9904;0.1844;-0.0705;-0.0906;-0.0577
0000554348;6.7277;3.0478;0.3208;-0.0757;-0.0946;-0.0529
0000554356;6.7373;3.1939;0.2514;-0.0751;-0.1067;-0.0580
0000554364;6.7109;3.1077;0.2658;-0.0769;-0.1150;-0.0598
0000554376;6.5841;2.9664;0.2059;-0.0831;-0.1235;-0.0550
0000554384;6.7109;3.0981;0.2514;-0.0827;-0.1375;-0.0606
0000554395;6.7588;2.9233;0.2083;-0.0926;-0.1362;-0.0553
0000554403;6.6535;2.8922;0.2442;-0.0981;-0.1324;-0.0478
0000554415;6.6798;2.9951;0.0910;-0.1007;-0.1435;-0.0425
0000554423;6.8283;2.9185;0.1077;-0.1111;-0.1448;-0.0429
0000554434;6.6990;3.0047;0.0575;-0.1160;-0.1576;-0.0482
0000554442;6.8666;3.1723;0.0862;-0.1263;-0.1545;-0.0450
0000554450;6.8091;2.9473;0.1772;-0.1548;-0.1525;-0.0485
0000554462;6.8283;3.0933;0.1628;-0.1544;-0.1560;-0.0474
0000554470;6.9336;3.1125;0.1077;-0.1627;-0.1639;-0.0521
0000554538;6.9384;2.9305;-0.2298;-0.1864;-0.1260;-0.0173
0000554546;6.7995;2.9425;-0.2514;-0.2092;-0.1282;-0.0137
0000554557;6.7684;2.9281;-0.2705;-0.2390;-0.1486;-0.0205
0000554565;6.7804;3.0406;-0.2131;-0.2785;-0.1486;-0.0212
0000554577;6.6774;2.7749;-0.1006;-0.3180;-0.1577;-0.0294
0000554585;6.9145;2.8491;-0.1413;-0.3376;-0.1565;-0.0281
0000554596;7.0844;2.5546;-0.1484;-0.3368;-0.1536;-0.0237
0000554604;7.0294;2.1093;-0.0742;-0.3210;-0.1404;-0.0165
0000554612;7.1251;2.1859;0.0192;-0.3092;-0.1350;-0.0121
0000554624;6.9192;1.9896;0.0622;-0.2813;-0.1235;0.0104
0000554632;6.6894;2.0494;0.0335;-0.2581;-0.1224;0.0185
0000554643;6.7516;1.9585;0.1748;-0.2326;-0.1192;0.0357
0000554651;6.6463;1.8914;0.1101;-0.2120;-0.1140;0.0436
0000554663;6.6152;1.8435;0.2274;-0.2046;-0.0906;0.0810
0000554671;6.7732;1.7190;0.2059;-0.1911;-0.0746;0.1029
0000554679;6.9001;1.4054;0.0120;-0.1633;-0.0518;0.1211
0000554690;6.9863;1.0606;0.0383;-0.1259;-0.0204;0.1486
0000554698;6.8594;1.0008;-0.0670;-0.0913;0.0027;0.1741
0000554710;6.7852;1.2617;-0.1556;-0.0586;0.0260;0.2037
0000554718;6.7014;1.2067;-0.2442;-0.0300;0.0438;0.2121
0000554786;5.2457;0.3879;-0.1844;0.0809;-0.0954;0.2545
0000554794;5.6192;0.4022;-0.1604;0.0683;-0.1049;0.2827
0000554806;6.5697;0.6105;0.0287;0.0608;-0.1003;0.2761
0000554814;7.2736;0.5986;-0.0024;0.0573;-0.0878;0.2697
0000554822;7.7309;0.5291;-0.0838;0.0460;-0.0406;0.2562
0000554833;8.2145;0.3687;-0.0670;0.0424;0.0308;0.2337
0000554841;8.2911;0.4262;-0.0622;0.0112;0.0882;0.2406
0000554853;7.7524;0.3663;-0.2107;-0.0410;0.1648;0.2513
0000554861;7.2712;0.2418;-0.3112;-0.0954;0.1847;0.2669
0000554872;6.7038;-0.0096;-0.3448;-0.1486;0.1420;0.3060
0000554880;6.2776;-0.5363;-0.5722;-0.1966;0.0770;0.3134
0000554888;6.3542;-0.2969;-0.8595;-0.2449;0.0240;0.2974
0000554900;6.4476;-0.1508;-1.2306;-0.2659;0.0220;0.2915
0000554908;6.7971;-0.0599;-1.2833;-0.2549;0.0580;0.3170
0000554919;7.4915;0.6608;-1.1875;-0.2212;0.0887;0.3689
0000554927;7.5226;1.2929;-1.3001;-0.2312;0.1208;0.3965
0000554939;7.6160;1.8627;-1.5730;-0.3313;0.1577;0.4266
0000554947;7.0964;1.4676;-1.4676;-0.4016;0.1617;0.4429
0000554958;6.4117;0.9194;-1.0965;-0.4199;0.1283;0.4545
0000554966;5.7197;0.4357;-0.8404;-0.4033;0.0893;0.4310
0000554974;5.1739;0.0503;-0.7446;-0.3583;0.0354;0.3929
0000554986;5.3151;0.0886;-1.0391;-0.2789;-0.0843;0.3243
0000554994;5.4492;0.6752;-1.0942;-0.2698;-0.1605;0.2659
0000555062;5.6958;-1.2641;3.9552;-1.3418;-0.1037;0.1471
0000555070;6.0669;-1.5490;4.3838;-1.4999;-0.1110;0.0502
0000555082;6.7133;-2.0375;4.2042;-1.7810;-0.1494;-0.1049
0000555090;7.1012;-3.1340;4.1228;-1.9690;-0.1958;-0.2058
0000555101;7.6974;-3.8978;3.1412;-2.2203;-0.2894;-0.2442
0000555109;8.8514;-3.8427;2.0518;-2.3497;-0.3786;-0.2054
0000555117;10.1897;-3.4477;1.2474;-2.5219;-0.5488;-0.1247
0000555129;14.2623;-1.1851;-2.0806;-2.6224;-0.8599;-0.0105
0000555137;18.7945;5.0398;-6.8019;-2.6075;-0.9209;0.0742
0000555149;28.2612;39.4014;-4.0941;-3.8746;-0.7809;0.1737
0000555157;22.1128;68.1007;-5.7581;-3.5448;-0.5846;-0.6618
0000555169;-3.6416;33.0424;-14.1402;-3.5026;1.7479;-0.6988
0000555177;-1.6712;2.3990;0.8380;-4.3625;2.7801;0.3808
0000555188;14.4777;-13.5871;12.4929;-4.0576;2.9691;1.1439
0000555196;19.2207;-11.5664;13.6661;-4.0576;3.0558;1.0770
0000555208;15.0356;-3.0742;12.2463;-4.3657;2.9112;0.9826
0000555216;8.5066;-0.3328;9.9335;-4.3657;2.6839;0.7175
0000555227;-0.9936;-5.5043;8.2624;-4.3657;2.0956;0.1178
0000555235;-5.0111;-11.6669;10.5489;-4.3657;1.6272;-0.2467
0000555243;-4.4365;-15.1481;10.1610;-4.3657;1.3787;-0.4187
0000555255;0.5794;-11.6957;5.5905;-3.1983;1.1229;-0.6562
0000555263;2.5283;-7.2616;1.1803;-2.9499;0.9145;-0.7914
0000555331;7.5417;1.9225;4.7214;-4.3657;0.1394;0.5019
0000555339;8.6862;2.0782;5.1763;-3.4857;0.1002;0.5845
0000555351;9.2201;-4.3455;7.0342;-2.6285;0.1660;0.3640
0000555359;7.5705;-18.0236;15.1290;-2.1513;0.2701;0.1735
0000555370;6.6726;-35.0367;19.8024;-1.4040;0.7073;-0.1363
0000555378;7.3358;-34.9003;18.9645;-1.0365;0.9152;-0.4943
0000555386;6.5673;-24.7225;18.3109;-1.2957;0.9010;-0.7405
0000555398;4.5586;-5.9927;20.3699;-2.0761;0.3139;-0.4345
0000555406;2.6624;-3.6727;23.7529;-3.5081;0.2662;-0.4098
0000555417;4.5322;-9.5936;32.9514;-4.3657;0.4790;-0.4183
0000555425;5.1691;-18.2725;41.4915;-4.3657;0.4191;-0.5364
0000555437;4.3287;-27.1886;43.1866;-3.3975;0.4962;-0.5103
0000555445;4.6232;-21.7561;30.6434;-1.7112;0.5941;-0.3365
0000555456;3.9768;-11.9854;17.1185;-1.1434;0.7933;-0.3403
0000555464;3.7302;-7.1635;11.0684;-1.7852;0.8584;-0.3745
0000555476;3.0478;-4.3981;7.6088;-3.0214;0.7244;-0.2797
0000555484;2.3846;-2.8539;6.4835;-2.7075;0.5343;-0.1151
0000555492;1.6041;-3.8451;7.9320;-1.7130;0.2463;0.1104
0000555504;1.3479;-6.5410;7.4460;-0.6371;0.1589;0.1549
0000555512;1.2977;-8.6981;6.3997;-0.6692;0.1455;-0.0076
0000555524;0.2131;-12.7683;5.3103;-1.5299;-0.1676;-0.4006
0000555532;-1.1037;-14.7172;5.7150;-1.9661;-0.4610;-0.6082
0000555600;8.6646;-11.7483;9.2296;-0.5157;-0.5865;-0.1103
0000555608;8.4874;-12.1266;8.6335;-0.3223;-0.4891;-0.1423
0000555620;7.8961;-12.0716;8.0661;-0.0392;-0.3949;-0.0869
0000555628;7.4268;-11.9231;7.5753;-0.0081;-0.3778;0.0051
0000555639;6.9480;-11.2192;7.0174;-0.0217;-0.4082;0.0981
0000555647;6.6655;-11.1570;6.0334;-0.0457;-0.4243;0.1175
0000555655;7.2305;-10.4914;7.2065;-0.0408;-0.3841;0.1144
0000555667;7.7309;-10.1370;7.0820;0.0713;-0.2935;0.0749
0000555675;8.3677;-10.0221;7.0413;0.1268;-0.2395;0.0244
0000555686;9.2225;-10.3262;7.5920;0.2228;-0.1487;-0.0786
0000555694;9.5313;-10.5632;8.0493;0.3203;-0.0714;-0.1467
0000555706;9.8952;-10.6446;8.3127;0.4239;0.0093;-0.2174
0000555714;9.5313;-10.6135;8.3606;0.4350;0.0493;-0.2479
0000555726;8.7364;-10.2424;8.5258;0.3596;0.0893;-0.2710
0000555734;7.8961;-10.2376;9.0812;0.3095;0.1096;-0.2467
0000555742;7.3885;-10.2879;9.5553;0.3087;0.1147;-0.2029
0000555754;6.8235;-10.3310;9.9575;0.3615;0.0977;-0.1372
0000555762;6.6128;-10.6303;10.2185;0.4250;0.0849;-0.0985
0000555774;6.5960;-10.3022;10.2615;0.5673;0.0725;-0.0127
0000555782;6.6152;-10.3430;10.3884;0.6632;0.0914;0.0232
0000555794;6.7277;-10.0892;9.8952;0.8466;0.1411;0.0015
0000555802;6.9145;-9.8306;9.4092;0.8673;0.1791;-0.0524
0000555870;5.6814;-7.9775;10.3573;0.6658;0.4695;0.0261
0000555878;5.1715;-7.7476;10.2472;0.5961;0.4571;0.0398
0000555886;4.5921;-7.6974;10.1849;0.5100;0.4080;0.0564
0000555898;3.2417;-7.6231;9.8043;0.3637;0.2718;0.1055
0000555906;2.5833;-7.4340;9.7564;0.2950;0.1431;0.1304
0000555918;2.0303;-7.3981;9.5792;0.2427;-0.0416;0.1426
0000555926;1.7621;-7.3909;9.4068;0.2466;-0.1484;0.1311
0000555938;2.5809;-8.0972;9.2895;0.3007;-0.3773;0.0987
0000555946;3.6679;-8.4515;8.8992;0.3262;-0.5454;0.0560
0000555958;5.8059;-8.4994;8.5569;0.3091;-0.7268;-0.0278
0000555966;7.0892;-8.4300;8.4683;0.2819;-0.7458;-0.0878
0000555974;7.7812;-8.3199;8.2193;0.2573;-0.7237;-0.1603
0000555986;8.4228;-8.2456;7.9200;0.1699;-0.6161;-0.2505
0000555994;8.7317;-8.0828;8.0637;0.1103;-0.5004;-0.2891
0000556006;9.1171;-8.1642;9.2225;0.1708;-0.1848;-0.3431
0000556014;9.3805;-8.2911;9.4260;0.3054;0.0628;-0.3527
0000556026;9.5289;-7.8123;8.9543;0.4603;0.3079;-0.3030
0000556034;9.4906;-7.6064;8.7532;0.5021;0.3937;-0.2113
0000556046;8.7101;-6.9815;8.5904;0.4365;0.4682;-0.0433
0000556054;7.7141;-6.4404;9.0692;0.3247;0.5093;0.0301
0000556062;6.3686;-5.8323;9.9024;0.2077;0.5504;0.0055
0000556074;3.5506;-4.7166;10.6111;-0.0253;0.5492;-0.1370
0000556082;1.6975;-4.1396;10.3765;-0.1680;0.4330;-0.2530
0000556150;8.9423;-6.9360;8.3366;-0.1569;-0.2447;0.1741
0000556158;9.6247;-7.2520;8.1499;-0.2294;-0.1218;0.1296
0000556170;9.8689;-7.4675;8.2911;-0.3652;0.0775;0.0408
0000556178;9.7061;-7.6758;8.3797;-0.4570;0.1868;0.0075
0000556186;9.3541;-7.9152;8.7293;-0.5243;0.2537;0.0143
0000556198;7.2425;-8.5353;9.2584;-0.5123;0.3307;0.0785
0000556206;6.0549;-8.7293;9.4284;-0.4451;0.3227;0.1326
0000556218;4.8219;-9.0309;9.4068;-0.3110;0.2529;0.2232
0000556226;4.3215;-9.1578;9.4715;-0.2289;0.1804;0.2630
0000556238;4.2234;-9.0597;9.3278;-0.1375;0.0678;0.2517
0000556246;4.4125;-9.0261;9.1674;-0.1162;0.0041;0.1961
0000556258;4.7621;-8.8969;9.2009;-0.1264;-0.0813;0.0637
0000556266;5.3032;-8.8059;9.2680;-0.1346;-0.1176;-0.0155
0000556274;5.5689;-8.7915;9.3613;-0.1334;-0.1500;-0.0723
0000556286;5.8227;-8.6000;9.5409;-0.1128;-0.1647;-0.0886
0000556294;6.1483;-8.4276;9.6007;-0.0914;-0.1659;-0.0821
0000556306;6.3470;-8.3989;9.6893;-0.1055;-0.1420;-0.0558
0000556314;6.4739;-8.3103;9.6726;-0.1310;-0.1152;-0.0440
0000556326;6.3901;-8.7819;9.6869;-0.1581;-0.0729;-0.0466
0000556334;6.2944;-9.0884;9.5529;-0.1518;-0.0416;-0.0596
0000556346;6.0549;-9.3015;9.4715;-0.0902;-0.0148;-0.0842
0000556354;5.9472;-9.2943;9.2392;-0.0406;-0.0059;-0.0817
0000556423;5.6695;-7.9296;9.5074;-0.0156;-0.1110;-0.0931
0000556431;5.7892;-8.0589;9.5433;-0.0127;-0.1299;-0.0963
0000556439;5.9664;-8.3222;9.4164;0.0041;-0.1350;-0.0838
0000556451;6.0214;-8.3055;9.5098;0.0462;-0.1484;-0.0614
0000556459;6.0190;-8.1738;9.4236;0.0605;-0.1545;-0.0521
0000556471;6.2920;-8.0230;9.4595;0.0632;-0.1522;-0.0444
0000556479;6.2560;-7.8458;9.4499;0.0473;-0.1456;-0.0426
0000556491;6.3159;-7.6734;9.3350;0.0175;-0.1388;-0.0360
0000556499;6.2034;-7.7309;9.5409;-0.0013;-0.1302;-0.0308
0000556511;6.6008;-7.5154;9.3877;-0.0305;-0.1033;-0.0099
0000556519;6.4380;-7.6878;9.3757;-0.0402;-0.0821;-0.0047
0000556527;6.5098;-7.7979;9.3781;-0.0526;-0.0685;-0.0013
0000556539;6.4428;-7.9751;9.3063;-0.0697;-0.0480;-0.0048
0000556547;6.4715;-8.0373;9.4427;-0.0713;-0.0422;-0.0073
0000556559;6.3087;-8.1762;9.3757;-0.0693;-0.0366;-0.0081
0000556567;6.3877;-7.9799;9.3685;-0.0719;-0.0269;0.0007
0000556579;6.3351;-8.1834;9.4619;-0.0742;-0.0257;0.0076
0000556587;6.2177;-8.2313;9.4834;-0.0798;-0.0203;0.0175
0000556599;6.1627;-8.2887;9.4188;-0.0719;-0.0143;0.0147
0000556607;6.2369;-8.2839;9.3948;-0.0715;-0.0103;0.0137
0000556615;6.0406;-8.4851;9.4308;-0.0674;-0.0140;-0.0005
0000556627;6.2034;-8.2576;9.4284;-0.0592;-0.0041;0.0044
0000556635;6.1842;-8.3941;9.4140;-0.0544;-0.0015;-0.0045
0000556703;6.1076;-8.3989;9.3637;-0.0430;-0.0116;-0.0172
0000556712;5.9711;-8.4300;9.4523;-0.0398;-0.0065;-0.0168
0000556725;5.9903;-8.3653;9.3589;-0.0270;-0.0113;-0.0181
0000556734;5.9520;-8.3773;9.3948;-0.0179;-0.0193;-0.0317
0000556747;5.8969;-8.2049;9.4930;-0.0068;-0.0305;-0.0349
0000556756;5.7964;-8.2456;9.4523;-0.0075;-0.0437;-0.0349
0000556769;5.9089;-8.0589;9.5577;-0.0152;-0.0429;-0.0281
0000556778;5.9951;-8.0852;9.4858;-0.0199;-0.0508;-0.0298
0000556787;5.9855;-8.1451;9.4930;-0.0173;-0.0521;-0.0282
0000556800;6.1244;-8.0397;9.4858;-0.0362;-0.0482;-0.0286
0000556809;5.9424;-8.2839;9.3781;-0.0446;-0.0577;-0.0346
0000556822;6.0549;-8.2624;9.4164;-0.0454;-0.0560;-0.0336
0000556831;6.0478;-8.4204;9.4810;-0.0410;-0.0549;-0.0253
0000556844;6.1339;-8.2217;9.3039;-0.0342;-0.0533;-0.0241
0000556853;6.3351;-8.0948;9.3254;-0.0333;-0.0584;-0.0226
0000556866;6.1339;-8.0780;9.3805;-0.0438;-0.0582;-0.0199
0000556875;6.2465;-8.1068;9.3996;-0.0478;-0.0586;-0.0189
0000556888;6.1938;-8.0565;9.3709;-0.0593;-0.0588;-0.0137
0000556897;6.1603;-8.2887;9.4140;-0.0761;-0.0496;-0.0025
0000556906;6.3710;-8.1930;9.3565;-0.0749;-0.0446;-0.0157
0000556919;6.3351;-8.4084;9.4619;-0.0683;-0.0326;-0.0115
0000556928;6.3087;-8.4396;9.4212;-0.0641;-0.0276;-0.0125
0000556997;6.1076;-8.3007;9.3877;-0.0356;-0.0294;-0.0101
0000557006;5.9640;-8.3222;9.3039;-0.0318;-0.0392;-0.0123
0000557019;6.0980;-8.2528;9.3996;-0.0485;-0.0326;-0.0093
0000557028;6.2632;-8.2169;9.4116;-0.0509;-0.0432;-0.0191
0000557041;5.9640;-8.5473;9.4978;-0.0500;-0.0430;-0.0171
0000557050;6.0837;-8.4420;9.3877;-0.0477;-0.0384;-0.0120
0000557063;6.0621;-8.3773;9.5265;-0.0393;-0.0405;-0.0105
0000557072;6.1483;-8.3031;9.3565;-0.0413;-0.0405;-0.0081
0000557081;6.0861;-8.4276;9.4355;-0.0349;-0.0413;-0.0129
0000557094;6.0334;-8.2552;9.4068;-0.0406;-0.0393;-0.0111
0000557103;6.1004;-8.2456;9.3901;-0.0472;-0.0420;-0.0120
0000557116;6.0645;-8.2528;9.4355;-0.0441;-0.0468;-0.0124
0000557125;6.1363;-8.1906;9.4044;-0.0549;-0.0450;-0.0057
0000557138;6.0813;-8.3534;9.4882;-0.0588;-0.0441;-0.0059
0000557147;6.1746;-8.2959;9.4858;-0.0508;-0.0410;-0.0103
0000557160;6.1076;-8.4731;9.3996;-0.0389;-0.0486;-0.0169
0000557169;6.0406;-8.3989;9.4523;-0.0378;-0.0390;-0.0124
0000557182;6.1627;-8.2911;9.3901;-0.0398;-0.0324;-0.0161
0000557191;6.1818;-8.3989;9.3398;-0.0345;-0.0374;-0.0205
0000557200;6.0142;-8.3845;9.3901;-0.0469;-0.0342;-0.0149
0000557213;6.2824;-8.3510;9.4906;-0.0458;-0.0333;-0.0121
0000557222;6.0980;-8.4563;9.3829;-0.0334;-0.0382;-0.0177
0000557291;6.0023;-8.5377;9.4188;-0.0372;-0.0381;-0.0100
0000557300;6.1411;-8.3606;9.3685;-0.0345;-0.0457;-0.0091
0000557316;5.9448;-8.5114;9.4092;-0.0369;-0.0345;-0.0023
0000557325;6.1483;-8.2432;9.3685;-0.0320;-0.0440;-0.0080
0000557338;6.0765;-8.3845;9.3781;-0.0337;-0.0382;-0.0076
0000557347;6.2872;-8.2528;9.4595;-0.0270;-0.0452;-0.0089
0000557359;6.1148;-8.3629;9.2727;-0.0372;-0.0384;-0.0040
0000557368;6.0693;-8.4348;9.3613;-0.0333;-0.0464;-0.0112
0000557377;6.0980;-8.2983;9.3326;-0.0397;-0.0450;-0.0115
0000557390;6.0023;-8.3869;9.3757;-0.0509;-0.0388;-0.0116
0000557399;6.0406;-8.4156;9.4739;-0.0522;-0.0372;-0.0091
0000557411;6.0980;-8.3558;9.4140;-0.0456;-0.0448;-0.0164
0000557420;6.2441;-8.3821;9.4786;-0.0486;-0.0384;-0.0123
0000557433;6.1627;-8.5138;9.3709;-0.0428;-0.0449;-0.0181
0000557442;6.0693;-8.5162;9.3230;-0.0461;-0.0406;-0.0133
0000557454;6.1220;-8.4683;9.3446;-0.0484;-0.0393;-0.0087
0000557463;6.1435;-8.3246;9.3350;-0.0418;-0.0480;-0.0115
0000557472;6.0813;-8.4994;9.2344;-0.0418;-0.0408;-0.0072
0000557541;6.1387;-8.3749;9.4810;-0.0628;-0.0394;-0.0012
0000557550;6.1459;-8.3701;9.4068;-0.0568;-0.0377;-0.0011
0000557562;6.0837;-8.6407;9.3685;-0.0504;-0.0385;-0.0055
0000557571;6.0310;-8.6455;9.2727;-0.0376;-0.0426;-0.0092
0000557584;6.2680;-8.5042;9.3134;-0.0412;-0.0380;-0.0060
0000557593;6.1914;-8.5928;9.3901;-0.0392;-0.0429;-0.0091
0000557605;6.2297;-8.5210;9.3446;-0.0353;-0.0426;-0.0108
0000557614;6.4141;-8.3869;9.3518;-0.0345;-0.0404;-0.0101
0000557627;5.9927;-8.6407;9.3637;-0.0312;-0.0381;-0.0144
0000557636;5.8802;-8.6526;9.4499;-0.0354;-0.0304;-0.0119
0000557645;6.0765;-8.5425;9.4020;-0.0282;-0.0340;-0.0103
0000557657;6.2201;-8.4491;9.3518;-0.0277;-0.0260;-0.0131
0000557666;5.9664;-8.6119;9.3398;-0.0256;-0.0342;-0.0112
0000557679;6.2417;-8.4013;9.3134;-0.0217;-0.0286;-0.0107
0000557688;6.1746;-8.4420;9.4140;-0.0193;-0.0373;-0.0177
0000557700;6.0645;-8.5066;9.2273;-0.0294;-0.0309;-0.0107
0000557709;6.1483;-8.3749;9.3254;-0.0277;-0.0349;-0.0116
0000557722;6.1268;-8.4563;9.3039;-0.0361;-0.0309;-0.0139
0000557731;6.2393;-8.4563;9.3972;-0.0309;-0.0328;-0.0157
0000557743;5.9711;-8.4300;9.4068;-0.0309;-0.0356;-0.0208
0000557752;6.0430;-8.4587;9.3063;-0.0382;-0.0334;-0.0149
0000557761;6.1363;-8.3629;9.3853;-0.0370;-0.0350;-0.0147
0000557829;6.0597;-8.5808;9.3278;-0.0300;-0.0325;-0.0073
0000557838;6.0693;-8.7101;9.3326;-0.0254;-0.0352;-0.0143
0000557850;6.1483;-8.5090;9.3302;-0.0341;-0.0316;-0.0059
0000557859;6.0621;-8.5066;9.3230;-0.0286;-0.0376;-0.0135
0000557872;6.1627;-8.5018;9.3781;-0.0261;-0.0388;-0.0151
0000557881;6.0861;-8.5042;9.3805;-0.0316;-0.0329;-0.0055
0000557893;6.0573;-8.7412;9.3685;-0.0328;-0.0304;-0.0069
0000557902;6.1914;-8.4300;9.2823;-0.0302;-0.0393;-0.0097
0000557915;6.0980;-8.4922;9.3972;-0.0336;-0.0353;-0.0141
0000557924;6.1148;-8.5497;9.3087;-0.0360;-0.0369;-0.0117
0000557933;6.1603;-8.5066;9.4355;-0.0296;-0.0370;-0.0153
0000557945;6.2513;-8.4970;9.4068;-0.0300;-0.0384;-0.0133
0000557954;6.1579;-8.5712;9.3134;-0.0196;-0.0366;-0.0180
0000557967;6.0071;-8.8178;9.4355;-0.0268;-0.0296;-0.0136
0000557976;5.9735;-8.5928;9.3613;-0.0218;-0.0349;-0.0189
0000557988;6.1220;-8.4994;9.3398;-0.0228;-0.0384;-0.0159
0000557997;6.2034;-8.4970;9.3853;-0.0288;-0.0318;-0.0100
0000558010;6.0885;-8.7029;9.3781;-0.0341;-0.0321;-0.0081
0000558019;6.1746;-8.4108;9.2656;-0.0340;-0.0369;-0.0184
0000558031;6.1268;-8.5617;9.3302;-0.0345;-0.0368;-0.0172
0000558040;6.2369;-8.5090;9.2823;-0.0318;-0.0394;-0.0157
0000558049;6.1746;-8.4731;9.4164;-0.0288;-0.0329;-0.0173
0000558118;6.2106;-8.5090;9.3015;-0.0400;-0.0306;-0.0071
0000558127;6.2130;-8.4874;9.2895;-0.0341;-0.0353;-0.0093
0000558139;6.2680;-8.4372;9.3661;-0.0312;-0.0308;-0.0104
0000558148;6.2369;-8.4108;9.2368;-0.0216;-0.0401;-0.0217
0000558161;6.1387;-8.5641;9.4092;-0.0245;-0.0354;-0.0234
0000558170;6.1196;-8.4300;9.4092;-0.0304;-0.0365;-0.0143
0000558182;6.0956;-8.5545;9.4763;-0.0282;-0.0365;-0.0116
0000558191;6.0693;-8.4970;9.4236;-0.0302;-0.0388;-0.0136
0000558204;6.2249;-8.5449;9.4092;-0.0356;-0.0320;-0.0084
0000558213;6.1076;-8.5090;9.3589;-0.0418;-0.0317;-0.0113
0000558222;6.1124;-8.6479;9.3709;-0.0425;-0.0306;-0.0109
0000558234;6.1890;-8.6119;9.2201;-0.0392;-0.0278;-0.0128
0000558243;6.1890;-8.5665;9.3039;-0.0320;-0.0356;-0.0187
0000558256;6.1890;-8.7436;9.2560;-0.0305;-0.0356;-0.0189
0000558265;6.1363;-8.6311;9.2823;-0.0358;-0.0356;-0.0131
0000558277;6.1363;-8.7747;9.2751;-0.0328;-0.0284;-0.0141
0000558286;6.0023;-8.6742;9.3781;-0.0241;-0.0342;-0.0200
0000558299;6.3207;-8.4300;9.2967;-0.0252;-0.0316;-0.0165
0000558308;6.0286;-8.5952;9.3302;-0.0313;-0.0256;-0.0095
0000558317;6.1363;-8.6526;9.3446;-0.0216;-0.0332;-0.0129
0000558329;6.2896;-8.5234;9.3541;-0.0276;-0.0256;-0.0136
0000558338;6.2465;-8.6503;9.3374;-0.0181;-0.0337;-0.0196
0000558407;6.1268;-8.6359;9.3111;-0.0321;-0.0269;-0.0153
0000558416;6.0885;-8.5258;9.3134;-0.0258;-0.0260;-0.0172
0000558428;6.0549;-8.6191;9.2943;-0.0300;-0.0328;-0.0160
0000558437;5.9209;-8.7077;9.3302;-0.0313;-0.0316;-0.0152
0000558450;6.1842;-8.6095;9.3230;-0.0346;-0.0336;-0.0155
0000558459;6.0908;-8.6359;9.3661;-0.0320;-0.0301;-0.0123
0000558471;6.2776;-8.5186;9.4020;-0.0312;-0.0289;-0.0120
0000558480;6.1723;-8.5665;9.4092;-0.0284;-0.0346;-0.0149
0000558489;6.1579;-8.6503;9.3565;-0.0277;-0.0268;-0.0133
0000558502;5.9999;-8.7747;9.3805;-0.0253;-0.0266;-0.0067
0000558511;6.0406;-8.6910;9.3134;-0.0221;-0.0288;-0.0167
0000558523;6.1459;-8.6191;9.3422;-0.0211;-0.0320;-0.0129
0000558532;6.0621;-8.6718;9.3230;-0.0207;-0.0364;-0.0149
0000558545;6.0693;-8.6383;9.3182;-0.0217;-0.0296;-0.0141
0000558554;6.0621;-8.8107;9.3326;-0.0193;-0.0320;-0.0103
0000558566;6.2465;-8.5090;9.3398;-0.0199;-0.0341;-0.0169
0000558575;6.1770;-8.5976;9.3733;-0.0245;-0.0264;-0.0121
0000558588;6.1483;-8.5114;9.4116;-0.0164;-0.0345;-0.0172
0000558597;6.0238;-8.7532;9.3015;-0.0180;-0.0308;-0.0089
0000558606;6.2704;-8.4851;9.3039;-0.0157;-0.0336;-0.0117
0000558618;6.0334;-8.5976;9.3733;-0.0289;-0.0289;-0.0071
0000558627;6.3375;-8.4779;9.3589;-0.0221;-0.0330;-0.0153
0000558696;5.9975;-8.8155;9.3134;-0.0248;-0.0272;-0.0144
0000558705;6.1986;-8.6550;9.2847;-0.0218;-0.0341;-0.0141
0000558717;6.1076;-8.6383;9.2225;-0.0203;-0.0330;-0.0129
0000558726;6.1866;-8.6383;9.2344;-0.0280;-0.0304;-0.0135
0000558739;6.0382;-8.6167;9.2560;-0.0336;-0.0292;-0.0136
0000558748;6.2249;-8.5712;9.3015;-0.0314;-0.0380;-0.0175
0000558759;6.2728;-8.6048;9.3302;-0.0332;-0.0330;-0.0149
0000558768;6.0286;-8.6574;9.3781;-0.0298;-0.0404;-0.0171
0000558777;6.1172;-8.7005;9.4260;-0.0321;-0.0321;-0.0105
0000558791;6.1890;-8.7029;9.4810;-0.0207;-0.0397;-0.0148
0000558800;6.2872;-8.5976;9.4164;-0.0177;-0.0340;-0.0167
0000558813;6.2441;-8.4994;9.4212;-0.0107;-0.0349;-0.0196
0000558822;6.3375;-8.5473;9.3134;-0.0197;-0.0257;-0.0157
0000558834;6.0813;-8.6742;9.3134;-0.0246;-0.0236;-0.0092
0000558843;6.0047;-8.6718;9.2464;-0.0270;-0.0360;-0.0167
0000558856;5.9855;-8.6957;9.1770;-0.0310;-0.0302;-0.0087
0000558865;6.0789;-8.6550;9.1746;-0.0207;-0.0377;-0.0164
0000558877;6.1555;-8.6526;9.3015;-0.0234;-0.0306;-0.0181
0000558886;6.0430;-8.6503;9.4523;-0.0298;-0.0293;-0.0157
0000558895;6.1411;-8.6263;9.3972;-0.0252;-0.0337;-0.0177
0000558908;6.0406;-8.6311;9.3087;-0.0300;-0.0377;-0.0124
0000558917;6.1076;-8.5473;9.3877;-0.0384;-0.0268;-0.0067
0000558987;6.1483;-8.7364;9.3039;-0.0207;-0.0418;-0.0140
0000558996;6.2560;-8.5665;9.2991;-0.0228;-0.0320;-0.0156
0000559009;6.1387;-8.7053;9.2871;-0.0234;-0.0394;-0.0169
0000559018;6.1866;-8.7891;9.3972;-0.0207;-0.0376;-0.0132
0000559030;6.0837;-8.6024;9.3302;-0.0164;-0.0316;-0.0155
0000559039;6.0286;-8.7700;9.3470;-0.0125;-0.0365;-0.0129
0000559052;6.2417;-8.6550;9.3063;-0.0057;-0.0370;-0.0141
0000559061;6.2225;-8.7053;9.3398;-0.0107;-0.0316;-0.0081
0000559070;5.9903;-8.7819;9.4020;0.0024;-0.0401;-0.0151
0000559082;6.1699;-8.6287;9.3805;-0.0033;-0.0386;-0.0095
0000559091;6.0980;-8.6048;9.3470;-0.0092;-0.0441;-0.0112
0000559104;6.1339;-8.5569;9.3494;-0.0181;-0.0406;-0.0140
0000559113;6.0813;-8.5928;9.2847;-0.0209;-0.0386;-0.0127
0000559125;6.1914;-8.5712;9.3613;-0.0277;-0.0344;-0.0133
0000559134;6.2896;-8.6072;9.2799;-0.0272;-0.0381;-0.0179
0000559147;6.0430;-8.7580;9.4643;-0.0228;-0.0349;-0.0159
0000559156;6.1411;-8.5569;9.3398;-0.0183;-0.0417;-0.0187
0000559165;6.0861;-8.7436;9.3518;-0.0200;-0.0305;-0.0076
0000559177;6.1507;-8.6167;9.3733;-0.0169;-0.0346;-0.0117
0000559186;6.1603;-8.6335;9.3134;-0.0095;-0.0368;-0.0165
0000559199;6.2297;-8.6095;9.2943;-0.0136;-0.0344;-0.0104
0000559206;6.2249;-8.6455;9.3518;-0.0169;-0.0317;-0.0083
