time;acc_x;acc_y;acc_z;gyro_x;gyro_y;gyro_z
0000729179;7.2257;3.2298;0.5770;0.0402;-0.0530;-0.0051
0000729187;6.9240;3.0430;0.6608;0.0370;-0.0533;-0.0004
0000729194;6.9935;3.0311;0.6201;0.0385;-0.0506;0.0044
0000729202;6.9576;2.8706;0.6632;0.0450;-0.0617;-0.0060
0000729211;7.0246;2.9161;0.6249;0.0404;-0.0550;-0.0013
0000729219;7.1850;3.1771;0.5938;0.0352;-0.0596;0.0015
0000729227;7.0006;3.1053;0.5842;0.0402;-0.0600;-0.0025
0000729239;7.1778;3.1699;0.5722;0.0272;-0.0552;0.0007
0000729247;7.0342;3.0885;0.5794;0.0272;-0.0556;-0.0044
0000729258;7.0773;3.0742;0.5243;0.0229;-0.0612;-0.0003
0000729266;7.0342;3.0239;0.6033;0.0260;-0.0592;0.0013
0000729278;7.0797;3.1220;0.6153;0.0269;-0.0613;-0.0013
0000729286;7.0964;3.1412;0.5722;0.0181;-0.0581;0.0048
0000729297;7.0461;3.0837;0.5578;0.0300;-0.0663;-0.0060
0000729305;7.2042;3.1987;0.6105;0.0217;-0.0592;-0.0021
0000729313;7.1730;2.9999;0.5291;0.0261;-0.0640;-0.0033
0000729325;7.0916;3.0837;0.5650;0.0256;-0.0661;-0.0040
0000729333;7.2305;2.9736;0.6656;0.0189;-0.0597;0.0005
0000729400;7.1754;3.0718;0.4717;0.0119;-0.0505;0.0025
0000729408;7.1036;3.1867;0.5100;0.0084;-0.0476;0.0039
0000729420;7.2042;3.0358;0.5339;-0.0001;-0.0457;0.0052
0000729428;7.0964;3.0358;0.5890;-0.0023;-0.0401;0.0028
0000729436;7.1299;3.1244;0.4764;0.0039;-0.0456;-0.0019
0000729447;7.0916;3.1316;0.5674;0.0016;-0.0433;0.0024
0000729455;7.3047;3.1173;0.5507;0.0059;-0.0421;0.0024
0000729467;7.1802;3.0885;0.5267;0.0028;-0.0474;0.0056
0000729475;7.0437;3.0143;0.5315;-0.0033;-0.0426;0.0108
0000729486;7.2113;3.1436;0.4812;0.0017;-0.0410;0.0036
0000729494;7.0629;3.0478;0.5100;-0.0048;-0.0425;0.0003
0000729502;7.2449;3.1029;0.4453;-0.0069;-0.0460;-0.0033
0000729514;7.1036;3.0095;0.4669;-0.0047;-0.0437;0.0033
0000729522;7.0342;3.0646;0.4669;-0.0076;-0.0517;-0.0039
0000729533;7.0892;3.1436;0.5363;-0.0069;-0.0577;-0.0089
0000729541;7.0940;3.0909;0.4956;-0.0160;-0.0542;-0.0021
0000729553;6.9456;2.9736;0.5315;-0.0215;-0.0533;-0.0028
0000729561;6.9264;2.8706;0.5794;-0.0236;-0.0494;-0.0072
0000729572;7.0988;3.1316;0.5483;-0.0248;-0.0514;-0.0037
0000729580;7.0797;3.1220;0.5650;-0.0262;-0.0528;-0.0048
0000729588;7.1299;3.0981;0.5626;-0.0207;-0.0613;-0.0151
0000729600;7.0773;2.8994;0.5962;-0.0180;-0.0529;-0.0096
0000729608;7.0773;3.0382;0.6943;-0.0148;-0.0577;-0.0139
0000729675;7.1970;2.9975;0.6105;-0.0120;-0.0466;-0.0169
0000729683;7.2233;3.0646;0.5459;-0.0096;-0.0489;-0.0165
0000729695;7.1563;3.1819;0.4836;-0.0137;-0.0486;-0.0140
0000729703;7.0413;2.9760;0.5842;-0.0218;-0.0486;-0.0096
0000729714;7.0342;2.9856;0.6297;-0.0165;-0.0538;-0.0156
0000729722;7.1611;3.2178;0.5507;-0.0220;-0.0498;-0.0055
0000729730;7.2305;2.9521;0.4956;-0.0262;-0.0416;-0.0075
0000729742;7.2257;3.0191;0.5100;-0.0173;-0.0456;-0.0045
0000729750;7.0557;2.9353;0.5171;-0.0117;-0.0382;-0.0083
0000729761;7.1778;2.9329;0.5746;-0.0087;-0.0401;-0.0075
0000729769;7.1180;2.9568;0.5507;-0.0085;-0.0378;-0.0121
0000729781;7.1658;3.0167;0.5866;-0.0104;-0.0356;-0.0165
0000729789;7.1802;2.9616;0.5363;-0.0024;-0.0392;-0.0195
0000729800;7.1587;3.1508;0.4932;-0.0032;-0.0364;-0.0199
0000729808;7.1874;2.9401;0.5004;-0.0031;-0.0394;-0.0136
0000729816;7.0533;3.0311;0.4956;0.0005;-0.0410;-0.0140
0000729828;7.0366;3.0095;0.5818;-0.0031;-0.0350;-0.0043
0000729836;7.1539;3.0047;0.5938;0.0004;-0.0400;-0.0092
0000729847;7.0964;2.9568;0.5626;0.0048;-0.0446;-0.0089
0000729855;7.1012;3.0023;0.5674;-0.0036;-0.0402;-0.0028
0000729867;7.3598;3.1101;0.5866;0.0072;-0.0460;-0.0009
0000729875;7.2305;2.9904;0.4549;0.0052;-0.0421;-0.0023
0000729943;7.1563;3.0813;0.4214;-0.0073;-0.0506;-0.0083
0000729951;7.0725;3.0861;0.4621;-0.0069;-0.0537;-0.0040
0000729959;7.0413;3.0358;0.4741;-0.0123;-0.0460;0.0047
0000729971;7.1156;2.9592;0.5171;-0.0125;-0.0484;0.0016
0000729979;7.2257;3.0478;0.4166;-0.0217;-0.0461;0.0079
0000729990;7.2065;3.2537;0.3400;-0.0420;-0.0448;0.0071
0000729998;7.0701;3.0382;0.5794;-0.0273;-0.0513;-0.0025
0000730010;7.1491;2.9209;0.4286;-0.0257;-0.0561;-0.0108
0000730018;7.3454;3.2681;0.5195;-0.0195;-0.0516;-0.0009
0000730029;7.2018;3.0358;0.5986;-0.0220;-0.0500;-0.0013
0000730037;7.0485;2.8850;0.5148;-0.0215;-0.0469;-0.0036
0000730045;7.1204;2.9042;0.5818;-0.0143;-0.0518;-0.0059
0000730057;7.3885;3.1747;0.4669;-0.0141;-0.0502;-0.0055
0000730065;7.1898;2.9832;0.5267;-0.0133;-0.0506;-0.0007
0000730076;7.2137;3.0885;0.4836;-0.0127;-0.0526;-0.0012
0000730084;7.1204;2.9880;0.5267;-0.0095;-0.0490;0.0020
0000730096;7.1563;3.0239;0.5004;-0.0093;-0.0525;-0.0005
0000730104;7.0629;2.9113;0.5746;-0.0151;-0.0481;0.0059
0000730115;7.1419;3.1436;0.5459;-0.0051;-0.0592;0.0004
0000730123;7.1228;2.9975;0.4621;-0.0075;-0.0508;0.0053
0000730131;7.2018;3.0909;0.5986;-0.0048;-0.0532;0.0009
0000730143;7.2951;3.1196;0.4932;-0.0057;-0.0536;0.0055
0000730151;7.1970;3.0406;0.5028;-0.0011;-0.0529;0.0031
0000730219;7.2329;3.0718;0.5650;-0.0211;-0.0810;-0.0016
0000730227;7.1778;3.1101;0.5890;-0.0286;-0.0781;0.0028
0000730239;7.1299;3.0933;0.4549;-0.0400;-0.0859;0.0059
0000730247;7.0318;2.9832;0.6225;-0.0537;-0.0914;0.0061
0000730255;7.1012;3.0813;0.6584;-0.0658;-0.0847;0.0067
0000730266;7.0964;3.0311;0.6321;-0.0392;-0.0943;-0.0003
0000730274;7.3789;3.2657;0.6201;-0.0464;-0.0905;0.0041
0000730286;7.1539;3.1053;0.5435;-0.0549;-0.1051;-0.0060
0000730294;7.0174;3.1220;0.5004;-0.0665;-0.1045;0.0011
0000730305;7.1802;3.1077;0.5315;-0.0711;-0.1138;-0.0089
0000730313;7.0892;3.0622;0.5339;-0.0705;-0.1160;-0.0076
0000730325;7.2018;3.0335;0.5674;-0.0678;-0.1139;-0.0029
0000730333;7.3478;3.1125;0.6393;-0.0610;-0.1174;-0.0084
0000730341;7.2712;2.9784;0.5794;-0.0612;-0.1196;-0.0053
0000730352;7.2640;2.9592;0.6560;-0.0610;-0.1167;-0.0024
0000730360;7.2640;2.9497;0.6201;-0.0554;-0.1098;-0.0027
0000730372;7.3406;2.8850;0.5818;-0.0522;-0.1002;-0.0059
0000730380;7.2640;2.9281;0.6057;-0.0441;-0.1047;-0.0151
0000730391;7.3406;2.9018;0.5842;-0.0430;-0.0989;-0.0109
0000730399;7.4029;3.2010;0.5076;-0.0433;-0.0979;-0.0107
0000730411;7.2209;3.0502;0.5483;-0.0330;-0.0955;-0.0089
0000730419;7.2257;3.0071;0.5363;-0.0326;-0.0866;-0.0016
0000730427;7.3023;3.0694;0.5602;-0.0338;-0.0847;-0.0031
0000730495;7.0677;3.0382;0.4669;-0.0502;-0.0866;-0.0124
0000730503;7.4723;3.1843;0.5339;-0.0308;-0.0814;-0.0049
0000730515;7.3119;3.0167;0.5435;-0.0426;-0.0790;-0.0060
0000730523;7.4220;3.1891;0.5578;-0.0518;-0.0790;-0.0099
0000730534;7.3239;3.1364;0.5698;-0.0517;-0.0675;-0.0073
0000730542;7.1419;2.9161;0.5770;-0.0485;-0.0698;-0.0084
0000730554;7.2832;2.9497;0.6488;-0.0437;-0.0658;-0.0012
0000730562;7.2760;3.0406;0.6752;-0.0369;-0.0602;-0.0039
0000730570;7.2305;2.9880;0.6033;-0.0333;-0.0650;-0.0096
0000730582;7.1347;2.9257;0.7015;-0.0314;-0.0634;-0.0029
0000730590;7.2688;2.9808;0.6033;-0.0368;-0.0640;-0.0039
0000730601;7.2281;2.9928;0.6225;-0.0402;-0.0605;-0.0129
0000730609;7.2185;3.0765;0.6153;-0.0430;-0.0530;-0.0153
0000730621;7.2903;3.0885;0.5890;-0.0525;-0.0472;-0.0155
0000730629;7.3023;3.2106;0.7254;-0.0462;-0.0501;-0.0222
0000730640;7.2137;3.0335;0.6871;-0.0556;-0.0336;-0.0213
0000730648;7.2233;3.1005;0.6823;-0.0532;-0.0268;-0.0188
0000730656;7.4005;3.0909;0.6105;-0.0618;-0.0211;-0.0177
0000730668;7.3358;2.8730;0.7087;-0.0682;-0.0015;-0.0222
0000730676;7.3478;2.9664;0.7374;-0.0609;-0.0028;-0.0269
0000730688;7.1371;2.8347;0.7661;-0.0605;0.0068;-0.0277
0000730696;7.3287;2.9544;0.7638;-0.0630;0.0160;-0.0241
0000730764;7.2880;3.0933;0.7063;-0.1049;0.0766;-0.0308
0000730772;7.4843;3.0095;0.7781;-0.1095;0.0878;-0.0290
0000730783;7.1730;2.4756;1.4820;-0.1953;0.1160;-0.0308
0000730791;7.3526;2.9904;0.9098;-0.1470;0.1023;-0.0338
0000730799;7.3239;3.0574;0.6991;-0.0863;0.1073;-0.0304
0000730811;7.3598;2.8395;0.8978;-0.0829;0.1160;-0.0308
0000730819;7.0509;2.7629;0.8475;-0.0830;0.1162;-0.0308
0000730830;7.1802;2.9568;0.8906;-0.0669;0.1200;-0.0334
0000730838;7.2736;3.0670;0.8882;-0.0601;0.1195;-0.0222
0000730850;7.1347;3.0646;0.7566;-0.0925;0.1247;-0.0262
0000730858;7.1898;3.1388;0.8523;-0.0931;0.1216;-0.0249
0000730866;7.1467;3.1173;0.7829;-0.0929;0.1228;-0.0314
0000730877;7.2927;3.2609;0.8787;-0.0970;0.1163;-0.0330
0000730885;7.1874;3.1460;0.9002;-0.0965;0.1278;-0.0316
0000730897;7.2903;3.0550;0.7446;-0.1018;0.1226;-0.0285
0000730905;7.1156;2.9712;0.8021;-0.1081;0.1284;-0.0264
0000730916;7.2760;2.9090;0.7949;-0.0897;0.1280;-0.0296
0000730924;7.2018;2.8347;0.9313;-0.0810;0.1388;-0.0143
0000730936;7.3047;2.8563;0.8667;-0.0729;0.1487;-0.0005
0000730944;7.2185;2.8874;0.8906;-0.0667;0.1565;-0.0016
0000730952;7.4196;2.8778;0.8547;-0.0644;0.1731;-0.0012
0000730964;7.2568;2.9497;1.0630;-0.0659;0.1832;-0.0093
0000730972;7.2185;2.8874;0.9170;-0.0654;0.1956;-0.0151
0000731040;7.3406;2.8563;0.9218;-0.0044;0.3405;-0.0384
0000731048;7.2688;2.7797;0.9098;0.0108;0.3648;-0.0454
0000731059;7.4795;3.0167;0.8619;0.0087;0.4045;-0.0408
0000731067;7.3071;3.0526;0.8811;0.0092;0.4285;-0.0378
0000731075;7.2353;3.0430;0.9840;0.0053;0.4563;-0.0436
0000731087;7.5250;3.0191;0.8954;0.0028;0.4876;-0.0492
0000731095;7.2257;2.7749;0.9553;0.0012;0.5109;-0.0550
0000731106;7.3622;2.9568;0.8499;0.0000;0.5389;-0.0580
0000731114;7.2520;2.8706;0.9194;0.0045;0.5625;-0.0592
0000731126;6.9863;2.7988;0.9194;0.0084;0.5919;-0.0663
0000731134;7.2257;3.0502;0.9601;0.0169;0.6089;-0.0682
0000731142;7.0773;2.9209;0.9313;0.0238;0.6273;-0.0718
0000731153;7.1347;3.0430;0.9122;0.0176;0.6476;-0.0701
0000731161;7.1970;3.2082;0.9816;0.0230;0.6586;-0.0727
0000731173;7.0725;3.0311;0.9720;0.0257;0.6819;-0.0707
0000731181;6.9599;2.9808;0.9625;0.0278;0.6893;-0.0774
0000731192;7.0413;3.0263;0.8691;0.0220;0.7033;-0.0799
0000731200;7.0581;2.9137;0.9218;0.0232;0.7097;-0.0785
0000731208;6.9145;2.8395;1.0199;0.0183;0.7189;-0.0757
0000731220;6.6966;2.9951;0.9912;0.0305;0.7131;-0.0773
0000731228;6.8091;3.0981;0.9720;0.0280;0.7159;-0.0699
0000731240;6.5625;2.9401;0.9122;0.0325;0.6972;-0.0722
0000731248;6.5984;3.0191;0.9697;0.0310;0.6937;-0.0685
0000731316;6.9695;3.2872;0.8452;0.0204;0.5721;-0.0472
0000731324;6.6655;3.0885;0.8547;0.0211;0.5604;-0.0549
0000731332;6.7995;3.1915;0.8691;0.0079;0.5585;-0.0538
0000731343;6.7612;3.0550;0.7805;-0.0067;0.5632;-0.0544
0000731351;6.9863;3.1484;0.8284;-0.0155;0.5676;-0.0580
0000731363;6.9216;3.0957;0.7901;-0.0288;0.5724;-0.0517
0000731371;6.8905;3.0239;0.7997;-0.0366;0.5813;-0.0609
0000731382;6.8354;3.0981;0.7685;-0.0466;0.5975;-0.0574
0000731390;6.7062;3.0957;0.8164;-0.0461;0.6047;-0.0657
0000731402;6.8450;3.1436;0.8787;-0.0544;0.6289;-0.0609
0000731410;6.7325;2.9473;0.8452;-0.0522;0.6406;-0.0645
0000731418;6.7229;2.9497;0.8811;-0.0596;0.6660;-0.0604
0000731429;6.8259;2.9377;0.9218;-0.0735;0.6929;-0.0556
0000731437;7.0222;3.0430;0.9242;-0.0690;0.7088;-0.0629
0000731449;7.0366;3.1101;0.9697;-0.0706;0.7537;-0.0621
0000731457;6.9791;3.0311;1.0894;-0.0626;0.7731;-0.0586
0000731468;6.8115;3.0526;0.8882;-0.0697;0.7931;-0.0689
0000731476;6.7995;3.1460;0.9840;-0.0786;0.8063;-0.0645
0000731484;6.6056;3.0574;0.9361;-0.0867;0.8219;-0.0584
0000731496;6.7229;3.1963;1.0199;-0.0834;0.8295;-0.0522
0000731504;6.2058;2.8204;0.9864;-0.0705;0.8270;-0.0497
0000731516;6.3255;3.0981;1.0534;-0.0589;0.8310;-0.0502
0000731524;6.3997;2.9449;1.0175;-0.0552;0.8280;-0.0498
0000731592;6.1292;3.1029;0.8906;-0.0638;0.8092;-0.0652
0000731600;6.2177;3.1460;0.9074;-0.0749;0.8064;-0.0678
0000731611;5.9951;2.9329;0.8954;-0.0715;0.7919;-0.0661
0000731619;5.8682;2.9904;0.9888;-0.0677;0.7778;-0.0621
0000731627;6.0597;3.0287;0.8811;-0.0689;0.7643;-0.0632
0000731639;5.9568;3.0813;1.0104;-0.0702;0.7457;-0.0486
0000731647;5.7221;2.9784;1.1349;-0.0689;0.7206;-0.0537
0000731658;5.5019;2.9353;1.1947;-0.0670;0.6823;-0.0465
0000731666;5.6240;2.9209;1.1277;-0.0662;0.6470;-0.0489
0000731678;5.8155;3.2058;1.1372;-0.0751;0.6005;-0.0456
0000731686;5.6575;2.9544;1.2330;-0.0742;0.5598;-0.0537
0000731694;5.8203;2.9209;1.2761;-0.0738;0.5291;-0.0582
0000731705;5.6958;2.8371;1.3144;-0.0637;0.4836;-0.0550
0000731713;5.6910;2.5833;1.3551;-0.0578;0.4513;-0.0486
0000731725;6.1028;2.8276;1.2713;-0.0632;0.3964;-0.0277
0000731733;5.6383;2.8802;1.3479;-0.0465;0.3544;-0.0569
0000731744;5.5162;2.9880;1.3838;-0.0520;0.2966;-0.0667
0000731752;5.6264;3.0933;1.2809;-0.0376;0.2482;-0.0798
0000731764;5.8227;3.4381;1.1947;-0.0278;0.1792;-0.0641
0000731772;5.4253;3.1556;1.1947;-0.0337;0.1398;-0.0530
0000731780;5.4947;3.2872;1.2354;-0.0409;0.0953;-0.0469
0000731792;5.6671;3.1939;1.1205;-0.0462;0.0393;-0.0286
0000731800;5.9185;3.2058;0.9505;-0.0645;0.0048;-0.0117
0000731868;6.2991;2.9353;1.0367;-0.1613;-0.3455;-0.0714
0000731876;5.7868;2.8491;0.9170;-0.1292;-0.3765;-0.1160
0000731887;5.9735;3.1651;0.9266;-0.0849;-0.4030;-0.1011
0000731895;5.7892;3.0358;0.9361;-0.0473;-0.4146;-0.0687
0000731907;5.8969;3.1795;0.8068;0.0084;-0.4371;-0.0318
0000731915;6.1363;2.9185;0.8835;0.0292;-0.4374;-0.0159
0000731923;6.3734;2.7916;0.8691;0.0538;-0.4443;-0.0152
0000731934;6.6176;2.6504;0.7661;0.0657;-0.4490;-0.0085
0000731942;6.5242;2.6360;0.7063;0.0699;-0.4557;-0.0124
0000731954;6.5601;2.8802;0.6273;0.0642;-0.4708;-0.0124
0000731962;6.5074;3.0526;0.6345;0.0693;-0.4798;-0.0197
0000731974;6.0094;3.1173;0.7685;0.0581;-0.5044;-0.0167
0000731982;5.9065;3.2250;0.7638;0.0593;-0.5347;-0.0195
0000731990;5.8419;3.1149;0.6440;0.0492;-0.5560;-0.0175
0000732001;5.7365;3.0406;0.5986;0.0417;-0.5914;-0.0176
0000732009;5.9209;3.1603;0.7230;0.0294;-0.6085;-0.0111
0000732021;5.9280;2.8730;0.7661;0.0276;-0.6370;-0.0077
0000732029;6.2584;3.0813;0.6656;0.0253;-0.6607;-0.0147
0000732040;6.3686;3.0191;0.6201;0.0345;-0.6817;-0.0097
0000732048;6.5529;3.2681;0.4884;0.0318;-0.6872;-0.0019
0000732060;6.4212;2.9951;0.4669;0.0306;-0.6937;0.0013
0000732068;6.4572;2.9473;0.5626;0.0173;-0.6889;0.0081
0000732076;6.5481;3.0143;0.5674;0.0168;-0.6937;0.0145
0000732143;6.3973;3.0239;0.3591;0.0087;-0.7458;-0.0258
0000732151;6.4260;2.9688;0.3783;0.0061;-0.7516;-0.0226
0000732163;6.4955;3.0502;0.3112;0.0071;-0.7584;-0.0258
0000732171;6.7277;3.1675;0.2586;0.0001;-0.7627;-0.0297
0000732183;6.7876;3.0933;0.1963;-0.0215;-0.7586;-0.0224
0000732191;6.5625;3.0143;0.1724;-0.0326;-0.7572;-0.0127
0000732199;6.7612;3.1316;0.2993;-0.0432;-0.7557;-0.0145
0000732211;6.6415;3.0023;0.2298;-0.0492;-0.7658;-0.0004
0000732219;6.5864;3.0382;0.2682;-0.0517;-0.7717;-0.0020
0000732231;6.5601;2.7964;0.1604;-0.0444;-0.7815;-0.0040
0000732239;6.5577;2.8706;0.2370;-0.0466;-0.8014;-0.0128
0000732251;6.4476;2.8778;0.2011;-0.0490;-0.8242;-0.0107
0000732259;6.2920;2.9664;0.0024;-0.0326;-0.8294;-0.0127
0000732270;6.3159;3.0143;-0.0455;-0.0277;-0.8581;-0.0240
0000732278;6.4739;3.0789;-0.0886;-0.0484;-0.8655;-0.0181
0000732286;6.6750;3.0574;-0.1389;-0.0847;-0.8744;-0.0164
0000732298;6.6272;2.9233;-0.1580;-0.1062;-0.8784;-0.0195
0000732306;6.5362;2.8419;0.0263;-0.0927;-0.8888;-0.0274
0000732317;6.7325;2.6695;-0.0263;-0.1212;-0.8932;-0.0392
0000732325;6.8354;2.7461;-0.1484;-0.1436;-0.9012;-0.0494
0000732337;6.9049;2.8730;-0.1389;-0.1386;-0.9021;-0.0592
0000732345;6.8378;2.9137;-0.2466;-0.1415;-0.8908;-0.0597
0000732413;7.4388;2.5043;-0.1173;-0.1549;-0.7699;-0.0678
0000732421;7.3287;2.3367;-0.0168;-0.1460;-0.7482;-0.0727
0000732433;7.4268;2.3296;-0.0766;-0.1380;-0.7140;-0.0749
0000732441;7.4699;2.2075;-0.3783;-0.1406;-0.6836;-0.0726
0000732449;7.4364;2.2458;-0.1724;-0.1272;-0.6508;-0.0634
0000732460;7.4651;2.1931;-0.0431;-0.1218;-0.6089;-0.0580
0000732468;7.2880;2.1572;-0.2562;-0.0971;-0.5768;-0.0470
0000732480;7.4460;2.3056;-0.1700;-0.0536;-0.5299;-0.0212
0000732488;7.4388;2.0734;-0.1604;-0.0578;-0.5103;-0.0212
0000732500;7.2832;1.9058;-0.2107;-0.0588;-0.4840;-0.0197
0000732508;7.4986;1.9297;-0.1532;-0.0085;-0.4610;-0.0306
0000732520;7.1946;1.5850;-0.2346;-0.0306;-0.4333;-0.0330
0000732528;7.2113;1.5945;-0.2107;-0.0077;-0.4198;-0.0376
0000732540;7.3622;1.6185;-0.4190;0.0361;-0.3717;-0.0300
0000732548;7.3071;1.3479;-0.6177;0.0678;-0.3464;-0.0204
0000732556;7.4962;1.1372;-0.4453;0.1300;-0.3328;-0.0069
0000732568;7.3550;1.1325;-0.6895;0.2080;-0.2887;0.0153
0000732576;7.4340;1.4102;-0.9146;0.2715;-0.2469;0.0180
0000732587;7.1563;1.5490;-0.8691;0.2758;-0.1968;0.0504
0000732595;7.0006;1.2402;-0.5746;0.2354;-0.1568;0.0853
0000732607;6.7971;0.9290;-0.6728;0.2693;-0.1399;0.1551
0000732615;6.5218;0.8739;-0.7733;0.3126;-0.1560;0.1955
0000732623;6.5098;1.0104;-0.6656;0.3296;-0.1808;0.2134
0000732691;6.4380;1.3815;-1.4389;0.2747;-0.3972;-0.1005
0000732699;6.2896;1.7047;-1.4150;0.2959;-0.4108;-0.1007
0000732711;6.1723;1.6783;-1.4365;0.2847;-0.4133;-0.0616
0000732719;5.9640;1.6999;-1.3024;0.2665;-0.4203;-0.0385
0000732731;6.0549;1.9130;-1.0008;0.2433;-0.4218;-0.0188
0000732739;5.4684;1.1827;-1.1468;0.1903;-0.4457;0.0156
0000732751;5.6192;1.3743;-0.8691;0.1238;-0.4938;0.0653
0000732759;5.7078;1.2857;-0.8284;0.0480;-0.5275;0.0777
0000732767;6.0765;0.7877;-0.6991;-0.0362;-0.5746;0.0596
0000732779;6.5242;-0.5986;-0.2634;-0.0771;-0.6281;0.0032
0000732787;6.6918;-1.0942;-0.2346;-0.0661;-0.6415;-0.0167
0000732799;6.8785;-0.7853;-0.5866;-0.0652;-0.6474;-0.0430
0000732807;6.8690;-0.3783;-0.8380;-0.0697;-0.6448;-0.0541
0000732818;6.8067;-0.0335;-1.3168;-0.1608;-0.6106;-0.0440
0000732826;6.8833;0.0120;-1.3168;-0.2317;-0.5917;-0.0272
0000732838;6.9240;-0.4860;-0.7925;-0.3304;-0.5589;-0.0234
0000732846;6.8833;-0.6752;-0.3376;-0.3788;-0.5506;-0.0345
0000732858;6.6176;-0.9337;0.3926;-0.4517;-0.5435;-0.0372
0000732866;6.6367;-0.9960;0.6321;-0.4996;-0.5546;-0.0494
0000732874;6.2584;-1.0271;0.8930;-0.5927;-0.5793;-0.0557
0000732886;6.3279;-1.2186;1.6209;-0.7881;-0.6126;-0.0604
0000732894;6.8019;-1.5203;2.4517;-0.9069;-0.6491;-0.0821
0000732960;8.3390;-4.5466;4.5442;-2.3129;-0.5588;-0.2081
0000732968;7.8985;-4.9392;3.8259;-2.4026;-0.5581;-0.2061
0000732980;6.1675;-3.8906;0.1748;-2.3848;-0.6719;-0.2068
0000732988;3.7589;2.0949;-3.7254;-2.5603;-0.9494;-0.2018
0000733000;-4.4580;53.1321;-1.8699;-4.3657;-1.4408;-0.7965
0000733008;-24.5597;78.4508;-6.7277;-1.7656;-2.4136;-1.2867
0000733020;7.9727;36.4493;-27.1263;-2.2648;-0.8725;0.8832
0000733028;20.8152;11.1426;-2.8323;-3.2169;-0.5363;0.4477
0000733040;25.7041;0.2394;9.4930;-2.9084;0.3700;0.1852
0000733048;23.5589;-2.6576;11.6310;-3.2698;1.0757;0.2759
0000733056;18.9501;-3.7661;9.3111;-4.2625;1.7008;0.4158
0000733068;10.0604;-1.9249;7.2065;-4.3657;2.2367;0.7003
0000733076;5.6431;-3.9624;7.3981;-4.3657;2.3176;1.0788
0000733088;2.0925;-13.0795;7.1036;-4.3657;1.9422;1.6458
0000733096;0.3567;-16.7427;6.8498;-4.3657;1.5430;1.7127
0000733108;-1.1420;-15.4833;6.4212;-3.3681;0.9324;1.4193
0000733116;-1.0989;-12.6677;6.1100;-3.1243;0.6273;1.1191
0000733128;0.5219;-8.3845;3.9480;-3.6112;0.3463;0.8015
0000733136;2.3391;-6.5386;1.8938;-3.7974;0.1733;0.6527
0000733144;4.1851;-5.1595;0.9673;-3.6972;0.0470;0.5718
0000733156;5.8586;-3.1603;-0.0503;-3.6252;-0.1150;0.5135
0000733164;6.4835;-2.5977;0.0455;-3.8413;-0.1988;0.4872
0000733232;6.2608;-0.6201;-7.4986;-3.1929;0.2912;0.3014
0000733240;6.6559;-2.2242;-5.9783;-4.0121;0.4330;0.5104
0000733252;7.3837;-5.3151;-1.0271;-4.3657;0.7682;0.8055
0000733260;7.9990;-10.8577;5.9544;-4.3657;1.1694;1.0292
0000733272;7.9583;-30.8445;22.3403;-2.7266;1.2189;1.1325
0000733280;9.8713;-38.7693;17.7171;-1.0168;1.1955;0.8315
0000733288;9.3613;-40.8499;14.5879;0.3413;1.0641;0.3114
0000733300;5.7174;-21.3491;18.1121;0.8856;0.6671;-0.1287
0000733308;4.2210;3.2202;23.3937;-0.9887;0.5028;-0.0572
0000733320;5.4253;7.2257;22.6707;-4.1585;0.5223;0.0806
0000733328;5.3606;2.2338;29.1255;-4.3657;0.2745;-0.1108
0000733340;4.8076;-9.3015;43.1890;-4.3657;-0.0167;-0.1196
0000733348;4.9344;-18.5718;45.5976;-4.3657;0.0553;0.0514
0000733360;5.5474;-25.6994;36.1764;-3.5783;-0.0835;-0.0469
0000733368;6.4979;-24.8805;27.9403;-2.1879;-0.0617;-0.2669
0000733379;6.9791;-21.2390;20.2406;-0.7117;0.2402;-0.4118
0000733387;7.1658;-16.3596;11.9279;-0.3204;0.4590;-0.3180
0000733395;7.4843;-10.2400;2.6624;-0.8199;0.6435;-0.0849
0000733407;7.1658;-5.7221;-2.1117;-2.0500;0.4960;0.2690
0000733415;7.5753;-4.8123;-1.3862;-2.5688;0.3332;0.4137
0000733483;6.1459;-17.1856;13.2926;-1.3391;1.2165;0.0522
0000733491;5.2002;-19.3044;12.0524;-1.3035;1.0135;0.1921
0000733503;4.2138;-18.3204;10.2807;-1.2367;0.8797;0.1844
0000733511;3.9552;-15.2295;10.6710;-1.1378;0.8268;0.1506
0000733523;3.5865;-10.2544;10.3860;-0.9868;0.7282;0.2499
0000733531;3.4644;-8.1714;9.7205;-0.8116;0.7246;0.2919
0000733539;2.9401;-8.1906;9.0812;-0.5761;0.7336;0.2546
0000733551;2.2003;-10.0126;8.0661;-0.2450;0.6892;0.1641
0000733559;2.3487;-11.4586;7.3478;-0.0943;0.6182;0.1394
0000733571;2.7677;-12.9909;6.3063;0.0989;0.4900;0.1219
0000733579;2.9616;-13.6422;5.8778;0.1960;0.3636;0.0831
0000733591;3.7541;-13.0460;6.0358;0.2389;0.1724;0.0245
0000733599;3.6248;-12.5169;6.3111;0.2617;0.0442;-0.0185
0000733611;3.1771;-10.9032;7.0533;0.2878;-0.1204;-0.0389
0000733619;2.8180;-10.1394;7.3909;0.3068;-0.2098;-0.0213
0000733627;2.7318;-9.7133;7.9176;0.3079;-0.2657;-0.0262
0000733639;2.8946;-9.7396;8.8897;0.3545;-0.3401;-0.0809
0000733647;3.2346;-9.9335;9.4595;0.3966;-0.3729;-0.1167
0000733659;3.5745;-10.4076;10.3789;0.4734;-0.3862;-0.1515
0000733667;3.6583;-10.7619;10.6087;0.5208;-0.3752;-0.1402
0000733679;4.0103;-10.5297;10.2161;0.5088;-0.3866;-0.1280
0000733687;4.0677;-10.0556;10.2448;0.4784;-0.3925;-0.1240
0000733755;5.4109;-9.3781;9.8617;0.4182;-0.4554;-0.1905
0000733763;5.5929;-9.2009;9.4332;0.3587;-0.4465;-0.2090
0000733775;5.8610;-8.9088;8.7652;0.2084;-0.4261;-0.2209
0000733783;6.1148;-8.5449;8.5234;0.0965;-0.4151;-0.2068
0000733791;5.8658;-8.4659;8.2361;-0.0032;-0.4261;-0.1780
0000733803;6.4859;-8.3534;8.2935;-0.1055;-0.4481;-0.1262
0000733811;6.9240;-8.1523;8.2097;-0.1154;-0.4515;-0.0799
0000733823;7.6806;-7.9464;8.1116;0.0015;-0.3836;-0.0381
0000733831;7.8171;-7.7907;8.3127;0.0794;-0.3138;-0.0321
0000733843;7.9057;-7.4915;8.7724;0.0659;-0.1945;-0.0477
0000733851;7.5729;-7.5776;9.0740;0.0019;-0.1242;-0.0707
0000733863;6.7038;-7.9464;9.3925;-0.0945;-0.0541;-0.0763
0000733871;6.1675;-8.3414;9.5481;-0.1168;-0.0461;-0.0498
0000733879;5.0996;-9.2129;9.7444;-0.1130;-0.0486;0.0027
0000733891;4.6783;-10.0628;10.1347;-0.0453;-0.1140;0.0891
0000733899;4.6088;-10.3070;10.2759;0.0735;-0.1744;0.1375
0000733911;4.7621;-10.3932;10.1610;0.2631;-0.2651;0.1246
0000733919;4.9704;-10.3286;9.7827;0.3742;-0.2975;0.0821
0000733931;5.3391;-9.7995;9.0668;0.4676;-0.3182;-0.0093
0000733939;5.6695;-9.5768;8.8322;0.4555;-0.3091;-0.0811
0000733951;5.9831;-9.0836;7.9320;0.4802;-0.2659;-0.1869
0000733959;5.8131;-8.7747;7.4172;0.5401;-0.2473;-0.2374
0000734027;7.8841;-5.4277;9.7229;-0.0529;-0.5995;0.1390
0000734035;8.9184;-6.2106;8.7412;0.0380;-0.5532;0.2454
0000734043;9.6486;-6.4165;8.3438;-0.1094;-0.4519;0.3268
0000734055;10.4196;-6.3710;8.9304;-0.5971;-0.1817;0.3384
0000734063;10.9152;-6.9288;9.3398;-0.8772;0.0280;0.2655
0000734075;11.2480;-7.8362;9.4834;-0.9503;0.2382;0.0667
0000734083;11.2863;-8.5090;9.3948;-0.7695;0.3168;-0.0807
0000734095;10.6446;-9.6822;8.9854;-0.4562;0.3616;-0.1302
0000734103;9.9551;-9.7444;8.8274;-0.3206;0.3660;-0.0608
0000734115;7.0318;-9.7205;8.4108;-0.2160;0.4041;0.1111
0000734123;5.9496;-9.3254;8.6622;-0.2078;0.4037;0.1724
0000734131;4.9009;-9.2847;9.0884;-0.2289;0.3643;0.1936
0000734143;3.9121;-9.3446;9.2847;-0.2695;0.2563;0.1620
0000734151;3.7062;-9.4068;9.4044;-0.2874;0.1628;0.1184
0000734163;3.5314;-9.9072;9.4619;-0.3008;0.0469;0.0306
0000734171;3.6152;-10.1466;9.5433;-0.2990;-0.0249;-0.0357
0000734183;4.1444;-10.2615;9.7133;-0.2681;-0.1078;-0.1536
0000734192;4.7597;-10.3669;9.6343;-0.2106;-0.1553;-0.2244
0000734205;5.6048;-10.0389;9.5768;-0.0650;-0.1136;-0.2266
0000734214;6.4236;-9.9575;9.2799;0.0232;-0.0685;-0.1960
0000734223;6.8354;-9.9096;8.8897;0.0755;0.0269;-0.1296
0000734236;6.6415;-10.0197;8.6503;0.0750;0.1573;-0.0200
0000734245;6.8019;-9.7420;8.7987;0.0544;0.2214;0.0508
0000734314;5.3678;-9.1171;9.7348;0.0408;0.0173;0.1502
0000734323;5.5091;-9.3230;9.6271;0.0364;-0.0193;0.1158
0000734336;5.8945;-9.2296;9.5074;0.0416;-0.0364;0.0782
0000734345;6.1507;-9.2608;9.4403;0.0574;-0.0416;0.0657
0000734358;6.0837;-9.0166;9.1267;0.0909;-0.0608;0.0537
0000734367;5.8083;-8.8107;8.8418;0.1067;-0.0838;0.0554
0000734376;5.7102;-8.4946;8.7317;0.0927;-0.1065;0.0522
0000734389;5.3510;-8.4108;8.7652;0.0566;-0.1378;0.0466
0000734398;5.3510;-8.2887;8.8202;0.0284;-0.1652;0.0195
0000734411;5.7365;-8.2815;9.0381;-0.0147;-0.1771;-0.0033
0000734420;5.9687;-8.2361;9.1794;-0.0211;-0.1843;-0.0353
0000734433;6.1986;-8.3127;9.2536;-0.0177;-0.1679;-0.0621
0000734442;6.2297;-8.2193;9.3805;-0.0172;-0.1503;-0.0861
0000734455;6.1842;-8.3318;9.5624;-0.0092;-0.1095;-0.1049
0000734464;5.8921;-8.4372;9.6726;-0.0143;-0.0849;-0.1120
0000734473;5.8395;-8.4779;9.5888;-0.0169;-0.0754;-0.1176
0000734486;5.6910;-8.6407;9.5577;-0.0332;-0.0655;-0.1031
0000734495;5.6958;-8.6838;9.5481;-0.0448;-0.0753;-0.1104
0000734508;5.9448;-8.7101;9.5409;-0.0448;-0.0815;-0.1130
0000734517;6.1723;-8.7604;9.4212;-0.0473;-0.0797;-0.1124
0000734530;6.0071;-9.1794;9.2632;-0.0473;-0.0847;-0.1110
0000734539;6.0813;-9.1530;9.2249;-0.0365;-0.0890;-0.1059
0000734608;6.1339;-9.1961;9.1626;-0.0019;-0.0694;0.0061
0000734617;6.5050;-9.1075;9.2967;-0.0007;-0.0649;0.0246
0000734626;6.4428;-9.2320;9.3230;0.0025;-0.0538;0.0408
0000734639;6.4476;-9.0980;9.3158;0.0108;-0.0524;0.0441
0000734648;6.6152;-8.8873;9.3613;0.0125;-0.0377;0.0453
0000734661;6.4620;-8.9016;9.4715;0.0207;-0.0224;0.0432
0000734670;6.3590;-8.9040;9.3518;0.0180;-0.0056;0.0441
0000734683;6.3638;-8.8178;9.2680;0.0137;0.0128;0.0394
0000734692;6.0406;-8.8298;9.2392;0.0175;0.0109;0.0276
0000734705;6.0717;-8.7149;9.2727;0.0060;0.0226;0.0282
0000734714;5.9735;-8.6335;9.2536;0.0017;0.0249;0.0294
0000734723;5.7892;-8.5976;9.2129;-0.0067;0.0196;0.0273
0000734736;5.7868;-8.7029;9.2273;-0.0151;0.0149;0.0246
0000734745;5.6144;-8.7149;9.1985;-0.0207;0.0060;0.0244
0000734761;5.7030;-8.8178;9.2847;-0.0244;-0.0109;0.0048
0000734770;5.6862;-8.8274;9.2416;-0.0318;-0.0133;0.0073
0000734783;5.6431;-8.9256;9.2440;-0.0426;-0.0222;-0.0013
0000734792;5.6790;-8.7149;9.1506;-0.0352;-0.0356;-0.0128
0000734801;5.6120;-8.8729;9.2464;-0.0356;-0.0368;-0.0129
0000734813;5.6407;-8.8226;9.3374;-0.0426;-0.0493;-0.0211
0000734822;5.7437;-8.8609;9.3541;-0.0440;-0.0597;-0.0361
0000734891;6.3470;-8.8394;9.2153;-0.0270;-0.0717;-0.0305
0000734900;6.1675;-8.9807;9.2296;-0.0294;-0.0715;-0.0282
0000734912;6.0525;-8.9399;9.2464;-0.0329;-0.0721;-0.0212
0000734921;6.1220;-9.1459;9.2009;-0.0374;-0.0592;-0.0125
0000734934;6.2848;-8.8657;9.3039;-0.0253;-0.0533;-0.0160
0000734943;6.4069;-8.8322;9.1866;-0.0268;-0.0465;-0.0123
0000734955;6.1818;-8.8178;9.1913;-0.0338;-0.0474;-0.0120
0000734964;6.1076;-8.8921;9.3015;-0.0361;-0.0526;-0.0161
0000734973;6.0214;-8.8729;9.2967;-0.0526;-0.0412;-0.0073
0000734986;6.0813;-8.8370;9.3565;-0.0597;-0.0377;-0.0055
0000734995;6.1483;-8.8849;9.3446;-0.0593;-0.0325;0.0039
0000735007;6.1316;-8.9160;9.4284;-0.0552;-0.0246;0.0021
0000735016;6.2417;-8.9974;9.4403;-0.0373;-0.0346;-0.0037
0000735029;6.0741;-9.0740;9.3805;-0.0284;-0.0285;-0.0032
0000735038;6.0956;-9.1051;9.2751;-0.0300;-0.0181;0.0005
0000735050;6.0789;-9.1147;9.3039;-0.0314;-0.0203;0.0000
0000735059;6.0813;-8.9687;9.2703;-0.0266;-0.0245;-0.0096
0000735072;6.1316;-8.8274;9.2680;-0.0256;-0.0175;-0.0028
0000735081;5.9137;-9.0118;9.2536;-0.0281;-0.0204;-0.0097
0000735090;6.0885;-8.7508;9.2440;-0.0237;-0.0229;-0.0133
0000735102;5.8682;-8.9830;9.2392;-0.0270;-0.0241;-0.0181
0000735111;5.9328;-8.9759;9.2464;-0.0349;-0.0212;-0.0120
0000735180;5.8035;-9.0597;9.3182;-0.0211;-0.0504;-0.0205
0000735189;5.8323;-9.0644;9.2871;-0.0266;-0.0429;-0.0148
0000735201;6.0621;-8.9256;9.2416;-0.0292;-0.0464;-0.0107
0000735210;6.1268;-8.8562;9.2081;-0.0308;-0.0486;-0.0133
0000735223;6.0071;-9.0261;9.2871;-0.0328;-0.0430;-0.0132
0000735232;6.0956;-8.8921;9.3613;-0.0320;-0.0400;-0.0163
0000735244;5.9975;-9.0429;9.2129;-0.0286;-0.0392;-0.0144
0000735253;6.1651;-8.9759;9.3039;-0.0274;-0.0318;-0.0143
0000735262;6.2201;-8.8562;9.3039;-0.0232;-0.0333;-0.0144
0000735275;6.1746;-8.9974;9.3422;-0.0261;-0.0298;-0.0121
0000735284;6.2106;-8.8705;9.3015;-0.0284;-0.0292;-0.0091
0000735296;6.0430;-9.0309;9.2943;-0.0296;-0.0254;-0.0080
0000735305;6.0430;-9.0597;9.2608;-0.0284;-0.0280;-0.0061
0000735318;6.0262;-9.0333;9.2584;-0.0273;-0.0249;-0.0056
0000735327;6.1076;-9.0142;9.2416;-0.0203;-0.0320;-0.0108
0000735339;5.9711;-9.0549;9.3182;-0.0213;-0.0322;-0.0121
0000735348;5.8371;-9.0573;9.3278;-0.0269;-0.0253;-0.0061
0000735357;6.1148;-8.9687;9.2680;-0.0229;-0.0264;-0.0037
0000735370;6.0549;-9.1028;9.2680;-0.0252;-0.0293;-0.0065
0000735379;6.0765;-9.0142;9.2871;-0.0298;-0.0300;-0.0071
0000735391;5.7700;-9.0597;9.2943;-0.0253;-0.0289;-0.0117
0000735400;5.9400;-9.0860;9.2536;-0.0250;-0.0292;-0.0071
0000735469;6.1292;-8.9591;9.2967;-0.0226;-0.0384;-0.0144
0000735478;5.9687;-8.9232;9.3422;-0.0139;-0.0365;-0.0212
0000735490;6.0621;-9.0142;9.2799;-0.0159;-0.0389;-0.0217
0000735499;6.0573;-9.0285;9.2153;-0.0196;-0.0349;-0.0232
0000735512;6.0142;-9.0980;9.2153;-0.0282;-0.0360;-0.0148
0000735521;6.0454;-9.0429;9.2296;-0.0241;-0.0332;-0.0177
0000735530;6.0501;-8.9639;9.2895;-0.0302;-0.0344;-0.0115
0000735542;5.9951;-9.0333;9.2416;-0.0280;-0.0348;-0.0129
0000735551;5.9879;-9.1794;9.2895;-0.0242;-0.0336;-0.0127
0000735564;6.2393;-8.9639;9.2392;-0.0222;-0.0302;-0.0119
0000735573;5.9568;-9.0501;9.2416;-0.0240;-0.0370;-0.0172
0000735585;6.0861;-8.8131;9.2943;-0.0330;-0.0357;-0.0131
0000735594;6.0166;-8.9447;9.2775;-0.0366;-0.0384;-0.0053
0000735607;5.9927;-9.0549;9.3853;-0.0388;-0.0310;-0.0036
0000735616;6.1938;-8.9064;9.2656;-0.0408;-0.0232;-0.0003
0000735628;5.9520;-9.0788;9.3134;-0.0300;-0.0269;-0.0011
0000735637;6.0525;-8.9902;9.3230;-0.0191;-0.0324;-0.0095
0000735646;5.9687;-9.1243;9.3134;-0.0167;-0.0332;-0.0103
0000735659;6.0166;-9.1219;9.2488;-0.0171;-0.0320;-0.0081
0000735668;6.0861;-8.9974;9.1961;-0.0184;-0.0298;-0.0104
0000735680;5.9280;-9.0597;9.3350;-0.0144;-0.0328;-0.0088
0000735689;6.1004;-9.1387;9.2560;-0.0136;-0.0378;-0.0107
0000735758;5.9831;-9.0573;9.2919;-0.0008;-0.0362;-0.0103
0000735767;6.1172;-8.9136;9.1961;0.0023;-0.0373;-0.0137
0000735779;6.0597;-8.9807;9.2296;0.0012;-0.0434;-0.0171
0000735788;5.9807;-9.0309;9.2273;-0.0020;-0.0394;-0.0072
0000735801;5.8849;-9.1243;9.3230;0.0031;-0.0385;-0.0093
0000735810;5.9376;-9.0118;9.1746;0.0037;-0.0420;-0.0160
0000735819;6.0286;-8.9998;9.2823;0.0003;-0.0372;-0.0104
0000735831;5.8395;-9.0716;9.3087;-0.0029;-0.0368;-0.0111
0000735840;6.0262;-9.0237;9.3063;0.0004;-0.0397;-0.0124
0000735853;6.1794;-8.8801;9.3111;-0.0069;-0.0346;-0.0077
0000735862;6.1411;-8.8969;9.2919;0.0008;-0.0409;-0.0157
0000735874;6.1603;-9.0429;9.2368;0.0003;-0.0309;-0.0105
0000735883;6.0765;-9.0453;9.2895;0.0059;-0.0377;-0.0189
0000735896;5.9400;-9.1195;9.2320;0.0084;-0.0348;-0.0155
0000735905;5.8634;-9.1770;9.2512;0.0028;-0.0328;-0.0116
0000735914;6.0693;-9.0070;9.2727;0.0045;-0.0313;-0.0055
0000735926;5.8873;-9.0980;9.2799;0.0048;-0.0305;-0.0048
0000735935;6.0262;-9.0812;9.2296;0.0085;-0.0393;-0.0044
0000735948;5.9209;-9.0597;9.3015;0.0041;-0.0360;-0.0117
0000735957;6.0932;-8.8514;9.1626;0.0028;-0.0352;-0.0092
0000735969;5.9664;-9.0094;9.3350;0.0031;-0.0372;-0.0120
0000735978;6.0406;-9.0118;9.3134;-0.0012;-0.0350;-0.0127
0000736047;5.9041;-9.0237;9.3206;0.0069;-0.0289;-0.0116
0000736056;6.0071;-8.9807;9.2344;0.0036;-0.0348;-0.0121
0000736065;5.9807;-8.9878;9.1339;0.0068;-0.0382;-0.0147
0000736077;5.8227;-9.0525;9.2225;0.0041;-0.0424;-0.0161
0000736086;5.9927;-8.9663;9.2536;-0.0013;-0.0357;-0.0107
0000736099;6.1603;-8.8274;9.2225;-0.0011;-0.0392;-0.0107
0000736108;5.9735;-8.9519;9.2249;0.0063;-0.0396;-0.0191
0000736120;5.9472;-9.0908;9.3541;0.0065;-0.0410;-0.0136
0000736129;6.0214;-9.0597;9.3111;0.0025;-0.0366;-0.0112
0000736142;5.9616;-9.0668;9.3589;0.0064;-0.0382;-0.0121
0000736151;5.8347;-8.9663;9.2440;0.0005;-0.0332;-0.0117
0000736160;6.0789;-8.9304;9.2129;0.0007;-0.0362;-0.0131
0000736172;5.9592;-9.0956;9.2536;-0.0063;-0.0386;-0.0140
0000736181;5.8969;-9.0190;9.2153;-0.0101;-0.0385;-0.0133
0000736194;5.8371;-9.1602;9.2967;-0.0035;-0.0446;-0.0097
0000736203;6.1004;-8.9902;9.2799;0.0031;-0.0432;-0.0131
0000736214;6.1172;-8.9807;9.2847;0.0044;-0.0409;-0.0157
0000736223;6.0094;-8.9016;9.2608;0.0095;-0.0414;-0.0135
0000736237;5.9616;-8.9016;9.2895;-0.0007;-0.0430;-0.0149
0000736246;5.9400;-8.7939;9.2919;-0.0141;-0.0434;-0.0085
0000736315;6.2489;-8.9088;9.2368;0.0053;-0.0418;-0.0200
0000736324;6.0454;-8.9471;9.2584;-0.0035;-0.0321;-0.0139
0000736333;5.9951;-8.8801;9.2943;-0.0053;-0.0349;-0.0147
0000736345;6.0525;-9.0214;9.2081;-0.0056;-0.0302;-0.0051
0000736354;5.8849;-8.9950;9.3063;-0.0009;-0.0397;-0.0168
0000736367;5.9855;-8.9232;9.3278;0.0037;-0.0409;-0.0177
0000736376;5.9065;-9.0812;9.3518;-0.0013;-0.0357;-0.0117
0000736388;6.2321;-8.8035;9.3182;-0.0005;-0.0314;-0.0109
0000736397;6.0597;-8.9136;9.3206;0.0091;-0.0428;-0.0163
0000736410;6.0190;-9.0118;9.3398;0.0096;-0.0378;-0.0137
0000736419;6.2728;-8.8969;9.3350;0.0059;-0.0341;-0.0101
0000736428;6.0478;-8.8011;9.2512;0.0025;-0.0422;-0.0120
0000736440;6.0861;-8.9663;9.3015;-0.0012;-0.0414;-0.0181
0000736449;6.0094;-8.9519;9.2368;-0.0108;-0.0344;-0.0159
0000736462;6.1172;-8.8346;9.3446;-0.0049;-0.0373;-0.0153
0000736471;6.1244;-8.7652;9.3063;-0.0085;-0.0365;-0.0133
0000736483;5.9209;-9.0309;9.2871;-0.0123;-0.0372;-0.0091
0000736492;5.9664;-8.9495;9.2512;-0.0055;-0.0429;-0.0195
0000736505;6.0214;-8.9352;9.2536;-0.0125;-0.0417;-0.0164
0000736514;6.0478;-8.9687;9.2871;-0.0113;-0.0348;-0.0128
0000736526;6.2201;-8.9519;9.3039;-0.0145;-0.0340;-0.0092
0000736535;6.1100;-8.9759;9.2225;-0.0067;-0.0352;-0.0151
0000736544;6.0382;-9.0716;9.2488;-0.0040;-0.0329;-0.0096
0000736613;6.1076;-8.7245;9.2153;-0.0080;-0.0433;-0.0133
0000736622;6.1028;-8.8873;9.3015;-0.0135;-0.0360;-0.0104
0000736634;6.0023;-8.8514;9.2632;-0.0117;-0.0414;-0.0152
0000736643;6.0310;-8.9064;9.2751;-0.0180;-0.0384;-0.0103
0000736656;6.2321;-8.7340;9.2632;-0.0207;-0.0313;-0.0112
0000736665;5.9472;-8.8418;9.2608;-0.0232;-0.0320;-0.0129
0000736677;5.9687;-9.0309;9.2416;-0.0212;-0.0294;-0.0095
0000736686;6.0525;-8.9399;9.2392;-0.0197;-0.0362;-0.0195
0000736699;6.1220;-8.8442;9.2703;-0.0191;-0.0382;-0.0180
0000736708;5.9472;-8.8394;9.2440;-0.0242;-0.0317;-0.0132
0000736717;6.1435;-8.9016;9.2680;-0.0238;-0.0361;-0.0184
0000736729;6.2249;-8.8801;9.2632;-0.0290;-0.0337;-0.0117
0000736738;6.0094;-8.9376;9.3398;-0.0305;-0.0356;-0.0115
0000736751;6.0358;-8.9447;9.3015;-0.0284;-0.0322;-0.0117
0000736760;6.1387;-8.7628;9.2751;-0.0228;-0.0437;-0.0185
0000736772;5.9544;-9.1363;9.2249;-0.0250;-0.0373;-0.0187
0000736781;6.0813;-9.0046;9.2225;-0.0249;-0.0350;-0.0139
0000736794;6.1052;-8.8945;9.2991;-0.0301;-0.0341;-0.0181
0000736803;5.9975;-8.9256;9.3302;-0.0212;-0.0384;-0.0149
0000736815;6.0382;-9.0046;9.2416;-0.0238;-0.0394;-0.0189
0000736824;5.9544;-8.9974;9.3015;-0.0278;-0.0344;-0.0127
0000736833;6.1100;-8.9136;9.4403;-0.0289;-0.0381;-0.0115
0000736902;5.8993;-8.8562;9.3111;-0.0457;-0.0253;-0.0203
0000736911;6.0238;-8.7197;9.3996;-0.0514;-0.0140;-0.0061
0000736923;6.1100;-8.8729;9.2871;-0.0448;-0.0167;-0.0039
0000736932;5.9137;-8.9447;9.2632;-0.0320;-0.0238;-0.0072
0000736945;5.9256;-9.1626;9.2632;-0.0221;-0.0316;-0.0071
0000736954;6.0238;-9.0740;9.2225;-0.0197;-0.0282;-0.0063
0000736966;6.1555;-8.8418;9.2033;-0.0292;-0.0256;-0.0096
0000736975;6.0478;-9.0549;9.2225;-0.0265;-0.0324;-0.0145
0000736984;6.0286;-8.8969;9.3134;-0.0296;-0.0252;-0.0141
0000736997;6.1890;-8.9088;9.2225;-0.0369;-0.0229;-0.0103
0000737006;5.8873;-8.9639;9.3302;-0.0237;-0.0333;-0.0145
0000737018;6.0166;-8.9328;9.3015;-0.0169;-0.0410;-0.0128
0000737027;5.9185;-9.0070;9.2823;-0.0233;-0.0384;-0.0075
0000737040;6.0334;-8.9974;9.2464;-0.0163;-0.0476;-0.0179
0000737049;6.0789;-8.8202;9.2895;-0.0201;-0.0405;-0.0127
0000737061;6.1531;-8.9519;9.3182;-0.0049;-0.0437;-0.0183
0000737070;5.9903;-9.1459;9.2608;0.0032;-0.0368;-0.0201
0000737083;6.1723;-8.9376;9.1267;0.0286;-0.0389;-0.0188
0000737092;6.0813;-8.9687;9.1315;0.0361;-0.0329;-0.0136
0000737101;6.0358;-8.9615;9.1099;0.0528;-0.0358;-0.0164
0000737113;5.9328;-8.9064;8.9807;0.0630;-0.0350;-0.0117
0000737122;5.8131;-8.8394;8.9543;0.0600;-0.0456;-0.0184
0000737191;5.8873;-9.9072;8.8490;0.3356;-0.0187;-0.0277
0000737200;5.9304;-9.7396;8.5138;0.4147;-0.0253;-0.0558
0000737212;5.9807;-9.2416;8.4132;0.4491;-0.0113;-0.0817
0000737221;5.8706;-8.8801;8.3965;0.4651;-0.0160;-0.0947
0000737234;5.7581;-8.1068;8.5497;0.4002;-0.0313;-0.1214
0000737243;5.7628;-7.9416;9.3230;0.3647;-0.0253;-0.1394
0000737252;5.7724;-8.0421;9.7851;0.3793;-0.0405;-0.1367
0000737264;6.0047;-8.4108;9.9072;0.4065;-0.0847;-0.1142
0000737273;6.2153;-8.5114;10.0006;0.4016;-0.1025;-0.1263
0000737286;7.0318;-8.3318;9.8330;0.3008;-0.0945;-0.1508
0000737295;7.4196;-8.2815;9.8258;0.2470;-0.0753;-0.1587
0000737307;7.2137;-8.4443;9.7923;0.1693;-0.0325;-0.1298
0000737316;7.2065;-8.2384;9.7492;0.1320;-0.0011;-0.1041
0000737329;6.7732;-8.0589;9.4044;0.0982;0.0434;-0.0470
0000737338;6.6607;-7.9416;9.3350;0.0701;0.0560;-0.0035
0000737347;6.2968;-8.0756;9.0285;0.0184;0.0678;0.0364
0000737359;6.0358;-8.5162;9.2512;-0.0179;0.0817;0.0957
0000737368;5.9855;-8.4851;9.3541;0.0129;0.0773;0.1327
0000737381;5.4636;-9.1842;9.6271;0.0576;0.0338;0.1607
0000737390;5.2170;-9.2967;9.6414;0.0845;-0.0149;0.1488
0000737402;5.1547;-9.4284;9.7683;0.1018;-0.0642;0.1218
0000737411;4.9704;-9.1219;9.5313;0.1055;-0.1092;0.1022
0000737480;6.5098;-8.9591;9.7731;0.2822;-0.1194;-0.0045
0000737489;6.7445;-8.7939;9.6391;0.3048;-0.1098;-0.0485
0000737498;6.7062;-8.8322;9.7396;0.3216;-0.0882;-0.0741
0000737510;6.3375;-8.8322;9.6917;0.4026;-0.0755;-0.0830
0000737519;5.9879;-8.8346;9.6630;0.4401;-0.0866;-0.0835
0000737532;5.7269;-8.8729;9.6103;0.4425;-0.0782;-0.0613
0000737541;5.4348;-8.8466;9.5170;0.4623;-0.0893;-0.0458
0000737553;5.5809;-8.6239;9.4236;0.5177;-0.1183;-0.0494
0000737562;5.3822;-8.8202;9.6941;0.5436;-0.1338;-0.0449
0000737575;5.5857;-9.0309;9.8761;0.6297;-0.1556;-0.0257
0000737584;5.6360;-9.1267;10.0533;0.6710;-0.1496;0.0028
0000737593;5.7628;-8.8562;9.9862;0.7181;-0.1464;0.0221
0000737605;5.7772;-8.5186;10.1682;0.7658;-0.1443;0.0357
0000737614;5.9544;-8.2576;10.1921;0.7629;-0.1540;0.0473
0000737627;5.7796;-8.3199;10.2352;0.7977;-0.1776;0.0418
0000737636;5.8682;-8.4252;10.2879;0.8567;-0.1956;0.0024
0000737648;6.5577;-7.8386;10.0485;0.9240;-0.2000;-0.0493
0000737657;6.9839;-7.3813;9.8138;0.9489;-0.1703;-0.0871
0000737671;7.2329;-7.6567;9.7971;1.0316;-0.1214;-0.0859
0000737680;7.3933;-7.6830;9.7899;1.0664;-0.0831;-0.0707
0000737689;7.2353;-7.8171;9.9359;1.0776;-0.0541;-0.0654
0000737702;6.8881;-7.7620;10.2352;1.0870;-0.0129;-0.0553
0000737711;6.6607;-7.5776;10.4124;1.1001;0.0056;-0.0345
0000737779;5.9137;-6.0669;10.5249;1.1249;0.1013;0.0942
0000737788;5.7461;-6.0454;10.4483;1.1690;0.0678;0.0589
0000737801;6.0118;-5.4205;10.3956;1.1803;0.0308;-0.0005
0000737810;5.9903;-5.4205;10.2185;1.1806;-0.0083;-0.0560
0000737822;5.6695;-5.4684;9.8976;1.1333;-0.0502;-0.0947
0000737831;5.5689;-5.1260;9.8330;1.0563;-0.0604;-0.1059
0000737840;5.8083;-4.6687;9.5122;1.0364;-0.0709;-0.1442
0000737853;5.8466;-4.8722;9.3230;0.9746;-0.0743;-0.1454
0000737862;6.0238;-4.7118;9.4379;0.9442;-0.0942;-0.1239
0000737874;6.4189;-4.8530;9.3781;0.9463;-0.1140;-0.1095
0000737883;6.2872;-4.8674;9.2847;0.9946;-0.1447;-0.0971
0000737896;6.0382;-5.1164;9.6438;1.0643;-0.1735;-0.0189
0000737905;5.5234;-5.4684;10.3693;1.1774;-0.2248;0.0336
0000737917;5.0326;-5.5881;11.1690;1.3832;-0.4029;0.0077
0000737926;4.7764;-5.1787;11.2958;1.4833;-0.5420;-0.1224
0000737935;4.7190;-4.0893;10.7308;1.5211;-0.5860;-0.2795
0000737948;5.6767;-2.2122;9.1842;1.5211;-0.4826;-0.4001
0000737957;7.0485;-1.6233;8.3797;1.4469;-0.3782;-0.3168
0000737969;8.5928;-1.9513;7.5609;1.2899;-0.2153;-0.1200
0000737978;8.3893;-2.1404;7.5369;1.1286;-0.0902;0.0354
0000737991;7.4029;-2.5809;8.2600;0.9706;-0.0029;0.1511
0000738000;6.2130;-2.4086;7.6231;0.9314;-0.0344;0.1503
0000738070;6.2177;-2.8635;6.8714;0.4654;-0.3195;0.0418
0000738079;6.2704;-3.0454;6.9671;0.4050;-0.3131;0.0292
0000738088;6.5098;-3.1101;7.1898;0.2886;-0.3112;0.0284
0000738101;6.4380;-3.5745;7.7812;0.2537;-0.3003;0.0111
0000738110;6.6679;-3.3615;8.0086;0.2334;-0.3120;-0.0176
0000738122;6.6128;-3.3279;7.9631;0.1849;-0.3435;-0.0682
0000738131;6.6966;-3.1795;8.0661;0.1553;-0.3840;-0.1051
0000738144;6.8498;-2.8539;8.0804;0.1250;-0.4153;-0.1624
0000738153;6.3877;-2.6384;7.9152;0.0420;-0.4543;-0.1467
0000738165;6.4811;-2.7054;8.3342;-0.0600;-0.4640;-0.1092
0000738174;6.7038;-3.1819;8.6574;-0.0863;-0.4610;-0.0630
0000738183;7.0006;-3.5578;9.1099;-0.0710;-0.4788;-0.0329
0000738196;6.7253;-3.7924;9.6247;-0.0260;-0.5625;-0.0177
0000738205;6.8043;-3.2657;10.0844;-0.0167;-0.6278;-0.0113
0000738217;7.1084;-2.5091;10.2544;-0.0249;-0.7013;-0.0454
0000738226;7.2042;-1.8699;10.0078;-0.0719;-0.7429;-0.0929
0000738239;7.7213;-1.1756;9.9958;-0.2037;-0.7324;-0.1468
0000738248;7.9224;-0.9960;10.0676;-0.3036;-0.6939;-0.1873
0000738260;7.5369;-1.2258;10.2639;-0.3898;-0.6991;-0.2666
0000738269;7.9799;-0.8715;10.4124;-0.4551;-0.7314;-0.3316
0000738282;8.0972;-0.9697;11.0540;-0.5248;-0.8215;-0.4254
0000738291;8.7293;-0.9194;11.3222;-0.5488;-0.8660;-0.5019
0000738300;9.1099;-1.2378;11.3964;-0.5465;-0.9156;-0.6034
0000738370;8.9735;-3.2705;9.7348;-0.7762;-0.7514;-0.5413
0000738379;9.0884;-3.2322;9.5217;-0.8295;-0.6594;-0.4898
0000738392;9.3422;-3.4189;9.0644;-0.9503;-0.5140;-0.4064
0000738399;9.4260;-3.5626;9.0166;-1.0195;-0.4297;-0.3581
0000738410;9.1985;-4.1276;8.8992;-1.0980;-0.3264;-0.2755
0000738418;8.9687;-4.3431;9.0453;-1.1351;-0.2683;-0.2285
0000738430;8.7987;-4.8100;9.1602;-1.1497;-0.1685;-0.1939
0000738438;8.7460;-4.9392;8.8992;-1.1572;-0.1078;-0.1779
0000738449;8.5617;-5.0015;8.7819;-1.2009;-0.0213;-0.1600
0000738457;8.7029;-4.8770;8.7388;-1.2406;0.0324;-0.1416
0000738465;8.5545;-4.8387;8.6215;-1.2907;0.0762;-0.1135
0000738477;8.3797;-4.8937;8.4898;-1.3382;0.1407;-0.1027
0000738485;8.2983;-4.9297;8.4420;-1.3638;0.1789;-0.0953
0000738496;7.9942;-5.3079;8.2887;-1.4007;0.2190;-0.0729
0000738504;7.8482;-5.6671;8.4467;-1.3967;0.2422;-0.0541
