time;acc_x;acc_y;acc_z;gyro_x;gyro_y;gyro_z
0000527205;7.7883;3.4285;1.3743;-0.2158;-1.1255;-0.1308
0000527214;7.5824;3.2034;1.3910;-0.2041;-1.1170;-0.1466
0000527221;7.3598;3.2202;1.1444;-0.2116;-1.1089;-0.1440
0000527229;7.4531;3.2968;1.2330;-0.2194;-1.1077;-0.1427
0000527237;7.1970;3.2178;1.3575;-0.2288;-1.0974;-0.1252
0000527245;7.3095;2.7892;1.2761;-0.2306;-1.0986;-0.1066
0000527253;7.1946;2.6193;1.3695;-0.2366;-1.0802;-0.0818
0000527261;7.4460;2.5163;1.3001;-0.2333;-1.0697;-0.0634
0000527269;7.8650;2.7605;1.3431;-0.2168;-1.0592;-0.0500
0000527277;7.8338;2.6695;1.3288;-0.2209;-1.0336;-0.0334
0000527285;8.0732;2.8635;1.2402;-0.2301;-1.0120;-0.0306
0000527293;7.9559;2.7845;1.3168;-0.2369;-0.9926;-0.0388
0000527301;8.0349;2.9473;1.4293;-0.2461;-0.9563;-0.0442
0000527309;8.0158;2.9880;1.4748;-0.2427;-0.9321;-0.0574
0000527317;8.1523;3.0358;1.4676;-0.2380;-0.9098;-0.0637
0000527325;8.1930;2.7725;1.4461;-0.2345;-0.8661;-0.0545
0000527333;8.1379;2.9090;1.6065;-0.2328;-0.8408;-0.0506
0000527341;7.8482;2.5977;1.4796;-0.2240;-0.8199;-0.0456
0000527349;8.0828;2.7988;1.6233;-0.2162;-0.8047;-0.0416
0000527357;7.7476;2.6384;1.5730;-0.2220;-0.7914;-0.0293
0000527365;7.7405;2.6504;1.6089;-0.2222;-0.7869;-0.0266
0000527373;7.7548;2.8156;1.6185;-0.2178;-0.7953;-0.0224
0000527381;7.5800;2.7222;1.5921;-0.2024;-0.8136;-0.0245
0000527389;7.7117;2.7007;1.5323;-0.1876;-0.8131;-0.0185
0000527397;7.6591;2.8084;1.4748;-0.1799;-0.8198;-0.0057
0000527405;7.7979;2.8084;1.4988;-0.1667;-0.8316;-0.0044
0000527413;8.0110;2.8802;1.3838;-0.1595;-0.8203;0.0159
0000527421;8.1906;2.8347;1.3168;-0.1515;-0.8027;0.0308
0000527429;8.3246;2.9257;1.4054;-0.1344;-0.7905;0.0409
0000527437;8.4659;2.9688;1.3815;-0.1336;-0.7592;0.0565
0000527445;8.4587;2.9305;1.2450;-0.1240;-0.7412;0.0605
0000527453;8.7580;2.9712;1.2474;-0.1228;-0.7171;0.0655
0000527461;8.6263;2.8683;1.2905;-0.1262;-0.6841;0.0679
0000527469;8.5808;2.8084;1.3168;-0.1212;-0.6598;0.0637
0000527477;8.6095;2.8347;1.4317;-0.1112;-0.6452;0.0565
0000527485;8.4060;2.7557;1.2498;-0.1092;-0.6186;0.0590
0000527493;8.3725;2.8539;1.3838;-0.1140;-0.6105;0.0560
0000527501;8.1092;2.7509;1.4126;-0.1195;-0.5939;0.0497
0000527509;7.9918;2.6959;1.3838;-0.1243;-0.5864;0.0570
0000527517;8.0206;2.8467;1.3862;-0.1246;-0.5915;0.0512
0000527525;8.0852;2.7677;1.4222;-0.1351;-0.5967;0.0505
0000527533;7.8889;2.8036;1.3695;-0.1458;-0.6135;0.0356
0000527541;7.9487;3.0263;1.3886;-0.1608;-0.6305;0.0314
0000527549;7.7764;2.8826;1.4820;-0.1740;-0.6532;0.0199
0000527557;7.9823;3.1292;1.4988;-0.1680;-0.6767;0.0007
0000527565;7.8051;2.9592;1.4150;-0.1687;-0.6817;0.0036
0000527573;8.0158;2.8563;1.4653;-0.1617;-0.6928;-0.0025
0000527581;8.0278;2.7461;1.5107;-0.1482;-0.7069;-0.0123
0000527589;8.3821;2.8347;1.4269;-0.1399;-0.7067;-0.0129
0000527597;8.1834;2.6624;1.4700;-0.1392;-0.6957;-0.0119
0000527605;8.6910;2.7629;1.5347;-0.1351;-0.6893;-0.0177
0000527613;8.5928;2.5211;1.5083;-0.1154;-0.6873;-0.0248
0000527621;8.8035;2.5666;1.4605;-0.0945;-0.6631;-0.0293
0000527629;8.9854;2.4038;1.3886;-0.0778;-0.6274;-0.0360
0000527637;8.8274;2.1811;1.3479;-0.0618;-0.5937;-0.0496
0000527645;9.2584;2.4062;1.2905;-0.0444;-0.5529;-0.0638
0000527653;9.3158;2.2841;1.2929;-0.0424;-0.5029;-0.0718
0000527661;9.2775;2.2913;1.0702;-0.0285;-0.4619;-0.0943
0000527669;9.2560;2.4612;1.0463;-0.0216;-0.4207;-0.1074
0000527677;9.1818;2.6552;1.0271;-0.0188;-0.3688;-0.1120
0000527685;9.0621;2.8012;1.0822;-0.0120;-0.3188;-0.1168
0000527693;9.3302;3.0742;1.1396;0.0087;-0.2836;-0.1160
0000527701;8.8322;2.9832;1.2498;0.0322;-0.2459;-0.1131
0000527709;8.7987;3.1532;1.2258;0.0581;-0.2041;-0.0959
0000527717;8.8562;3.1077;1.2522;0.0774;-0.1672;-0.0850
0000527725;8.7412;2.9808;1.1971;0.0937;-0.1427;-0.0842
0000527733;8.6910;3.0335;1.1732;0.1096;-0.1195;-0.0771
0000527741;8.5593;2.6839;1.1660;0.1148;-0.0886;-0.0769
0000527749;8.6383;2.7653;1.1444;0.1279;-0.0737;-0.0810
0000527757;8.6694;2.7318;0.9960;0.1214;-0.0461;-0.0785
0000527765;8.9256;2.8443;0.9601;0.1191;-0.0175;-0.0781
0000527773;8.8035;2.6887;0.9625;0.1234;0.0048;-0.0805
0000527800;9.1363;2.8922;0.9290;0.1006;0.1110;-0.0757
0000527808;9.0980;2.9449;0.9074;0.1070;0.1415;-0.0697
0000527816;8.8538;2.8563;0.8978;0.1051;0.1680;-0.0626
0000527824;8.8657;2.8491;0.9170;0.1085;0.1970;-0.0605
0000527832;9.1506;3.0047;0.9673;0.1043;0.2260;-0.0608
0000527840;9.0573;2.9521;0.9290;0.1038;0.2506;-0.0709
0000527848;9.0525;2.9616;1.0295;0.0997;0.2823;-0.0727
0000527856;9.1985;2.9568;0.9840;0.0978;0.3134;-0.0867
0000527864;9.1195;2.9377;0.9960;0.0929;0.3443;-0.0879
0000527872;9.2656;2.9329;1.0295;0.0843;0.3777;-0.0926
0000527880;8.8992;2.7246;1.2019;0.0821;0.3998;-0.1010
0000527888;8.7987;2.8180;1.0965;0.0674;0.4205;-0.0977
0000527896;8.8873;2.7533;1.2905;0.0577;0.4381;-0.1047
0000527904;8.7005;2.7940;1.2641;0.0534;0.4414;-0.1102
0000527912;8.8633;2.8850;1.3312;0.0542;0.4429;-0.1279
0000527920;8.4994;2.7629;1.3431;0.0445;0.4423;-0.1352
0000527928;8.5186;2.8850;1.4509;0.0374;0.4423;-0.1470
0000527936;8.4300;2.9377;1.3503;0.0373;0.4330;-0.1673
0000527944;8.5018;2.9640;1.3910;0.0276;0.4295;-0.1729
0000527952;8.3007;2.9161;1.3934;0.0117;0.4286;-0.1844
0000527960;8.2791;2.8371;1.4126;0.0076;0.4181;-0.2028
0000527968;8.1810;2.8012;1.3934;-0.0007;0.4126;-0.2113
0000527976;8.2935;2.7054;1.4940;0.0023;0.4030;-0.2281
0000527984;8.1044;2.5809;1.4222;0.0061;0.3900;-0.2399
0000527992;8.2121;2.6815;1.4988;0.0055;0.3864;-0.2447
0000528000;8.1427;2.7198;1.4150;0.0012;0.3760;-0.2514
0000528008;8.1810;2.7940;1.4724;-0.0075;0.3806;-0.2529
0000528016;8.1259;2.9281;1.4629;-0.0168;0.3800;-0.2598
0000528024;8.0637;2.8778;1.4461;-0.0139;0.3850;-0.2653
0000528032;8.0589;2.9042;1.3719;-0.0207;0.4081;-0.2603
0000528040;8.0637;2.9999;1.2833;-0.0266;0.4215;-0.2727
0000528048;7.9631;3.0071;1.4006;-0.0337;0.4505;-0.2594
0000528056;7.8410;3.2130;1.4198;-0.0350;0.4716;-0.2562
0000528064;7.7548;3.3016;1.4006;-0.0418;0.4966;-0.2281
0000528072;7.7165;3.3088;1.4724;-0.0489;0.5244;-0.1917
0000528080;7.6950;3.4405;1.3503;-0.0516;0.5520;-0.1625
0000528088;7.7812;3.6296;1.3264;-0.0613;0.5907;-0.1199
0000528096;7.7835;3.6129;1.4700;-0.0612;0.6201;-0.0774
0000528104;7.6303;3.5817;1.3886;-0.0661;0.6650;-0.0332
0000528112;7.5896;3.5913;1.4054;-0.0682;0.6997;0.0056
0000528120;7.5633;3.4979;1.4509;-0.0770;0.7418;0.0600
0000528128;7.7381;3.4764;1.4605;-0.0814;0.7821;0.1051
0000528136;7.9918;3.5602;1.4341;-0.0859;0.8163;0.1514
0000528144;7.8602;3.3926;1.3791;-0.1099;0.8612;0.1956
0000528152;8.0014;3.2729;1.3575;-0.1296;0.8982;0.2284
0000528160;8.0254;3.0789;1.4748;-0.1390;0.9387;0.2491
0000528168;8.0325;2.9233;1.4964;-0.1476;0.9816;0.2693
0000528176;7.9583;2.7150;1.5083;-0.1391;1.0207;0.2738
0000528184;7.8554;2.6217;1.6137;-0.1334;1.0591;0.2888
0000528192;7.6207;2.6121;1.4820;-0.1254;1.0982;0.2890
0000528200;7.1754;2.4373;1.4509;-0.1131;1.1233;0.2899
0000528208;7.0940;2.5570;1.3767;-0.1055;1.1523;0.2994
0000528216;7.0677;2.7054;1.3216;-0.0941;1.1758;0.3070
0000528224;6.8881;2.9616;1.2857;-0.0775;1.1924;0.3048
0000528232;6.6583;2.9592;1.1420;-0.0662;1.1968;0.2968
0000528240;6.5362;2.9808;0.9266;-0.0706;1.2007;0.2838
0000528248;6.4524;3.2872;0.7638;-0.0875;1.1965;0.2686
0000528256;6.2010;3.1987;0.6512;-0.1062;1.1880;0.2362
0000528264;6.1507;3.3519;0.5650;-0.1388;1.1674;0.2020
0000528272;6.0430;3.3974;0.5698;-0.1756;1.1430;0.1788
0000528280;5.8610;3.3926;0.6464;-0.2086;1.1078;0.1589
0000528288;5.5067;3.3950;0.7398;-0.2174;1.0512;0.1344
0000528296;5.1739;3.5003;0.8475;-0.2176;0.9858;0.1323
0000528304;4.9512;3.3878;0.8882;-0.2052;0.9062;0.1392
0000528312;4.5586;3.2298;0.9290;-0.1807;0.8103;0.1331
0000528320;4.4436;3.2034;0.9960;-0.1633;0.7135;0.1263
0000528328;4.6088;3.1580;0.8571;-0.1523;0.6306;0.1158
0000528336;5.0063;3.1915;0.9625;-0.1360;0.5388;0.0863
0000528344;5.2074;3.0311;0.9409;-0.1119;0.4662;0.0707
0000528352;5.2744;2.8826;0.9505;-0.0782;0.3970;0.0448
0000528360;5.4133;2.8970;0.9361;-0.0380;0.3305;0.0211
0000528368;5.4277;2.7485;0.8092;-0.0077;0.2791;0.0092
0000528376;5.6168;2.8754;0.6991;0.0151;0.2233;-0.0011
0000528384;5.5569;2.8347;0.6752;0.0356;0.1752;-0.0123
0000528470;5.7652;3.0694;0.3304;0.1958;-0.0622;0.0023
0000528478;5.7150;3.2968;0.4142;0.1875;-0.0761;0.0029
0000528486;5.8778;3.4668;0.5004;0.1833;-0.0843;0.0096
0000528494;5.7437;3.3208;0.5555;0.1943;-0.0986;0.0043
0000528502;5.8035;3.3040;0.5578;0.2026;-0.1015;0.0089
0000528510;5.7868;3.0215;0.7254;0.2024;-0.1094;0.0176
0000528518;5.8442;2.9137;0.7566;0.2010;-0.1102;0.0250
0000528526;5.8538;2.9137;0.9529;0.2013;-0.0987;0.0402
0000528534;5.8610;2.7461;1.0726;0.1933;-0.0779;0.0445
0000528542;6.0478;2.9305;1.0965;0.1879;-0.0663;0.0584
0000528550;6.2968;3.0263;0.9936;0.1787;-0.0578;0.0753
0000528558;6.2058;3.1963;0.9936;0.1569;-0.0493;0.0955
0000528566;6.3087;3.1603;1.0247;0.1398;-0.0500;0.1061
0000528574;6.3470;3.1651;1.0822;0.1298;-0.0498;0.1086
0000528582;6.4715;3.3950;1.1181;0.1159;-0.0430;0.1049
0000528590;6.2584;3.2753;1.1301;0.1106;-0.0492;0.0933
0000528598;6.0525;3.3710;1.1971;0.1132;-0.0636;0.0823
0000528606;5.7892;3.3375;1.1468;0.0930;-0.0749;0.0811
0000528614;5.8730;3.4788;1.2713;0.0771;-0.0878;0.0726
0000528622;5.5809;3.3519;1.1444;0.0723;-0.1146;0.0701
0000528630;5.5138;3.2130;1.2067;0.0758;-0.1431;0.0734
0000528638;5.5545;3.1364;1.2570;0.0790;-0.1756;0.0762
0000528646;5.7317;3.0311;1.1803;0.0823;-0.2013;0.0853
0000528654;5.6838;2.9329;1.1037;0.0875;-0.2385;0.0767
0000528662;5.8371;3.2034;0.9313;0.0885;-0.2840;0.0722
0000528670;5.9520;3.2681;0.9122;0.0649;-0.3170;0.0753
0000528678;6.2034;3.4884;0.8140;0.0372;-0.3397;0.0646
0000528686;6.2752;3.6176;0.8906;0.0139;-0.3784;0.0434
0000528694;6.6846;3.8140;0.9768;-0.0053;-0.3954;0.0233
0000528702;6.7253;3.8307;0.9122;-0.0269;-0.4122;0.0037
0000528710;6.6415;3.6871;1.0175;-0.0429;-0.4321;-0.0285
0000528718;6.5625;3.6152;1.1109;-0.0450;-0.4559;-0.0584
0000528726;6.3782;3.4812;1.1109;-0.0505;-0.4678;-0.0778
0000528734;6.3255;3.1723;1.1325;-0.0588;-0.4892;-0.0893
0000528742;6.3063;3.2178;1.1085;-0.0629;-0.5120;-0.1006
0000528750;6.1196;2.9090;1.1564;-0.0662;-0.5461;-0.1070
0000528758;6.0980;2.8371;1.2258;-0.0753;-0.5788;-0.1104
0000528766;6.2345;2.9185;1.1301;-0.0899;-0.5989;-0.1131
0000528774;6.3183;2.8299;1.1588;-0.0943;-0.6217;-0.1236
0000528782;6.4596;2.9377;1.2258;-0.0874;-0.6470;-0.1399
0000528790;6.5745;2.9233;1.2498;-0.0875;-0.6670;-0.1482
0000528798;6.8235;2.9497;1.2210;-0.0809;-0.6698;-0.1524
0000528806;7.0892;3.1196;1.1732;-0.0750;-0.6647;-0.1611
0000528814;7.2736;2.9329;1.1229;-0.0621;-0.6499;-0.1723
0000528822;7.4508;2.8491;1.0558;-0.0336;-0.6315;-0.1843
0000528830;7.5824;2.7725;1.0247;-0.0155;-0.5925;-0.1796
0000528838;7.8650;2.8371;0.9098;0.0051;-0.5474;-0.1769
0000528846;7.8554;2.9281;0.8356;0.0217;-0.5128;-0.1749
0000528854;8.0685;3.0167;0.7039;0.0292;-0.4651;-0.1655
0000528862;7.7907;2.8012;0.6919;0.0163;-0.4182;-0.1496
0000528870;7.8793;2.9928;0.7183;0.0200;-0.3685;-0.1323
0000528878;7.8793;2.9808;0.6369;0.0204;-0.3316;-0.1239
0000528886;8.0230;3.1699;0.7805;0.0109;-0.2834;-0.1041
0000528894;8.1355;3.1699;0.7183;0.0099;-0.2493;-0.0981
0000528902;8.0349;3.2298;0.6249;0.0160;-0.2057;-0.0877
0000528910;8.0014;3.2777;0.5914;0.0213;-0.1792;-0.0757
0000528918;7.9847;3.3758;0.5626;0.0248;-0.1587;-0.0855
0000528926;7.6830;3.2825;0.5698;0.0229;-0.1290;-0.0867
0000528934;7.6519;3.2657;0.5195;0.0164;-0.1045;-0.0850
0000528942;7.4340;3.2178;0.5914;0.0216;-0.0969;-0.0889
0000528950;7.2712;3.2801;0.5794;0.0252;-0.0997;-0.0830
0000528958;7.3191;3.2633;0.6297;0.0147;-0.0975;-0.0721
0000528966;7.1587;3.2753;0.6345;0.0064;-0.1034;-0.0675
0000528974;7.0006;3.1077;0.7135;-0.0003;-0.1212;-0.0646
0000528982;7.1299;3.1508;0.7781;-0.0136;-0.1359;-0.0521
0000528990;6.9911;3.2226;0.6895;-0.0317;-0.1522;-0.0498
0000528998;7.0270;3.1556;0.7781;-0.0377;-0.1781;-0.0573
0000529006;7.1395;3.1747;0.6847;-0.0572;-0.1855;-0.0598
0000529014;7.0102;3.1987;0.7135;-0.0673;-0.2076;-0.0726
0000529022;7.2688;3.2633;0.7302;-0.0717;-0.2306;-0.0869
0000529030;7.2161;3.2777;0.6895;-0.0819;-0.2473;-0.0963
0000529038;7.2951;3.3782;0.5531;-0.0842;-0.2734;-0.1021
0000529046;7.0509;3.1795;0.6536;-0.0962;-0.2910;-0.1034
0000529054;7.0653;3.0742;0.6728;-0.1102;-0.3078;-0.1102
0000529140;7.5561;2.9664;0.7207;-0.1640;-0.3781;-0.1166
0000529148;7.7333;3.1340;0.8452;-0.1685;-0.3672;-0.1200
0000529156;7.5585;3.0957;0.6943;-0.1696;-0.3532;-0.1107
0000529164;7.7045;3.0287;0.6823;-0.1736;-0.3473;-0.1163
0000529172;7.6830;3.0718;0.7039;-0.1745;-0.3281;-0.1077
0000529180;7.5417;2.9066;0.7638;-0.1791;-0.3142;-0.1082
0000529188;7.4843;3.0335;0.8284;-0.1721;-0.3086;-0.1111
0000529196;7.3502;2.9784;0.6991;-0.1683;-0.2987;-0.1025
0000529204;7.4268;3.0335;0.8452;-0.1689;-0.2926;-0.0997
0000529212;7.4388;3.0526;0.7733;-0.1679;-0.2891;-0.0971
0000529220;7.3813;3.0167;0.7422;-0.1756;-0.2825;-0.1005
0000529228;7.4723;3.1053;0.7733;-0.1747;-0.2862;-0.1035
0000529236;7.3741;2.9856;0.8308;-0.1768;-0.2825;-0.1067
0000529244;7.5154;2.9880;0.7853;-0.1843;-0.2771;-0.1103
0000529252;7.5441;3.0574;0.8164;-0.1883;-0.2706;-0.1130
0000529260;7.3478;2.9497;0.7135;-0.1931;-0.2669;-0.1167
0000529268;7.4915;3.0406;0.7853;-0.1984;-0.2590;-0.1182
0000529276;7.6519;3.1149;0.7207;-0.2062;-0.2386;-0.1174
0000529284;7.4340;3.0239;0.6728;-0.2081;-0.2289;-0.1162
0000529292;7.4388;3.0526;0.7063;-0.2054;-0.2221;-0.1151
0000529300;7.4053;2.9568;0.6943;-0.2025;-0.2112;-0.1050
0000529308;7.3454;3.0694;0.6943;-0.2028;-0.1993;-0.1045
0000529316;7.6255;3.1125;0.5986;-0.2082;-0.1829;-0.0971
0000529324;7.4364;3.0191;0.6009;-0.2085;-0.1804;-0.0997
0000529332;7.3741;2.9449;0.6393;-0.2144;-0.1683;-0.1018
0000529340;7.7452;3.1508;0.5602;-0.2278;-0.1557;-0.1013
0000529348;7.4508;3.0694;0.6297;-0.2399;-0.1555;-0.1091
0000529356;7.4699;3.0622;0.6584;-0.2434;-0.1563;-0.1140
0000529364;7.5298;3.0071;0.5459;-0.2546;-0.1479;-0.1171
0000529372;7.4101;2.9353;0.6488;-0.2567;-0.1467;-0.1262
0000529380;7.4603;2.8778;0.6895;-0.2594;-0.1412;-0.1255
0000529388;7.4196;2.9353;0.6728;-0.2583;-0.1439;-0.1320
0000529396;7.4555;2.9449;0.6297;-0.2546;-0.1319;-0.1227
0000529404;7.0940;2.7438;0.6033;-0.2513;-0.1340;-0.1160
0000529412;7.1946;2.8347;0.5890;-0.2479;-0.1262;-0.1103
0000529420;7.4029;2.9449;0.5650;-0.2394;-0.1270;-0.1066
0000529428;7.2592;2.8706;0.5004;-0.2338;-0.1331;-0.1092
0000529436;7.2472;2.8994;0.5004;-0.2384;-0.1270;-0.0987
0000529444;7.3741;2.9904;0.4717;-0.2352;-0.1288;-0.1067
0000529452;7.1682;2.8443;0.6009;-0.2419;-0.1258;-0.1011
0000529460;7.1371;2.9640;0.5483;-0.2402;-0.1358;-0.1082
0000529468;7.2736;2.9951;0.4501;-0.2502;-0.1411;-0.0977
0000529476;6.9073;2.7318;0.5148;-0.2549;-0.1491;-0.1021
0000529484;7.0174;2.8946;0.3974;-0.2573;-0.1661;-0.0994
0000529492;7.1036;3.0933;0.3926;-0.2626;-0.1696;-0.0867
0000529500;7.0102;2.9904;0.4717;-0.2707;-0.1701;-0.0785
0000529508;7.1204;3.1220;0.4405;-0.2734;-0.1824;-0.0765
0000529516;7.1323;2.9664;0.3735;-0.2823;-0.1869;-0.0614
0000529524;7.0509;2.8156;0.4070;-0.2770;-0.2013;-0.0661
0000529532;7.0366;2.8347;0.3998;-0.2755;-0.2160;-0.0719
0000529540;6.9959;2.8036;0.4070;-0.2864;-0.2216;-0.0682
0000529548;7.2640;2.7749;0.4932;-0.2843;-0.2429;-0.0793
0000529556;6.8905;2.6600;0.3926;-0.2838;-0.2534;-0.0853
0000529564;6.9647;2.7054;0.4166;-0.2938;-0.2649;-0.0939
0000529572;6.9336;2.6887;0.4142;-0.2934;-0.2862;-0.0934
0000529580;6.7133;2.5019;0.4286;-0.2793;-0.2990;-0.0901
0000529588;6.8163;2.5738;0.4812;-0.2601;-0.3172;-0.0857
0000529596;6.6559;2.5402;0.5076;-0.2506;-0.3212;-0.0753
0000529604;6.5912;2.1859;0.4908;-0.2280;-0.3348;-0.0673
0000529612;6.8235;2.2745;0.5842;-0.2014;-0.3479;-0.0677
0000529620;6.9504;2.3032;0.5794;-0.1848;-0.3543;-0.0654
0000529628;6.9983;2.3607;0.5459;-0.1840;-0.3516;-0.0468
0000529636;7.1132;2.2314;0.4573;-0.1821;-0.3584;-0.0418
0000529644;7.1922;2.4876;0.4166;-0.1784;-0.3680;-0.0338
0000529652;7.1754;2.5355;0.4238;-0.1940;-0.3672;-0.0280
0000529660;7.1563;2.7749;0.4070;-0.2224;-0.3685;-0.0224
0000529668;7.0102;2.6935;0.2921;-0.2521;-0.3798;-0.0289
0000529676;7.0701;2.8204;0.4405;-0.2715;-0.3797;-0.0329
0000529684;6.9647;2.6624;0.3328;-0.3170;-0.3777;-0.0318
0000529692;6.8331;2.6097;0.3663;-0.3488;-0.3821;-0.0318
0000529700;6.9408;2.4014;0.4836;-0.3403;-0.3845;-0.0261
0000529787;7.0581;1.1636;0.3352;-0.3801;-0.4135;-0.0131
0000529795;7.2401;1.1085;0.3352;-0.3663;-0.4138;0.0195
0000529803;7.1874;1.1229;0.3615;-0.3776;-0.4064;0.0286
0000529811;7.0198;0.8667;0.5076;-0.4313;-0.3817;0.0305
0000529819;7.3167;0.8691;0.2059;-0.4746;-0.3505;0.0240
0000529827;7.5633;0.5435;0.3974;-0.4547;-0.3267;0.0282
0000529835;7.6040;0.3879;0.5626;-0.4058;-0.2878;0.0482
0000529843;7.6088;0.0144;0.5770;-0.3888;-0.2338;0.0657
0000529851;7.5513;-0.3663;0.7302;-0.3503;-0.1921;0.0659
0000529859;7.5034;-0.9361;0.7374;-0.2912;-0.1677;0.0650
0000529867;7.4220;-1.3431;0.6728;-0.2414;-0.1323;0.0706
0000529875;7.2353;-1.5730;0.7638;-0.1573;-0.1179;0.0420
0000529883;6.8738;-1.7693;1.0032;-0.1251;-0.1037;0.0151
0000529891;6.8043;-1.7071;0.5890;-0.0342;-0.1224;0.0085
0000529899;6.4931;-1.7885;0.5986;0.0630;-0.1394;0.0264
0000529907;6.3327;-1.7334;0.2945;0.1320;-0.1557;0.0450
0000529915;6.2321;-1.5921;-0.1149;0.1952;-0.1689;0.0537
0000529923;6.2680;-1.2617;-0.6440;0.2418;-0.1663;0.0698
0000529931;6.5817;-0.9122;-1.0606;0.2421;-0.1386;0.0979
0000529939;7.0533;-0.3304;-1.2163;0.2153;-0.1002;0.1239
0000529947;7.3885;-0.0215;-1.1971;0.1529;-0.0655;0.1551
0000529955;7.4220;-0.1245;-1.1396;0.0917;-0.0377;0.1891
0000529963;7.4388;-0.3041;-0.9098;0.0557;-0.0148;0.2177
0000529971;7.1874;-0.7997;-0.6081;0.0333;-0.0008;0.2318
0000529979;6.6152;-1.5490;-0.2897;0.0377;-0.0284;0.2310
0000529987;6.2177;-2.3056;-0.1389;0.0713;-0.0746;0.2152
0000529995;5.8993;-2.5881;-0.0311;0.0893;-0.1573;0.1697
0000530003;5.8323;-2.0949;-0.1556;0.0865;-0.2729;0.1085
0000530011;5.6168;-1.9178;-0.5674;0.0061;-0.3768;0.0294
0000530019;5.6719;-1.3671;-0.8499;-0.0755;-0.4366;0.0035
0000530027;5.8059;-1.0295;-0.6081;-0.1645;-0.4562;0.0224
0000530035;6.5170;-0.5746;-0.1676;-0.2690;-0.4112;0.0790
0000530043;7.1251;-0.6201;0.6584;-0.3705;-0.3519;0.1219
0000530051;7.9009;-0.4381;1.7789;-0.5091;-0.2766;0.1447
0000530059;8.1882;-0.5124;2.6169;-0.6455;-0.2324;0.1218
0000530067;7.9080;-0.9122;3.1699;-0.7618;-0.2126;0.0941
0000530075;7.5657;-1.5203;3.8259;-0.9001;-0.2232;0.0706
0000530083;6.6798;-2.5570;4.7836;-1.0990;-0.2296;0.0389
0000530091;6.3015;-3.2896;5.6072;-1.1860;-0.2352;0.0458
0000530099;5.8921;-3.8068;5.8442;-1.2558;-0.2385;0.0657
0000530107;5.7892;-3.6176;5.4947;-1.3526;-0.2334;0.0843
0000530115;5.5976;-3.4237;5.1595;-1.4845;-0.2539;0.0969
0000530123;5.7700;-3.5650;4.6017;-1.6421;-0.2920;0.0973
0000530131;5.7197;-3.4979;4.1228;-1.8302;-0.3324;0.0532
0000530139;5.2553;-3.6272;2.9808;-1.9951;-0.3804;0.0021
0000530147;4.2737;-3.3854;0.7901;-2.1181;-0.3612;-0.0434
0000530155;3.5099;0.1389;-3.8930;-2.3168;-0.2777;0.0226
0000530163;2.0782;8.3510;-10.3860;-2.8581;-0.4237;0.2262
0000530171;-2.1907;33.3848;-12.9143;-4.2650;-1.2851;0.5187
0000530179;-9.7109;72.0487;-10.3501;-3.2261;-2.0090;2.0777
0000530187;4.3215;61.4208;-9.2249;-2.5860;-1.2205;2.5832
0000530195;20.4058;29.7863;-6.8953;-4.3657;-1.3408;1.9939
0000530203;25.9962;13.4171;1.0534;-4.3657;-1.4552;0.7478
0000530211;24.3155;4.3311;7.0030;-4.3657;-1.0950;-0.4926
0000530219;18.9860;-5.2744;12.1793;-4.3657;-0.5764;-1.1173
0000530227;14.9877;-18.5383;18.0427;-4.3657;0.2787;-0.9126
0000530235;12.6725;-28.3114;17.3604;-4.3657;1.1724;-0.3236
0000530243;11.9088;-25.3546;12.1218;-4.3657;1.4629;0.0550
0000530251;9.5912;-15.6389;3.1412;-4.0522;1.5352;0.3424
0000530259;8.0517;-7.0270;-1.8531;-3.4251;1.5188;0.7238
0000530267;4.6112;-2.9568;-2.4541;-3.4723;1.4354;0.9176
0000530275;1.5347;-1.8986;-1.9489;-4.3062;1.3679;0.7882
0000530283;1.0175;-2.8036;-4.7932;-4.3657;1.1638;0.7727
0000530291;1.9920;-4.2497;-6.8187;-4.3657;0.7097;0.8708
0000530299;2.5833;-5.4923;-6.5577;-4.3657;0.2798;0.9149
0000530307;2.8802;-7.1491;-4.2928;-4.3657;0.0175;0.8861
0000530315;3.3399;-10.5153;1.3599;-4.3657;-0.0410;0.8062
0000530323;3.1220;-17.8727;11.7699;-3.8882;0.0557;0.6362
0000530331;3.6272;-27.1862;26.2069;-2.5486;0.1661;0.1801
0000530339;5.3630;-33.5499;34.0048;-0.9213;-0.0542;-0.2261
0000530347;3.6272;-27.4016;33.4422;-0.1671;-0.4207;-0.4381
0000530355;5.9400;-15.0164;24.5142;-0.2270;-0.6863;-0.6338
0000530441;6.8067;-11.6813;16.5272;-0.4016;-0.0628;0.3042
0000530449;5.6192;-6.3446;7.4412;-0.9770;-0.0281;0.5665
0000530457;4.8818;-4.9584;2.9233;-1.9765;-0.2366;0.7630
0000530465;4.6424;-4.2976;0.8835;-2.7552;-0.6171;0.7317
0000530473;4.4484;-4.4125;0.4573;-3.0423;-0.8304;0.5381
0000530481;4.0989;-5.3534;3.0861;-2.8015;-0.7326;0.3226
0000530489;3.9409;-7.9703;7.2736;-2.1526;-0.4778;0.2430
0000530497;5.0446;-10.3741;9.1554;-1.4477;-0.3921;0.2922
0000530505;7.6399;-11.1857;8.4491;-1.0006;-0.5808;0.5017
0000530513;9.8426;-11.4060;7.4627;-1.0046;-0.6900;0.7911
0000530521;11.6191;-11.9327;6.5410;-1.2931;-0.6235;0.9687
0000530529;12.5672;-13.4410;6.4524;-1.6040;-0.4514;0.9462
0000530537;13.2495;-15.2487;8.1163;-1.6674;-0.3540;0.7414
0000530545;11.4970;-16.2351;9.9359;-1.5056;-0.3076;0.4395
0000530553;9.6007;-15.6389;10.3813;-1.1759;-0.3078;0.2542
0000530561;8.4827;-13.9079;10.6111;-0.8291;-0.3440;0.2342
0000530569;7.9440;-11.8345;10.6135;-0.5620;-0.3709;0.3098
0000530577;7.2712;-10.5608;10.5273;-0.4159;-0.4122;0.3858
0000530585;7.0749;-10.1801;10.4555;-0.2936;-0.4603;0.4249
0000530593;7.2449;-10.9607;10.1897;-0.1398;-0.5056;0.4265
0000530601;7.5154;-12.1171;9.6822;0.0312;-0.5296;0.4004
0000530609;7.9009;-12.8617;9.0788;0.1845;-0.5436;0.3817
0000530617;8.2600;-13.3261;8.3941;0.3004;-0.5293;0.3734
0000530625;8.4084;-13.7331;8.0325;0.4171;-0.4991;0.3547
0000530633;8.8274;-13.7738;7.8961;0.5235;-0.4383;0.3305
0000530641;9.1315;-13.5608;7.7093;0.5994;-0.3556;0.2868
0000530649;9.5648;-12.8952;7.6878;0.6691;-0.2689;0.2224
0000530657;9.4954;-11.8968;7.6303;0.7488;-0.1881;0.1508
0000530665;9.5026;-10.8769;7.7261;0.7934;-0.0891;0.0990
0000530673;9.4212;-10.1682;7.6950;0.8072;0.0147;0.0617
0000530681;9.6558;-9.6630;7.8338;0.8274;0.0951;0.0277
0000530689;9.6965;-9.5600;7.4843;0.8496;0.1853;0.0184
0000530697;9.6917;-9.6534;7.3502;0.8741;0.2577;0.0388
0000530705;9.7851;-9.6031;7.1946;0.8901;0.3152;0.0653
0000530713;9.8569;-9.7492;7.4675;0.8507;0.3579;0.1077
0000530721;10.0963;-9.5122;7.7572;0.7802;0.4068;0.1424
0000530729;10.3645;-9.4595;8.1666;0.7406;0.4405;0.1212
0000530737;10.7141;-9.1985;8.5473;0.6860;0.4796;0.0797
0000530745;10.8840;-9.0285;8.5353;0.6423;0.5316;0.0216
0000530753;10.9966;-8.7700;8.7293;0.5578;0.5872;-0.0168
0000530761;11.2958;-8.4851;8.8681;0.5203;0.6335;-0.0858
0000530769;11.3772;-8.3510;8.8226;0.4704;0.6808;-0.1360
0000530777;11.2144;-8.4180;8.7652;0.4341;0.7135;-0.1705
0000530785;10.8912;-8.3845;8.3749;0.4158;0.7260;-0.1828
0000530793;10.4028;-8.3845;8.3749;0.3866;0.7182;-0.1551
0000530801;9.1004;-8.2911;8.1666;0.3256;0.7281;-0.0731
0000530809;7.4723;-7.8290;8.4396;0.2514;0.7663;0.0145
0000530817;6.0885;-7.0773;9.2440;0.1788;0.8407;0.0087
0000530825;5.2768;-6.6080;10.3310;0.0861;0.8934;-0.0890
0000530833;4.9919;-6.1124;11.3820;-0.0492;0.8917;-0.1785
0000530841;5.0901;-6.2153;12.1362;-0.1699;0.7878;-0.2725
0000530849;5.6216;-6.1651;12.4283;-0.2345;0.5825;-0.3018
0000530857;5.9376;-6.7660;12.4115;-0.2495;0.3493;-0.2714
0000530865;6.1220;-7.3191;11.6981;-0.2266;0.1218;-0.2304
0000530873;6.1818;-8.0517;10.6422;-0.1709;-0.0337;-0.1819
0000530881;6.1986;-8.4731;9.7971;-0.1035;-0.1034;-0.1332
0000530889;6.3039;-8.6886;9.0309;-0.0156;-0.1096;-0.1151
0000530897;6.0861;-8.8729;8.6479;0.0645;-0.0769;-0.1050
0000530905;6.2177;-9.1171;8.6024;0.1007;-0.0270;-0.1031
0000530913;6.2321;-9.3278;8.6095;0.1021;0.0017;-0.1176
0000530921;6.1483;-9.3015;8.6431;0.1204;-0.0184;-0.1518
0000530929;6.6439;-9.2081;8.5808;0.1797;-0.0610;-0.1837
0000530937;6.6750;-9.1698;8.3438;0.2662;-0.0989;-0.2040
0000530945;7.0461;-8.8538;8.2193;0.3639;-0.0962;-0.2406
0000530953;7.1658;-8.8131;8.0565;0.4346;-0.0382;-0.2605
0000530961;7.0509;-8.4324;8.0493;0.4915;0.0342;-0.2919
0000530969;7.2449;-7.8219;7.9727;0.5393;0.0854;-0.3291
0000530977;6.8618;-7.4939;8.3175;0.5464;0.1306;-0.3557
0000530985;6.8570;-6.5984;8.9567;0.4964;0.1751;-0.3698
0000530993;6.6822;-5.8754;9.5337;0.3918;0.2057;-0.3906
0000531001;6.5170;-5.2529;9.9192;0.2462;0.2050;-0.4097
0000531087;8.2552;-8.1882;9.9359;-0.4491;-0.6747;0.1812
0000531095;9.0525;-8.0996;8.7508;-0.4578;-0.5029;0.0127
0000531103;9.4523;-8.0637;7.3789;-0.3115;-0.2593;-0.1623
0000531111;9.9359;-7.7476;6.3470;-0.1335;0.0129;-0.2407
0000531119;9.8904;-7.9224;6.1100;-0.0803;0.2248;-0.2161
0000531127;9.8737;-7.4124;6.8905;-0.1384;0.3126;-0.0886
0000531135;9.3254;-6.4787;8.2480;-0.2076;0.3187;0.1140
0000531143;8.2911;-6.1627;9.4020;-0.2280;0.2665;0.2554
0000531151;7.4148;-6.0406;10.0102;-0.2429;0.1958;0.2860
0000531159;6.5050;-6.5817;9.9503;-0.2673;0.1399;0.2746
0000531167;6.2369;-7.1994;9.8976;-0.2907;0.1010;0.2509
0000531175;6.1603;-8.0349;9.9311;-0.3092;0.0818;0.2602
0000531183;6.5003;-8.7676;10.2735;-0.3131;0.0412;0.2775
0000531191;6.9767;-9.5098;10.4315;-0.2713;-0.0025;0.2910
0000531199;7.6303;-9.7707;10.8242;-0.1867;-0.0492;0.2758
0000531207;8.2097;-9.9886;10.8840;-0.1018;-0.0791;0.2562
0000531215;8.5641;-10.0317;10.5273;-0.0309;-0.0943;0.2278
0000531223;8.7795;-9.7492;10.0485;0.0265;-0.0893;0.1832
0000531231;8.6742;-9.2201;9.4308;0.0847;-0.0642;0.1492
0000531239;8.8083;-8.5880;8.9471;0.1183;-0.0075;0.1339
0000531247;8.6263;-7.9607;8.7604;0.1282;0.0418;0.1182
0000531255;8.3558;-7.6064;8.5856;0.0794;0.0902;0.1136
0000531263;8.0206;-7.1299;8.7077;-0.0036;0.1206;0.1142
0000531271;7.7835;-6.9360;8.9064;-0.0903;0.1188;0.1134
0000531279;7.4196;-7.1299;9.2608;-0.1569;0.1082;0.1379
0000531287;7.3454;-7.4436;9.2488;-0.2093;0.0986;0.1649
0000531295;7.2975;-8.1594;9.2847;-0.2366;0.0834;0.1753
0000531303;7.2065;-8.9447;9.2608;-0.2358;0.0779;0.1701
0000531311;7.2544;-9.4164;9.3637;-0.2209;0.0851;0.1519
0000531319;7.2305;-9.9096;9.3518;-0.1837;0.0757;0.1162
0000531327;7.2305;-10.0820;9.5026;-0.1367;0.0589;0.0713
0000531335;7.5346;-9.9742;9.5816;-0.0922;0.0496;0.0268
0000531343;7.6471;-9.9431;9.5816;-0.0200;0.0266;-0.0161
0000531351;7.5489;-9.9910;9.5768;0.0513;0.0111;-0.0408
0000531359;7.6207;-9.5098;9.4092;0.1134;0.0040;-0.0572
0000531367;7.4843;-9.0764;9.1746;0.1391;0.0112;-0.0682
0000531375;7.2927;-9.0046;9.1698;0.1344;0.0072;-0.0851
0000531383;7.1180;-8.6479;8.9998;0.1059;-0.0113;-0.0995
0000531391;7.1802;-8.3055;9.0884;0.0653;-0.0262;-0.1187
0000531399;7.1132;-8.1930;9.1578;0.0357;-0.0521;-0.1331
0000531407;6.8546;-8.0948;9.3134;0.0033;-0.0729;-0.1463
0000531415;6.7325;-8.0589;9.3374;-0.0117;-0.0889;-0.1665
0000531423;6.7540;-8.0732;9.3925;-0.0205;-0.0811;-0.1913
0000531431;6.7636;-8.1403;9.2560;-0.0024;-0.0354;-0.2132
0000531439;6.8115;-8.3270;9.0070;0.0120;0.0258;-0.2301
0000531447;6.9647;-8.1068;9.0740;0.0264;0.0723;-0.2312
0000531455;6.8450;-8.0038;9.3757;0.0377;0.0666;-0.2049
0000531463;7.0102;-7.6734;9.7085;0.0490;0.0312;-0.1374
0000531471;7.0773;-7.3837;9.9431;0.0562;-0.0185;-0.0685
0000531479;7.0461;-7.5226;9.7947;0.0739;-0.0638;-0.0233
0000531487;7.3191;-7.4244;9.6199;0.0715;-0.0879;-0.0052
0000531495;7.2161;-7.6638;9.4571;0.0352;-0.0871;-0.0008
0000531503;7.6279;-7.7548;9.3661;-0.0079;-0.0834;-0.0035
0000531511;7.7093;-8.0014;9.3757;-0.0376;-0.0757;-0.0012
0000531519;7.9080;-8.1714;9.3972;-0.0361;-0.0695;0.0033
0000531527;8.1163;-8.2576;9.4236;-0.0281;-0.0590;0.0248
0000531535;8.1451;-8.1427;9.4116;-0.0124;-0.0572;0.0346
0000531543;7.9464;-8.2145;9.3757;0.0081;-0.0622;0.0462
0000531551;7.9559;-7.8793;9.2895;0.0063;-0.0614;0.0613
0000531559;7.5441;-7.8961;9.2129;-0.0084;-0.0675;0.0610
0000531567;7.4651;-7.8147;9.2608;-0.0422;-0.0737;0.0659
0000531575;7.3310;-8.0565;9.2344;-0.0727;-0.0821;0.0613
0000531583;7.4196;-8.0493;9.2799;-0.1014;-0.0890;0.0642
0000531591;7.7405;-8.1116;9.2871;-0.1127;-0.1030;0.0521
0000531599;7.6040;-8.4563;9.3158;-0.1025;-0.1078;0.0416
0000531607;7.6686;-8.7269;9.3494;-0.1029;-0.1057;0.0316
0000531615;7.7764;-8.8418;9.2799;-0.0813;-0.1104;0.0092
0000531623;7.7117;-8.9040;9.1075;-0.0709;-0.1007;-0.0093
0000531631;7.6734;-8.9687;9.2703;-0.0517;-0.0818;-0.0352
0000531639;7.4268;-8.9352;9.2464;-0.0345;-0.0609;-0.0600
0000531647;7.5417;-8.6574;9.2512;-0.0272;-0.0184;-0.0733
0000531655;7.1587;-8.5665;9.1195;-0.0115;0.0169;-0.0847
0000531663;7.2808;-8.3175;9.1794;-0.0007;0.0397;-0.0738
0000531754;7.6303;-8.1139;9.4595;0.0290;-0.0310;0.0100
0000531762;7.5944;-8.0900;9.3182;0.0208;-0.0440;0.0092
0000531770;7.6207;-8.0397;9.2895;0.0124;-0.0526;0.0021
0000531778;7.7668;-8.0110;9.1363;0.0047;-0.0629;-0.0144
0000531786;7.6040;-8.1187;9.1770;-0.0111;-0.0546;-0.0268
0000531794;7.7357;-7.9511;9.1267;-0.0336;-0.0446;-0.0292
0000531802;7.7812;-7.8697;9.1435;-0.0454;-0.0366;-0.0294
0000531810;7.5992;-8.0182;9.1578;-0.0530;-0.0199;-0.0228
0000531818;7.5633;-7.9823;9.2225;-0.0625;-0.0099;-0.0218
0000531826;7.6303;-7.8506;9.1554;-0.0719;0.0085;-0.0095
0000531834;7.7812;-7.8362;9.2871;-0.0823;0.0254;-0.0016
0000531842;7.3598;-8.2169;9.3877;-0.0878;0.0297;-0.0036
0000531850;7.4196;-8.1403;9.4116;-0.0898;0.0374;0.0007
0000531858;7.4077;-8.3055;9.3948;-0.0791;0.0408;0.0017
0000531866;7.3885;-8.3175;9.4715;-0.0705;0.0317;-0.0004
0000531874;7.3478;-8.5521;9.3925;-0.0624;0.0260;0.0007
0000531882;7.5705;-8.3797;9.4044;-0.0605;0.0257;0.0027
0000531890;7.3526;-8.5162;9.3230;-0.0533;0.0151;-0.0024
0000531898;7.3717;-8.6191;9.4332;-0.0437;0.0084;-0.0063
0000531906;7.2472;-8.5521;9.3685;-0.0365;0.0000;-0.0143
0000531914;7.1874;-8.5162;9.3613;-0.0320;-0.0107;-0.0116
0000531922;7.2065;-8.3606;9.3422;-0.0322;-0.0233;-0.0252
0000531930;7.1850;-8.4587;9.4212;-0.0382;-0.0234;-0.0208
0000531938;7.2736;-8.3127;9.3206;-0.0454;-0.0290;-0.0258
0000531946;7.2568;-8.3390;9.3134;-0.0429;-0.0394;-0.0297
0000531954;7.2496;-8.4683;9.3709;-0.0478;-0.0428;-0.0242
0000531962;7.6351;-8.2432;9.3182;-0.0345;-0.0468;-0.0228
0000531970;7.3861;-8.3749;9.3111;-0.0412;-0.0438;-0.0119
0000531978;7.4388;-8.3199;9.3350;-0.0358;-0.0446;-0.0156
0000531986;7.4795;-8.4084;9.4930;-0.0280;-0.0432;-0.0107
0000531994;7.5729;-8.3103;9.4116;-0.0281;-0.0373;-0.0037
0000532002;7.6207;-8.4348;9.3350;-0.0245;-0.0366;-0.0031
0000532010;7.7117;-8.3175;9.4260;-0.0197;-0.0274;-0.0016
0000532018;7.7596;-8.3677;9.2991;-0.0171;-0.0250;-0.0007
0000532026;7.6207;-8.2839;9.3158;-0.0200;-0.0248;-0.0033
0000532034;7.6040;-8.3582;9.3206;-0.0169;-0.0288;-0.0064
0000532042;7.5944;-8.2696;9.3015;-0.0140;-0.0244;-0.0097
0000532050;7.4340;-8.3677;9.3541;-0.0220;-0.0172;-0.0051
0000532058;7.3574;-8.1977;9.3350;-0.0177;-0.0209;-0.0157
0000532066;7.4962;-8.2815;9.2680;-0.0204;-0.0196;-0.0163
0000532074;7.5633;-8.1882;9.3254;-0.0301;-0.0136;-0.0125
0000532082;7.2808;-8.4132;9.3805;-0.0354;-0.0099;-0.0093
0000532090;7.4364;-8.1858;9.3015;-0.0337;-0.0222;-0.0187
0000532098;7.4460;-8.2768;9.3158;-0.0349;-0.0228;-0.0187
0000532106;7.5034;-8.3749;9.3925;-0.0364;-0.0232;-0.0145
0000532114;7.4388;-8.3127;9.3446;-0.0345;-0.0298;-0.0152
0000532122;7.5729;-8.3390;9.3254;-0.0281;-0.0336;-0.0127
0000532130;7.4555;-8.4156;9.3637;-0.0318;-0.0346;-0.0124
0000532138;7.6423;-8.2863;9.3134;-0.0285;-0.0361;-0.0075
0000532146;7.4795;-8.3989;9.3206;-0.0329;-0.0313;-0.0013
0000532154;7.5872;-8.3175;9.2895;-0.0345;-0.0268;0.0000
0000532162;7.3119;-8.5401;9.2751;-0.0301;-0.0260;-0.0004
0000532170;7.4077;-8.4683;9.3254;-0.0289;-0.0254;0.0041
0000532178;7.2520;-8.5545;9.3374;-0.0264;-0.0270;-0.0017
0000532186;7.4603;-8.3821;9.3039;-0.0169;-0.0338;-0.0063
0000532194;7.2209;-8.5377;9.3350;-0.0209;-0.0302;-0.0056
0000532202;7.4268;-8.4659;9.3661;-0.0234;-0.0312;-0.0112
0000532210;7.4962;-8.3079;9.3278;-0.0238;-0.0365;-0.0147
0000532219;7.4268;-8.4348;9.3565;-0.0285;-0.0300;-0.0084
0000532228;7.4531;-8.3390;9.4332;-0.0265;-0.0368;-0.0139
0000532237;7.4124;-8.4970;9.2703;-0.0280;-0.0380;-0.0119
0000532246;7.5513;-8.4779;9.3685;-0.0306;-0.0310;-0.0140
0000532255;7.4723;-8.3222;9.3326;-0.0257;-0.0332;-0.0147
0000532264;7.4484;-8.3366;9.3757;-0.0252;-0.0297;-0.0147
0000532273;7.3813;-8.3534;9.4355;-0.0276;-0.0305;-0.0148
0000532282;7.5824;-8.3893;9.2799;-0.0209;-0.0329;-0.0211
0000532291;7.3310;-8.5593;9.3925;-0.0269;-0.0246;-0.0163
0000532300;7.5609;-8.2672;9.2727;-0.0179;-0.0292;-0.0199
0000532309;7.3909;-8.4707;9.3134;-0.0180;-0.0333;-0.0246
0000532318;7.5154;-8.3103;9.3111;-0.0293;-0.0233;-0.0175
0000532327;7.5513;-8.2839;9.2177;-0.0334;-0.0249;-0.0160
0000532468;7.3406;-8.5329;9.2584;-0.0248;-0.0308;-0.0117
0000532477;7.4340;-8.5521;9.2823;-0.0318;-0.0261;-0.0071
0000532486;7.5633;-8.4013;9.2680;-0.0264;-0.0273;-0.0099
0000532495;7.6447;-8.3103;9.3182;-0.0294;-0.0213;-0.0097
0000532504;7.5226;-8.2744;9.3374;-0.0240;-0.0277;-0.0124
0000532513;7.5393;-8.4827;9.3398;-0.0212;-0.0282;-0.0087
0000532522;7.2856;-8.5449;9.3374;-0.0183;-0.0268;-0.0124
0000532531;7.4388;-8.4108;9.3518;-0.0191;-0.0332;-0.0163
0000532540;7.4364;-8.3941;9.2823;-0.0160;-0.0324;-0.0151
0000532549;7.4148;-8.4491;9.3613;-0.0204;-0.0260;-0.0148
0000532558;7.5896;-8.4276;9.2799;-0.0199;-0.0277;-0.0137
0000532567;7.3789;-8.3917;9.4403;-0.0163;-0.0312;-0.0181
0000532576;7.4460;-8.2863;9.3733;-0.0266;-0.0208;-0.0116
0000532585;7.5106;-8.3701;9.3518;-0.0221;-0.0256;-0.0201
0000532594;7.5154;-8.3438;9.3685;-0.0225;-0.0274;-0.0203
0000532603;7.5609;-8.2815;9.3637;-0.0203;-0.0273;-0.0226
0000532612;7.2329;-8.4420;9.3565;-0.0228;-0.0286;-0.0244
0000532621;7.3119;-8.5234;9.3733;-0.0285;-0.0256;-0.0203
0000532630;7.4867;-8.3869;9.3422;-0.0215;-0.0312;-0.0199
0000532639;7.3670;-8.4228;9.3877;-0.0217;-0.0321;-0.0144
0000532648;7.4962;-8.3438;9.2416;-0.0144;-0.0313;-0.0100
0000532657;7.4962;-8.5258;9.3398;-0.0205;-0.0296;-0.0069
0000532666;7.3837;-8.4970;9.3350;-0.0115;-0.0380;-0.0177
0000532675;7.4747;-8.4348;9.3446;-0.0137;-0.0377;-0.0149
0000532684;7.5154;-8.3270;9.4164;-0.0160;-0.0356;-0.0137
0000532693;7.3717;-8.4994;9.3781;-0.0193;-0.0348;-0.0152
0000532702;7.3263;-8.6263;9.2847;-0.0132;-0.0366;-0.0177
0000532711;7.4077;-8.3893;9.2225;-0.0225;-0.0276;-0.0127
0000532720;7.3813;-8.4300;9.3039;-0.0171;-0.0350;-0.0133
0000532729;7.5513;-8.3941;9.2799;-0.0167;-0.0357;-0.0157
0000532738;7.5082;-8.2337;9.4116;-0.0175;-0.0321;-0.0165
0000532747;7.2880;-8.4731;9.3254;-0.0159;-0.0274;-0.0045
0000532756;7.3646;-8.4874;9.3111;-0.0144;-0.0317;-0.0108
0000532765;7.2640;-8.5258;9.3398;-0.0151;-0.0302;-0.0087
0000532774;7.3765;-8.5329;9.2751;-0.0153;-0.0296;-0.0096
0000532783;7.4986;-8.3653;9.3230;-0.0129;-0.0352;-0.0148
0000532792;7.4795;-8.3725;9.3111;-0.0229;-0.0340;-0.0151
0000532801;7.4484;-8.3079;9.3158;-0.0233;-0.0356;-0.0128
0000532810;7.2401;-8.4922;9.2823;-0.0234;-0.0405;-0.0151
0000532819;7.4244;-8.3869;9.2919;-0.0278;-0.0317;-0.0100
0000532828;7.5226;-8.2696;9.1913;-0.0268;-0.0338;-0.0176
0000532837;7.4675;-8.4946;9.2608;-0.0250;-0.0354;-0.0109
0000532846;7.4962;-8.3079;9.3637;-0.0297;-0.0334;-0.0105
0000532855;7.4819;-8.4132;9.2751;-0.0208;-0.0306;-0.0143
0000532864;7.3861;-8.4013;9.3733;-0.0237;-0.0281;-0.0133
0000532873;7.4986;-8.4132;9.4092;-0.0199;-0.0301;-0.0133
0000532882;7.4005;-8.3222;9.3541;-0.0216;-0.0269;-0.0119
0000532891;7.5178;-8.3749;9.3494;-0.0213;-0.0342;-0.0175
0000532900;7.4986;-8.3222;9.2368;-0.0330;-0.0282;-0.0120
0000532909;7.1658;-8.5162;9.3015;-0.0284;-0.0328;-0.0113
0000532918;7.2640;-8.5617;9.2727;-0.0314;-0.0270;-0.0040
0000532927;7.3334;-8.5784;9.2320;-0.0254;-0.0361;-0.0097
0000532936;7.6016;-8.4515;9.2296;-0.0294;-0.0293;-0.0096
0000532945;7.6303;-8.3558;9.3422;-0.0329;-0.0329;-0.0217
0000532954;7.5633;-8.2696;9.2392;-0.0314;-0.0297;-0.0171
0000532963;7.4268;-8.3414;9.3206;-0.0292;-0.0318;-0.0225
0000532972;7.3047;-8.4324;9.4140;-0.0356;-0.0222;-0.0096
0000532981;7.4148;-8.2720;9.3494;-0.0328;-0.0380;-0.0136
0000532990;7.5274;-8.2791;9.4834;-0.0408;-0.0284;-0.0047
0000532999;7.2616;-8.5305;9.3877;-0.0413;-0.0325;-0.0072
0000533008;7.5393;-8.2935;9.4236;-0.0448;-0.0313;-0.0073
0000533017;7.3670;-8.6024;9.4451;-0.0389;-0.0316;-0.0113
0000533026;7.5609;-8.4539;9.3685;-0.0305;-0.0366;-0.0097
0000533035;7.5322;-8.5593;9.3015;-0.0248;-0.0393;-0.0145
0000533044;7.3837;-8.6526;9.3087;-0.0246;-0.0329;-0.0120
0000533053;7.4531;-8.5473;9.2129;-0.0213;-0.0421;-0.0191
0000533062;7.4029;-8.4515;9.2967;-0.0312;-0.0342;-0.0103
0000533071;7.3502;-8.4396;9.2775;-0.0270;-0.0406;-0.0116
0000533080;7.2233;-8.6526;9.3398;-0.0348;-0.0357;-0.0081
0000533089;7.3813;-8.4683;9.2560;-0.0342;-0.0352;-0.0104
0000533176;7.4460;-8.4874;9.3589;-0.0338;-0.0277;-0.0075
0000533185;7.4220;-8.5162;9.2703;-0.0290;-0.0310;-0.0153
0000533194;7.2975;-8.6383;9.2727;-0.0332;-0.0281;-0.0168
0000533203;7.4651;-8.4731;9.3422;-0.0246;-0.0328;-0.0184
0000533212;7.1108;-8.5904;9.3853;-0.0273;-0.0306;-0.0191
0000533221;7.4651;-8.5425;9.3374;-0.0294;-0.0272;-0.0129
0000533230;7.4603;-8.4635;9.2895;-0.0238;-0.0340;-0.0159
0000533239;7.3694;-8.5162;9.3254;-0.0321;-0.0296;-0.0127
0000533248;7.3789;-8.4156;9.3398;-0.0313;-0.0310;-0.0088
0000533257;7.4196;-8.4803;9.3853;-0.0261;-0.0309;-0.0128
0000533266;7.3789;-8.5784;9.3637;-0.0304;-0.0240;-0.0096
0000533275;7.4196;-8.4396;9.3925;-0.0290;-0.0301;-0.0092
0000533284;7.4891;-8.4851;9.3182;-0.0256;-0.0314;-0.0141
0000533293;7.4771;-8.4970;9.2560;-0.0216;-0.0364;-0.0093
0000533302;7.3454;-8.5880;9.3589;-0.0230;-0.0293;-0.0087
0000533311;7.3646;-8.5329;9.2871;-0.0187;-0.0286;-0.0095
0000533320;7.3933;-8.5138;9.2775;-0.0152;-0.0336;-0.0145
0000533329;7.3502;-8.5880;9.3039;-0.0242;-0.0317;-0.0103
0000533338;7.4460;-8.5090;9.2775;-0.0192;-0.0337;-0.0137
0000533347;7.4651;-8.5210;9.2991;-0.0173;-0.0374;-0.0120
0000533356;7.4627;-8.4994;9.2943;-0.0212;-0.0310;-0.0069
0000533365;7.4484;-8.4587;9.3278;-0.0169;-0.0373;-0.0123
0000533374;7.4148;-8.3558;9.2608;-0.0221;-0.0322;-0.0153
0000533383;7.3502;-8.5329;9.3541;-0.0236;-0.0312;-0.0135
0000533392;7.4771;-8.4922;9.3518;-0.0221;-0.0394;-0.0137
0000533401;7.3861;-8.5186;9.2847;-0.0294;-0.0326;-0.0181
0000533410;7.3550;-8.5712;9.3015;-0.0257;-0.0332;-0.0169
0000533419;7.6998;-8.2696;9.3637;-0.0278;-0.0325;-0.0183
0000533428;7.4220;-8.5928;9.3925;-0.0240;-0.0344;-0.0260
0000533437;7.3646;-8.5760;9.3996;-0.0293;-0.0305;-0.0176
0000533446;7.5657;-8.4539;9.3494;-0.0215;-0.0332;-0.0172
0000533455;7.3334;-8.4898;9.3518;-0.0265;-0.0298;-0.0132
0000533464;7.4484;-8.4851;9.3422;-0.0221;-0.0349;-0.0201
0000533473;7.6423;-8.4300;9.3446;-0.0212;-0.0304;-0.0211
0000533482;7.5178;-8.4467;9.2249;-0.0232;-0.0333;-0.0220
0000533491;7.3694;-8.5952;9.2943;-0.0272;-0.0261;-0.0167
0000533500;7.2377;-8.7340;9.2177;-0.0222;-0.0341;-0.0187
0000533509;7.3310;-8.5258;9.3302;-0.0312;-0.0274;-0.0101
0000533518;7.3670;-8.6167;9.2775;-0.0253;-0.0325;-0.0079
0000533527;7.6279;-8.3917;9.2680;-0.0270;-0.0338;-0.0109
0000533536;7.3789;-8.5473;9.2392;-0.0269;-0.0258;-0.0128
0000533545;7.4316;-8.5353;9.2871;-0.0289;-0.0270;-0.0191
0000533554;7.3574;-8.5234;9.2775;-0.0246;-0.0269;-0.0173
0000533563;7.4627;-8.3749;9.3613;-0.0221;-0.0312;-0.0225
0000533572;7.3789;-8.4707;9.3709;-0.0306;-0.0300;-0.0117
0000533581;7.4699;-8.2552;9.3661;-0.0270;-0.0350;-0.0085
0000533590;7.4962;-8.3606;9.3757;-0.0374;-0.0245;-0.0040
0000533599;7.4148;-8.5928;9.3996;-0.0342;-0.0314;-0.0108
0000533608;7.4101;-8.5401;9.4691;-0.0345;-0.0272;-0.0081
0000533617;7.4101;-8.6933;9.3709;-0.0211;-0.0402;-0.0161
0000533626;7.3023;-8.8346;9.3541;-0.0208;-0.0396;-0.0121
0000533635;7.1850;-8.8705;9.3158;-0.0160;-0.0394;-0.0197
0000533644;7.4579;-8.5066;9.2536;-0.0205;-0.0344;-0.0136
0000533653;7.4747;-8.5784;9.2440;-0.0139;-0.0389;-0.0192
0000533662;7.2568;-8.5760;9.3039;-0.0253;-0.0306;-0.0108
0000533671;7.3023;-8.6119;9.2967;-0.0184;-0.0376;-0.0159
0000533680;7.4292;-8.6263;9.2895;-0.0220;-0.0309;-0.0111
0000533689;7.4651;-8.4994;9.2656;-0.0104;-0.0373;-0.0173
0000533698;7.3334;-8.6479;9.2871;-0.0084;-0.0349;-0.0180
0000533707;7.3550;-8.6239;9.3996;-0.0139;-0.0350;-0.0148
0000533716;7.3957;-8.6072;9.3446;-0.0119;-0.0374;-0.0193
0000533725;7.3406;-8.6598;9.3948;-0.0127;-0.0302;-0.0163
0000533734;7.3741;-8.4922;9.3422;-0.0109;-0.0321;-0.0199
0000533743;7.4531;-8.4348;9.2943;-0.0121;-0.0318;-0.0119
0000533752;7.3406;-8.6383;9.3374;-0.0073;-0.0317;-0.0147
0000533761;7.5010;-8.4635;9.3230;-0.0179;-0.0286;-0.0091
0000533770;7.3909;-8.4659;9.3446;-0.0149;-0.0360;-0.0128
0000533779;7.3885;-8.4396;9.2177;-0.0155;-0.0342;-0.0144
0000533788;7.3885;-8.4683;9.1985;-0.0220;-0.0298;-0.0063
0000533797;7.5633;-8.4515;9.2656;-0.0211;-0.0278;-0.0103
0000533806;7.3023;-8.6263;9.3206;-0.0262;-0.0309;-0.0099
0000533894;7.4340;-8.6119;9.3374;-0.0116;-0.0344;-0.0145
0000533903;7.3885;-8.5569;9.3134;-0.0071;-0.0348;-0.0161
0000533912;7.4101;-8.5090;9.3494;-0.0125;-0.0270;-0.0149
0000533921;7.3095;-8.5497;9.2703;-0.0080;-0.0361;-0.0175
0000533930;7.3167;-8.6455;9.2967;-0.0164;-0.0314;-0.0099
0000533939;7.3789;-8.5401;9.2656;-0.0153;-0.0330;-0.0089
0000533948;7.5178;-8.3989;9.2656;-0.0181;-0.0312;-0.0148
0000533957;7.4843;-8.4659;9.2943;-0.0119;-0.0337;-0.0141
0000533966;7.4819;-8.5904;9.2656;-0.0184;-0.0305;-0.0123
0000533975;7.5178;-8.3558;9.3134;-0.0175;-0.0405;-0.0168
0000533984;7.5274;-8.3941;9.2751;-0.0177;-0.0332;-0.0081
0000533993;7.5106;-8.4755;9.4092;-0.0203;-0.0316;-0.0084
0000534002;7.3670;-8.6646;9.2847;-0.0207;-0.0281;-0.0113
0000534011;7.5010;-8.4467;9.2201;-0.0192;-0.0333;-0.0111
0000534020;7.5178;-8.4922;9.3326;-0.0183;-0.0342;-0.0171
0000534029;7.5178;-8.4874;9.2751;-0.0254;-0.0274;-0.0137
0000534038;7.3287;-8.5976;9.2296;-0.0236;-0.0392;-0.0208
0000534047;7.3981;-8.4467;9.1578;-0.0313;-0.0338;-0.0121
0000534056;7.3215;-8.6550;9.2584;-0.0302;-0.0305;-0.0119
0000534065;7.4867;-8.5712;9.2344;-0.0317;-0.0337;-0.0113
0000534074;7.2808;-8.5521;9.3326;-0.0361;-0.0273;-0.0081
0000534083;7.4915;-8.5377;9.3206;-0.0354;-0.0296;-0.0171
0000534092;7.4795;-8.6119;9.2871;-0.0298;-0.0296;-0.0171
0000534101;7.3143;-8.6838;9.4116;-0.0294;-0.0241;-0.0127
0000534110;7.3957;-8.5904;9.3494;-0.0321;-0.0262;-0.0085
0000534119;7.4747;-8.5760;9.3230;-0.0266;-0.0310;-0.0135
0000534128;7.5082;-8.4707;9.3015;-0.0352;-0.0260;-0.0061
0000534137;7.1587;-8.7652;9.2727;-0.0272;-0.0376;-0.0133
0000534146;7.3789;-8.6311;9.3302;-0.0274;-0.0348;-0.0025
0000534155;7.4412;-8.6526;9.2943;-0.0276;-0.0334;-0.0068
0000534164;7.3526;-8.6263;9.2512;-0.0253;-0.0373;-0.0088
0000534173;7.3550;-8.5473;9.2799;-0.0277;-0.0292;-0.0121
0000534182;7.2712;-8.7125;9.3158;-0.0177;-0.0353;-0.0153
0000534191;7.4388;-8.4515;9.3063;-0.0220;-0.0272;-0.0113
0000534200;7.3622;-8.3989;9.2895;-0.0200;-0.0298;-0.0081
0000534209;7.2520;-8.3869;9.3039;-0.0284;-0.0305;-0.0077
0000534218;7.2089;-8.5617;9.2703;-0.0256;-0.0356;-0.0079
0000534227;7.3119;-8.5832;9.3206;-0.0340;-0.0270;-0.0047
0000534236;7.4196;-8.5928;9.3709;-0.0254;-0.0388;-0.0076
0000534245;7.5178;-8.5856;9.2823;-0.0229;-0.0394;-0.0093
0000534254;7.4436;-8.6359;9.3685;-0.0226;-0.0320;-0.0035
0000534263;7.4531;-8.6574;9.2727;-0.0173;-0.0401;-0.0184
0000534272;7.3430;-8.6957;9.2703;-0.0191;-0.0326;-0.0077
0000534281;7.4340;-8.7077;9.2464;-0.0172;-0.0325;-0.0112
0000534290;7.3263;-8.7508;9.3685;-0.0109;-0.0336;-0.0124
0000534299;7.3095;-8.7747;9.2584;-0.0129;-0.0318;-0.0152
0000534308;7.3334;-8.6670;9.3087;-0.0171;-0.0270;-0.0141
0000534317;7.4962;-8.4898;9.3470;-0.0103;-0.0356;-0.0209
0000534326;7.4843;-8.6167;9.3230;-0.0145;-0.0289;-0.0128
0000534335;7.4508;-8.7053;9.3637;-0.0117;-0.0298;-0.0163
0000534344;7.5250;-8.4276;9.2823;-0.0093;-0.0284;-0.0163
0000534353;7.3622;-8.6646;9.3422;-0.0093;-0.0245;-0.0175
0000534362;7.4292;-8.5856;9.2249;-0.0075;-0.0199;-0.0165
0000534371;7.4723;-8.5617;9.4308;-0.0053;-0.0249;-0.0136
0000534380;7.2736;-8.5593;9.2464;-0.0077;-0.0253;-0.0141
0000534389;7.3694;-8.5473;9.2967;-0.0116;-0.0187;-0.0127
0000534398;7.3047;-8.5617;9.3230;-0.0107;-0.0302;-0.0135
0000534407;7.3765;-8.6000;9.2608;-0.0189;-0.0230;-0.0096
0000534416;7.3263;-8.5497;9.3254;-0.0180;-0.0268;-0.0105
0000534425;7.4555;-8.5234;9.2416;-0.0192;-0.0281;-0.0129
0000534434;7.2257;-8.6814;9.3230;-0.0207;-0.0322;-0.0164
0000534443;7.3598;-8.6383;9.2775;-0.0175;-0.0281;-0.0119
0000534452;7.1563;-8.7771;9.3326;-0.0201;-0.0293;-0.0077
0000534461;7.1730;-8.6095;9.2296;-0.0149;-0.0370;-0.0092
0000534470;7.3478;-8.6072;9.4092;-0.0167;-0.0337;-0.0129
0000534479;7.4747;-8.5665;9.3254;-0.0204;-0.0333;-0.0111
0000534488;7.5609;-8.5641;9.3374;-0.0165;-0.0322;-0.0119
0000534497;7.2209;-8.7747;9.3398;-0.0191;-0.0308;-0.0112
0000534506;7.4148;-8.5856;9.3613;-0.0197;-0.0249;-0.0143
0000534515;7.4172;-8.5473;9.3374;-0.0125;-0.0305;-0.0151
0000534602;7.4603;-8.4467;9.2680;-0.0132;-0.0352;-0.0139
0000534609;7.4101;-8.5784;9.2153;-0.0149;-0.0317;-0.0136
0000534617;7.4388;-8.6000;9.2775;-0.0177;-0.0270;-0.0051
0000534625;7.4867;-8.4707;9.2727;-0.0144;-0.0366;-0.0137
0000534633;7.3167;-8.6574;9.3781;-0.0128;-0.0320;-0.0081
0000534641;7.2377;-8.6981;9.2536;-0.0097;-0.0321;-0.0147
0000534649;7.4723;-8.5784;9.2464;-0.0117;-0.0345;-0.0133
0000534657;7.3574;-8.6622;9.3350;-0.0120;-0.0318;-0.0112
0000534665;7.4675;-8.5497;9.3182;-0.0105;-0.0328;-0.0139
0000534673;7.3885;-8.5545;9.3182;-0.0188;-0.0325;-0.0109
0000534681;7.3526;-8.5641;9.3613;-0.0156;-0.0326;-0.0125
0000534689;7.3765;-8.5784;9.3278;-0.0163;-0.0333;-0.0153
0000534697;7.3885;-8.5473;9.3063;-0.0221;-0.0273;-0.0133
0000534705;7.4148;-8.4635;9.2991;-0.0216;-0.0278;-0.0157
