time;acc_x;acc_y;acc_z;gyro_x;gyro_y;gyro_z
0004529878;2.5426;2.8802;0.5124;0.2879;-1.0576;-0.0665
0004529887;2.9664;2.4900;0.4836;0.3313;-0.9918;-0.1540
0004529895;3.5195;1.9728;0.3232;0.3148;-0.9539;-0.2386
0004529903;4.0318;1.6951;0.2610;0.2399;-0.9321;-0.3130
0004529911;4.2521;1.5514;0.0527;0.1139;-0.9130;-0.3764
0004529919;4.1875;1.3144;0.0144;-0.0189;-0.9144;-0.4221
0004529927;3.9911;1.3743;0.0120;-0.1673;-0.9028;-0.4457
0004529935;3.8259;1.9010;-0.0072;-0.2862;-0.9112;-0.4513
0004529943;3.5626;2.4134;0.1532;-0.3667;-0.8884;-0.4305
0004529951;3.3519;3.0885;0.1844;-0.4012;-0.8788;-0.3941
0004529959;3.4788;3.7804;0.2490;-0.3810;-0.8500;-0.3328
0004529967;3.5937;4.2282;0.1724;-0.3163;-0.8228;-0.2686
0004529975;4.0438;4.4532;0.3041;-0.2121;-0.8079;-0.2206
0004529983;4.3215;4.2138;0.4980;-0.0874;-0.8010;-0.1867
0004529991;4.8602;3.9002;0.5938;0.0344;-0.7929;-0.1745
0004529999;5.4324;3.4692;0.4549;0.1378;-0.7927;-0.1783
0004530007;5.7054;2.9592;0.2777;0.1875;-0.7790;-0.1645
0004530015;5.9041;2.4852;0.2274;0.2138;-0.7821;-0.1552
0004530023;5.8035;2.0063;0.1891;0.1961;-0.7754;-0.1320
0004530031;5.6431;1.8268;-0.0120;0.1636;-0.7604;-0.0913
0004530039;5.1571;1.7478;-0.1077;0.1234;-0.7505;-0.0374
0004530047;4.8626;1.9106;-0.0958;0.1063;-0.7457;0.0099
0004530055;4.4700;2.1476;-0.1030;0.0955;-0.7148;0.0568
0004530063;4.0127;2.2625;0.1006;0.0866;-0.6736;0.0967
0004530071;3.8331;2.5163;0.0335;0.0903;-0.6294;0.1230
0004530079;3.7661;2.7390;0.0168;0.0885;-0.5700;0.1444
0004530087;3.7206;2.8228;0.2442;0.0810;-0.5213;0.1544
0004530095;3.7350;2.9640;0.2921;0.0807;-0.4690;0.1561
0004530103;4.2545;3.4022;0.4645;0.0805;-0.4273;0.1374
0004530111;4.4125;3.3567;0.4860;0.0726;-0.3893;0.1083
0004530119;4.5083;3.4117;0.4501;0.0552;-0.3487;0.0819
0004530127;4.7860;3.5434;0.4405;0.0413;-0.3297;0.0357
0004530135;4.9440;3.6990;0.2682;0.0365;-0.3188;-0.0116
0004530143;5.0374;3.8140;0.0670;0.0549;-0.3154;-0.0553
0004530151;5.1715;3.8906;-0.0192;0.0823;-0.3236;-0.0959
0004530159;4.8818;3.8523;-0.0551;0.1363;-0.3355;-0.1258
0004530167;5.0350;3.7254;-0.0239;0.1891;-0.3348;-0.1359
0004530175;4.5825;3.3447;0.0000;0.2419;-0.3456;-0.1422
0004530183;4.7429;3.1747;0.0886;0.2707;-0.3435;-0.1284
0004530191;4.6400;2.8706;0.1389;0.2798;-0.3520;-0.1198
0004530199;4.7549;2.6121;0.0910;0.2739;-0.3465;-0.0979
0004530207;4.8674;2.4995;-0.0072;0.2486;-0.3367;-0.0775
0004530215;4.8626;2.3056;-0.0814;0.2269;-0.3307;-0.0577
0004530223;4.8866;2.3200;-0.0646;0.2054;-0.3255;-0.0424
0004530231;4.7022;2.2290;-0.1389;0.1833;-0.3163;-0.0199
0004530239;4.6376;2.2194;-0.1772;0.1632;-0.3059;-0.0096
0004530247;4.6495;2.3056;-0.3424;0.1467;-0.3032;0.0032
0004530255;4.5801;2.2146;-0.1341;0.1200;-0.2920;0.0308
0004530263;4.4676;2.2529;0.0718;0.1042;-0.2790;0.0588
0004530271;4.5466;2.3200;0.1820;0.0861;-0.2643;0.0778
0004530279;4.5777;2.4014;0.3328;0.0738;-0.2549;0.0930
0004530287;4.7381;2.4876;0.4142;0.0604;-0.2360;0.1179
0004530295;4.8100;2.6217;0.4764;0.0548;-0.2218;0.1342
0004530303;4.7022;2.7557;0.5507;0.0614;-0.2060;0.1388
0004530311;4.5945;2.6624;0.7518;0.0674;-0.1827;0.1464
0004530319;4.6160;2.9066;0.6129;0.0554;-0.1615;0.1492
0004530327;4.4772;3.0311;0.6153;0.0682;-0.1443;0.1415
0004530335;4.0151;3.0215;0.6871;0.0669;-0.1184;0.1386
0004530343;3.8882;3.3255;0.4741;0.0644;-0.0855;0.1386
0004530351;3.7876;3.3160;0.4381;0.0694;-0.0510;0.1374
0004530359;4.0175;3.3854;0.4214;0.0875;-0.0104;0.1326
0004530367;3.6631;3.1603;0.3855;0.1054;0.0332;0.1378
0004530375;3.7972;3.0694;0.3591;0.1251;0.0767;0.1410
0004530383;3.8092;2.9473;0.4022;0.1478;0.1087;0.1504
0004530391;3.8595;2.7821;0.3519;0.1547;0.1506;0.1579
0004530399;4.0366;2.6959;0.3687;0.1502;0.1791;0.1648
0004530407;4.0677;2.3942;0.4238;0.1395;0.2060;0.1673
0004530415;4.2162;2.1524;0.4669;0.1152;0.2366;0.1671
0004530423;4.4365;2.1907;0.5483;0.0749;0.2747;0.1648
0004530431;4.1875;1.9178;0.5650;0.0276;0.3140;0.1483
0004530439;4.1252;2.0351;0.3855;-0.0212;0.3351;0.1112
0004530447;3.8140;2.1835;0.0359;-0.1143;0.3631;0.0506
0004530455;4.1492;2.5642;-0.5555;-0.2365;0.3671;-0.0526
0004530521;5.0589;2.9018;-0.6776;-0.2348;0.2431;-0.3636
0004530529;5.3463;2.8802;-0.9792;-0.2285;0.2293;-0.3623
0004530537;5.4037;2.8994;-1.0654;-0.2474;0.2228;-0.3517
0004530545;5.3654;3.0646;-1.3072;-0.2959;0.2290;-0.3547
0004530553;5.2529;3.3160;-1.4437;-0.3619;0.2482;-0.3480
0004530561;4.8746;3.4716;-1.4605;-0.4219;0.2747;-0.3288
0004530569;4.3000;3.5650;-1.5610;-0.4611;0.3064;-0.2903
0004530577;3.6871;3.5434;-1.6065;-0.4700;0.3579;-0.2549
0004530585;3.7350;3.9792;-1.7502;-0.4571;0.4190;-0.2044
0004530593;3.2082;3.8547;-2.1069;-0.4135;0.4884;-0.1819
0004530601;3.3375;4.0749;-2.1356;-0.3523;0.5792;-0.1360
0004530609;3.3375;3.8714;-2.2458;-0.2697;0.6784;-0.1069
0004530617;3.9121;3.9169;-2.1356;-0.1687;0.7733;-0.0775
0004530625;4.4388;3.4596;-1.6903;-0.0381;0.8615;-0.0620
0004530633;4.9249;2.9592;-1.4246;0.1058;0.8992;-0.0549
0004530641;5.8562;2.6025;-1.0750;0.2269;0.9021;-0.0444
0004530649;6.3782;2.2410;-0.8595;0.2962;0.8699;-0.0366
0004530657;6.9288;2.0686;-0.7302;0.2916;0.8072;-0.0354
0004530665;7.3406;1.8028;-0.4741;0.1996;0.7213;-0.0309
0004530673;7.7548;1.9297;-0.2562;0.0429;0.6352;-0.0261
0004530681;7.7955;1.9034;-0.1748;-0.1482;0.5427;-0.0284
0004530689;7.7812;2.1572;-0.1149;-0.3361;0.4418;-0.0446
0004530697;7.9655;2.5259;-0.0718;-0.4942;0.3615;-0.0496
0004530705;7.5178;2.6959;-0.1628;-0.6137;0.3134;-0.0494
0004530713;7.0461;3.0047;-0.1820;-0.6675;0.2755;-0.0449
0004530721;6.7708;3.3974;-0.2634;-0.6510;0.2394;-0.0386
0004530729;6.4021;3.6583;-0.3687;-0.5951;0.2120;-0.0083
0004530737;5.9280;3.8188;-0.1700;-0.4911;0.1832;0.0249
0004530745;5.7293;3.9983;-0.3017;-0.3692;0.1713;0.0750
0004530753;5.6479;4.1204;-0.2705;-0.2360;0.1697;0.1166
0004530761;5.5713;3.9744;-0.2418;-0.1202;0.1844;0.1611
0004530769;5.6431;3.7637;-0.1987;-0.0149;0.1929;0.1958
0004530777;5.5857;3.3471;-0.1365;0.0629;0.2020;0.2057
0004530785;5.5545;2.9377;-0.1437;0.1152;0.2021;0.1908
0004530793;5.5785;2.5642;-0.1628;0.1344;0.2137;0.1669
0004530801;5.6431;2.2913;-0.1101;0.1204;0.2294;0.1455
0004530809;5.7221;2.1572;-0.0431;0.0869;0.2466;0.1140
0004530817;5.6886;2.0901;0.2107;0.0514;0.2681;0.0751
0004530825;5.6575;2.0542;0.3591;0.0257;0.2944;0.0408
0004530833;5.4324;2.1141;0.3687;0.0176;0.3303;0.0161
0004530841;5.1930;2.0351;0.4717;0.0097;0.3541;-0.0085
0004530849;5.1834;2.1404;0.2394;0.0284;0.3738;-0.0337
0004530857;5.1260;2.0949;0.3136;0.0434;0.3913;-0.0424
0004530865;5.4420;2.1763;0.1652;0.0524;0.4072;-0.0553
0004530873;5.4085;1.9154;0.1867;0.0544;0.4174;-0.0644
0004530881;5.7365;1.6664;0.1437;0.0537;0.4040;-0.0767
0004530889;5.9783;1.5562;0.0024;0.0420;0.3925;-0.0789
0004530897;6.2991;1.2881;-0.0192;0.0151;0.3640;-0.0751
0004530905;6.5074;1.0080;0.1293;-0.0087;0.3303;-0.0714
0004530913;6.8331;0.9146;0.2035;-0.0450;0.3020;-0.0469
0004530921;7.1563;0.6728;0.3998;-0.0955;0.2799;-0.0226
0004530929;7.0174;0.2849;0.5124;-0.1415;0.2481;-0.0172
0004530937;7.2233;0.4118;0.4453;-0.1849;0.2269;-0.0105
0004530945;7.0749;0.4693;0.4022;-0.2153;0.1931;-0.0250
0004530953;6.7900;0.2274;0.2849;-0.2280;0.1732;-0.0373
0004530961;6.7900;-0.0192;0.4381;-0.2140;0.1584;-0.0458
0004530969;6.8833;-0.0862;0.6871;-0.1869;0.1524;-0.0536
0004530977;6.6176;-0.3472;0.7566;-0.1588;0.1472;-0.0501
0004530985;6.4955;-0.5698;1.0415;-0.1623;0.1356;-0.0410
0004530993;6.6200;-0.4262;0.9457;-0.1771;0.1158;-0.0384
0004531001;6.4548;-0.6153;1.1133;-0.2214;0.0987;-0.0345
0004531009;6.4332;-0.5100;1.0606;-0.2803;0.0703;-0.0436
0004531017;6.4835;-0.2035;1.0918;-0.3496;0.0278;-0.0659
0004531025;6.6990;0.2729;0.8595;-0.4410;-0.0180;-0.0885
0004531033;6.9576;0.6608;0.8691;-0.5257;-0.0561;-0.1260
0004531041;7.1108;0.9960;1.0534;-0.5677;-0.1062;-0.1515
0004531049;7.2329;1.2977;1.2474;-0.5700;-0.1368;-0.1692
0004531057;7.2065;1.6592;1.4437;-0.5137;-0.1593;-0.1872
0004531065;6.9935;1.6257;1.4844;-0.4171;-0.1789;-0.2030
0004531073;6.7756;1.6089;1.5730;-0.2730;-0.1981;-0.2258
0004531081;6.6966;1.5945;1.7047;-0.1051;-0.2104;-0.2575
0004531089;6.2225;1.3144;1.5371;0.0462;-0.2162;-0.2872
0004531097;5.9520;1.2594;1.4365;0.1551;-0.2096;-0.2880
0004531163;5.1619;-0.6608;0.9170;-0.1183;-0.0033;-0.3877
0004531171;5.5809;-0.5028;0.9601;-0.2457;0.0196;-0.4017
0004531179;5.5043;-0.3783;1.0319;-0.3746;0.0437;-0.4146
0004531187;5.4324;0.1700;1.0295;-0.5335;0.0711;-0.4321
0004531195;5.2146;0.6153;0.9385;-0.6793;0.0862;-0.4619
0004531203;5.0398;1.2091;0.7135;-0.8009;0.1047;-0.4866
0004531211;5.1332;1.6185;0.2969;-0.8687;0.0989;-0.5133
0004531219;5.2696;2.2194;0.2322;-0.8743;0.1059;-0.5279
0004531227;5.5498;2.6839;0.2179;-0.8451;0.1095;-0.5075
0004531235;6.0501;3.1891;0.3687;-0.7915;0.0999;-0.4959
0004531243;6.0430;3.2825;0.4357;-0.7308;0.1127;-0.4751
0004531251;6.1124;3.5243;0.4262;-0.6791;0.1130;-0.4783
0004531259;6.3853;3.6009;0.3280;-0.6271;0.1180;-0.4768
0004531267;6.6774;3.4931;0.3519;-0.5630;0.1370;-0.4341
0004531275;6.8115;3.0430;0.3735;-0.4403;0.1693;-0.3484
0004531283;6.7612;2.3918;0.4525;-0.2769;0.2169;-0.2197
0004531291;6.6655;1.9441;0.3376;-0.0946;0.2886;-0.0827
0004531299;6.0597;1.2761;0.0694;0.0574;0.3580;0.0314
0004531307;5.3870;0.5890;-0.1915;0.1960;0.4041;0.1071
0004531315;5.0374;0.1389;-0.6943;0.3569;0.4513;0.1740
0004531323;4.7405;-0.2705;-1.1277;0.5041;0.5272;0.2711
0004531331;4.4005;-0.3807;-1.7142;0.5989;0.5766;0.3764
0004531339;4.0318;-0.4334;-2.1691;0.6199;0.6658;0.4494
0004531347;3.4907;-0.3735;-2.7150;0.5450;0.8115;0.4706
0004531355;2.3559;0.0096;-3.4429;0.3517;0.9209;0.4742
0004531363;0.7757;0.5794;-3.4955;0.0882;0.8745;0.3970
0004531371;-0.6297;1.1205;-3.3471;-0.2413;0.6324;0.2304
0004531379;-0.4621;2.4421;-2.5402;-0.6763;0.3412;0.0938
0004531387;0.9122;3.4022;-0.6943;-1.2690;0.1045;0.0084
0004531395;2.5331;4.4700;-0.1077;-1.8544;0.0135;-0.0302
0004531403;4.1084;5.7461;-0.0646;-2.2680;-0.0124;0.0738
0004531411;5.5737;7.6016;0.1939;-2.5357;-0.0330;0.2758
0004531419;6.3997;9.3877;0.7709;-2.6701;-0.1218;0.5107
0004531427;6.8163;10.9942;1.2474;-2.6047;-0.2337;0.7206
0004531435;6.4380;11.2288;2.2122;-2.2224;-0.2774;0.7707
0004531443;6.2513;11.3006;3.6823;-1.5254;-0.3246;0.6247
0004531451;5.9999;11.3389;5.0135;-0.7249;-0.3692;0.4041
0004531459;5.4444;11.0828;5.3822;0.0185;-0.3495;0.2010
0004531467;4.3335;10.6279;3.7110;0.6459;-0.3090;0.0682
0004531475;2.9640;9.6127;2.1859;1.0896;-0.2681;-0.0160
0004531483;1.8316;8.2504;1.8699;1.3246;-0.2108;-0.0675
0004531491;1.2785;6.7612;2.2075;1.3820;-0.1503;-0.0790
0004531499;0.9290;5.1499;2.9832;1.3093;-0.1140;-0.0430
0004531507;1.3886;3.8571;3.2178;1.1130;-0.0761;0.0460
0004531515;2.6743;3.3471;2.8587;0.8764;-0.0544;0.1372
0004531523;3.7302;3.1963;2.2482;0.6546;-0.0473;0.1901
0004531531;4.8914;3.6631;2.0494;0.4442;-0.0512;0.1771
0004531539;5.3343;3.6583;2.3607;0.3127;-0.0815;0.0929
0004531547;5.7413;3.9983;2.9257;0.2927;-0.1088;0.0241
0004531555;5.7054;4.3766;3.3399;0.3355;-0.1312;-0.0326
0004531563;5.4588;4.8100;3.0765;0.4405;-0.1471;-0.0669
0004531571;4.8890;4.9584;2.9353;0.5829;-0.1392;-0.0705
0004531579;4.2832;4.6974;3.0335;0.7585;-0.1411;-0.0545
0004531587;3.6919;4.1228;3.2609;0.8977;-0.1155;-0.0008
0004531595;3.3639;3.3399;3.3710;0.9593;-0.0742;0.0873
0004531603;3.2944;2.9305;3.0598;0.9671;-0.0234;0.1843
0004531611;3.0119;2.2003;2.9401;0.9336;0.0345;0.2842
0004531619;3.0981;2.0494;2.7390;0.8933;0.0973;0.3695
0004531627;2.8778;1.5347;2.6432;0.8206;0.1757;0.4600
0004531635;3.0694;1.4748;2.5235;0.7541;0.2342;0.5229
0004531643;2.8970;1.2713;2.5211;0.7015;0.2947;0.5700
0004531651;3.1651;1.2282;2.2793;0.6462;0.3447;0.6071
0004531659;3.2417;1.1420;2.1644;0.6003;0.3856;0.6133
0004531667;3.3591;1.2043;2.1955;0.5661;0.4173;0.6015
0004531675;3.6033;1.2019;2.1237;0.5297;0.4385;0.5818
0004531683;3.9409;1.1444;2.0446;0.5004;0.4582;0.5706
0004531691;4.2425;1.1827;1.8651;0.4870;0.4449;0.5476
0004531699;4.6064;1.2330;1.9393;0.4828;0.4371;0.5228
0004531707;4.7788;1.1708;1.9393;0.4485;0.4281;0.5093
0004531715;4.9249;0.9936;2.0830;0.4052;0.4338;0.4928
0004531723;5.1954;1.0271;1.8747;0.3786;0.4616;0.4715
0004531731;5.2888;0.8978;1.8364;0.3304;0.5099;0.4608
0004531739;4.9105;0.8380;1.5538;0.2983;0.5470;0.4449
0004531747;4.5801;0.7661;1.2306;0.2916;0.5780;0.4147
0004531814;5.3486;-1.9082;1.6352;0.2478;0.5784;0.0137
0004531822;5.3606;-2.4086;1.6137;0.2174;0.5247;-0.0107
0004531830;5.4971;-2.8323;1.2665;0.2006;0.4794;-0.0156
0004531838;5.7892;-3.1675;0.3759;0.2200;0.4666;0.0254
0004531846;5.7389;-3.6320;0.2107;0.2554;0.4651;0.0822
0004531854;5.7772;-3.8307;-0.0694;0.2625;0.4525;0.1976
0004531862;6.0980;-3.8044;0.0431;0.2168;0.4571;0.3671
0004531870;5.9711;-4.1707;0.0575;0.1525;0.4764;0.5758
0004531878;6.0214;-4.5107;-0.2203;0.1075;0.4534;0.8014
0004531886;6.5098;-4.6855;-0.4597;0.0989;0.4321;0.9983
0004531894;6.9073;-4.8818;-1.5155;0.1909;0.4473;1.1811
0004531902;7.4148;-5.0422;-2.6001;0.3933;0.5470;1.3179
0004531910;7.3981;-5.3079;-3.8427;0.7035;0.6824;1.3646
0004531918;7.1682;-5.4588;-4.3670;1.0182;0.7588;1.2993
0004531926;6.9839;-5.5162;-4.4867;1.2375;0.7414;1.1511
0004531934;7.1467;-5.8921;-4.1659;1.3070;0.7232;1.0180
0004531942;7.0653;-5.8634;-4.2952;1.2672;0.7456;0.8733
0004531950;7.3143;-5.9687;-3.9049;1.1864;0.7701;0.7694
0004531958;7.5561;-5.9424;-3.8068;1.0701;0.7914;0.7044
0004531966;7.4651;-6.2177;-3.2825;0.9185;0.7691;0.6618
0004531974;7.6710;-6.0813;-2.9880;0.7634;0.7470;0.6332
0004531982;7.9104;-5.9951;-2.5881;0.6050;0.7221;0.6203
0004531990;7.7955;-6.1483;-2.6743;0.4743;0.6578;0.6147
0004531998;8.3390;-5.8538;-3.3495;0.3738;0.5287;0.6223
0004532006;8.7317;-5.4971;-4.1970;0.2739;0.3396;0.6556
0004532014;9.5217;-4.2282;-5.2601;0.0927;0.0609;0.6909
0004532022;10.1682;-2.1261;-6.4572;-0.2649;-0.3520;0.6813
0004532030;12.1314;1.0199;-6.7109;-0.8961;-0.8280;0.6712
0004532038;14.0947;5.1092;-6.1459;-1.8255;-1.1251;0.6675
0004532046;15.2630;10.2903;-7.3478;-2.8589;-1.3163;0.5450
0004532054;15.2439;16.2710;-11.1354;-3.4503;-1.6954;0.0954
0004532062;15.6533;23.7625;-11.6095;-3.6182;-1.8036;-0.5147
0004532070;16.1369;31.2946;-9.5146;-3.8176;-1.7071;-1.1002
0004532078;16.4937;34.4669;-7.2951;-3.5904;-1.6483;-1.5617
0004532086;17.8248;35.2067;-3.5985;-2.8314;-1.6882;-1.7349
0004532094;19.8575;30.5692;1.4437;-1.3009;-1.7932;-1.3163
0004532102;19.7306;22.8574;6.5912;0.3416;-2.0282;-0.6602
0004532110;17.1018;14.3077;8.4491;1.4667;-2.2408;-0.0225
0004532118;11.8992;7.9440;7.8027;1.9095;-2.1384;0.3208
0004532126;7.7548;4.1803;7.7812;1.9457;-1.6683;0.4303
0004532134;5.1451;2.1668;8.4898;1.6437;-0.8895;0.3714
0004532142;2.7390;0.5004;9.7827;1.0900;-0.2461;0.2066
0004532150;0.8380;-1.0175;10.3334;0.4021;-0.0297;-0.0472
0004532158;-0.2274;-2.6624;9.5672;-0.1167;-0.2493;-0.3083
0004532166;-0.2849;-4.3574;8.2648;-0.2956;-0.8400;-0.5243
0004532174;1.0678;-5.2361;5.9233;-0.0923;-1.2885;-0.7334
0004532182;2.8898;-5.8490;4.1803;0.2661;-1.3921;-0.8675
0004532190;5.0613;-6.1531;2.4421;0.6719;-1.4249;-0.9606
0004532198;7.2520;-5.4253;1.1516;1.0280;-1.5252;-1.0367
0004532206;8.7149;-4.2928;0.2490;1.2029;-1.6790;-1.0608
0004532214;10.6853;-1.8435;-1.5227;1.2096;-1.7684;-1.1069
0004532222;12.7443;1.6927;-3.4740;1.0162;-1.5585;-1.2272
0004532230;13.1825;5.0159;-4.8985;0.4181;-1.1855;-1.5218
0004532238;9.7324;7.3143;-4.7405;-0.5337;-1.3402;-1.9378
0004532246;5.5617;5.9424;-3.3232;-1.0116;-1.3470;-2.0771
0004532254;3.1723;4.8387;-0.2442;-1.2155;-1.0464;-1.9335
0004532262;1.6544;4.1013;2.7821;-1.4689;-0.6454;-1.5483
0004532270;0.5171;3.7661;4.4245;-1.7080;-0.4179;-1.0648
0004532278;-0.1437;3.4644;4.5538;-1.6995;-0.4359;-0.6965
0004532286;1.0534;3.8068;4.0342;-1.4306;-0.6135;-0.5221
0004532294;4.0606;4.2114;2.6815;-1.0611;-0.6797;-0.4277
0004532302;7.0629;3.9744;1.3838;-0.6263;-0.6547;-0.3171
0004532310;8.8250;3.6536;0.3280;-0.1446;-0.5995;-0.2891
0004532318;8.3893;3.6775;-0.5938;0.0877;-0.5411;-0.3203
0004532326;6.6655;4.2641;-1.3982;-0.0096;-0.5522;-0.2931
0004532334;4.5083;5.1475;-3.1316;-0.2923;-0.4166;-0.1769
0004532342;2.1069;6.8378;-4.3718;-0.6656;-0.1863;-0.0119
0004532350;-0.7925;8.1666;-3.8403;-1.1309;0.0009;0.0937
0004532358;-3.3758;9.2751;-1.1133;-1.6206;0.0481;0.0550
0004532366;-4.7908;9.2249;2.5594;-2.1020;0.0637;-0.0693
0004532374;-3.8499;7.8578;5.3319;-2.3839;-0.0065;-0.0743
0004532382;1.9848;6.9887;6.9097;-2.3820;0.0035;0.1396
0004532449;-1.4246;13.6996;2.1524;-0.3641;0.5385;0.5195
0004532457;-2.5881;13.2040;2.6384;-0.2217;0.6857;0.6314
0004532465;-2.4014;12.3349;2.6671;0.0033;0.8307;0.6340
0004532473;-0.1030;10.6063;2.6049;0.2731;1.0172;0.5812
0004532481;2.2027;8.8274;2.7677;0.4406;1.1211;0.5159
0004532489;3.7996;7.4101;2.2649;0.4241;1.1515;0.4215
0004532497;4.9392;6.5194;1.6257;0.3595;1.1297;0.2959
0004532505;6.0789;5.9448;0.8667;0.3084;1.0878;0.1519
0004532513;6.6343;5.6240;0.4741;0.2611;1.0119;-0.0028
0004532521;7.3023;5.3558;0.6512;0.2176;0.9084;-0.1368
0004532529;7.6207;5.0087;0.8715;0.1835;0.8140;-0.2325
0004532537;8.0493;4.8291;1.0391;0.1978;0.7244;-0.2747
0004532545;8.2145;4.5059;0.9720;0.2410;0.6502;-0.2798
0004532553;7.8817;4.0677;0.9816;0.3104;0.5689;-0.2514
0004532561;7.3430;3.7828;0.9720;0.3818;0.5319;-0.2025
0004532569;6.6415;3.3734;1.0391;0.4301;0.4939;-0.1459
0004532577;5.8083;3.1125;0.7973;0.4884;0.4518;-0.0733
0004532585;5.3582;3.0382;0.6752;0.5438;0.4108;-0.0113
0004532593;5.1715;2.8180;0.4286;0.5800;0.3608;0.0500
0004532601;5.4468;2.7102;0.4597;0.6090;0.3112;0.0714
0004532609;5.7269;2.5163;0.5626;0.6258;0.2513;0.0510
0004532617;6.1723;2.2625;0.8763;0.6315;0.1780;0.0076
0004532625;6.4572;1.8651;0.9529;0.6275;0.1112;-0.0350
0004532633;6.8139;1.2474;1.0606;0.6372;0.0428;-0.0847
0004532641;6.9288;0.9313;1.1684;0.6362;0.0004;-0.1140
0004532649;6.9384;0.4621;1.0726;0.6394;-0.0248;-0.1428
0004532657;6.6248;0.0024;1.0391;0.6466;-0.0429;-0.1636
0004532665;6.2273;-0.4477;1.0774;0.6487;-0.0488;-0.1641
0004532673;5.8203;-0.7207;1.0726;0.6203;-0.0516;-0.1360
0004532681;5.4324;-0.9768;1.1229;0.5902;-0.0484;-0.1045
0004532689;5.3510;-1.1660;0.9840;0.5452;-0.0437;-0.0586
0004532697;5.1427;-1.3647;0.7805;0.4912;-0.0422;-0.0185
0004532705;5.1475;-1.5179;0.8236;0.4277;-0.0350;0.0376
0004532713;5.1763;-1.6688;0.9074;0.3477;-0.0372;0.0883
0004532721;5.3893;-1.8076;1.2258;0.2803;-0.0464;0.1216
0004532729;5.5043;-1.9968;1.5179;0.2252;-0.0524;0.1484
0004532737;5.7772;-2.0782;1.9345;0.1852;-0.0610;0.1636
0004532745;6.0908;-2.2266;2.1069;0.1488;-0.0782;0.1829
0004532753;6.0190;-2.4469;2.3128;0.1029;-0.0858;0.2120
0004532761;6.1316;-2.6145;2.2410;0.0561;-0.0866;0.2478
0004532769;6.1459;-2.6935;2.1955;0.0185;-0.0851;0.2836
0004532777;6.2537;-2.8228;2.1356;-0.0281;-0.0622;0.3383
0004532785;6.1818;-2.7605;2.0686;-0.0679;-0.0317;0.4057
0004532793;5.9185;-2.8084;1.8220;-0.1198;0.0072;0.4735
0004532801;5.5545;-2.5833;1.5874;-0.1865;0.0332;0.5357
0004532809;5.2170;-2.4038;1.1947;-0.2590;0.0465;0.5895
0004532817;4.8554;-2.0830;1.0918;-0.3219;0.0562;0.6388
0004532825;4.6687;-1.7071;1.1157;-0.3746;0.0677;0.6816
0004532833;4.4077;-1.4413;1.0415;-0.4231;0.0879;0.7280
0004532841;4.7621;-0.9218;1.0989;-0.4684;0.1069;0.7657
0004532849;4.7788;-0.5291;1.1588;-0.5104;0.1274;0.7983
0004532857;4.9177;0.2011;1.2282;-0.5356;0.1366;0.8094
0004532865;5.0470;0.7877;1.0750;-0.5570;0.1617;0.8070
0004532873;5.1044;1.3312;1.0343;-0.5486;0.1747;0.7878
0004532881;5.4348;1.8459;0.9266;-0.5033;0.2048;0.7605
0004532889;5.4253;2.3703;0.7973;-0.4358;0.2425;0.7421
0004532897;5.3367;2.6360;0.4812;-0.3441;0.2894;0.7152
0004532905;5.4085;3.1651;-0.0479;-0.2329;0.3204;0.6688
0004532913;4.9177;2.8826;-0.4717;-0.1256;0.3479;0.6198
0004532921;4.8195;2.7605;-0.5890;-0.0205;0.3457;0.5504
0004532929;5.1427;2.4469;-0.7709;0.0945;0.3206;0.4762
0004532937;5.1092;1.9632;-1.2689;0.2260;0.2785;0.3816
0004532945;5.5522;1.5347;-1.6688;0.3584;0.2453;0.2519
0004532953;5.3941;0.5483;-1.8603;0.5113;0.1797;0.0969
0004532961;5.6527;0.1173;-2.1356;0.6917;0.1091;-0.0622
0004532969;5.6862;-0.3352;-2.2697;0.9021;0.0123;-0.2069
0004532977;5.8107;-1.0870;-2.3679;1.0997;-0.0650;-0.3066
0004532985;6.0310;-1.8818;-2.6025;1.2605;-0.0706;-0.3633
0004532993;5.4612;-2.6528;-3.1268;1.4294;-0.0717;-0.4493
0004533001;4.1803;-3.1316;-3.7924;1.6100;-0.1881;-0.6177
0004533009;3.9696;-3.6583;-4.8267;1.7583;-0.3998;-0.7639
0004533017;5.4899;-3.8882;-5.6671;1.8622;-0.3234;-0.7240
0004533025;6.5649;-3.4357;-4.4652;1.7018;0.1388;-0.5605
0004533091;7.7333;7.6184;6.7038;-3.8124;0.5200;1.0014
0004533099;5.1068;7.1491;8.1954;-2.6750;0.8256;0.6094
0004533107;2.0614;8.7556;8.7939;-1.3904;1.1126;0.1969
0004533115;0.1987;11.0157;8.0302;-0.4235;1.1535;-0.1628
0004533123;1.9489;12.5600;5.4324;0.1856;0.8232;-0.4186
0004533131;8.1642;12.2679;3.9528;0.5061;0.5950;-0.5267
0004533139;11.8106;10.6087;4.7190;0.7257;0.2388;-0.5713
0004533147;14.5879;8.9280;5.6000;0.9521;-0.1159;-0.5329
0004533155;15.9310;7.3741;6.1723;1.1471;-0.5228;-0.4151
0004533163;16.9653;5.8490;6.0094;1.2722;-0.8343;-0.2866
0004533171;17.1784;4.5849;5.7413;1.3137;-1.0162;-0.2272
0004533179;16.2447;2.8659;4.8004;1.2642;-1.0902;-0.2579
0004533187;14.3844;1.2617;4.1180;1.1479;-1.1321;-0.3564
0004533195;12.0141;0.2370;3.4644;1.0327;-1.2359;-0.3850
0004533203;10.0030;-0.7590;3.0311;0.9088;-1.3030;-0.3587
0004533211;8.7532;-1.2881;2.9281;0.7821;-1.2620;-0.2979
0004533219;7.4603;-1.5179;2.2098;0.6311;-1.1714;-0.2618
0004533227;6.3351;-1.4341;1.4269;0.4247;-1.0444;-0.2511
0004533235;5.2074;-1.0582;0.7518;0.1729;-0.9084;-0.2501
0004533243;4.0797;-0.5507;0.0790;-0.0999;-0.7975;-0.2514
0004533251;3.5003;0.0910;-0.5435;-0.3287;-0.7631;-0.2455
0004533259;3.0023;0.4717;-0.7135;-0.4818;-0.8290;-0.2352
0004533267;3.5913;0.6321;-0.5435;-0.4351;-0.9260;-0.2094
0004533275;5.4468;0.2777;-0.2035;-0.1559;-0.8859;-0.1564
0004533283;6.2010;-0.3711;0.4477;0.2683;-0.8517;-0.1085
0004533291;6.7612;-1.0199;0.5602;0.6880;-0.8088;-0.0790
0004533299;6.8618;-1.5706;0.5219;1.0251;-0.7472;-0.0721
0004533307;7.2185;-2.1668;0.1053;1.2554;-0.6889;-0.0821
0004533315;7.3957;-3.0454;-0.5004;1.4829;-0.5965;-0.1399
0004533323;7.4723;-3.8762;-1.4748;1.7188;-0.4206;-0.2156
0004533331;7.3119;-4.3503;-2.9329;1.9231;-0.2459;-0.2653
0004533339;6.5362;-4.1875;-4.8626;2.1048;0.0175;-0.2574
0004533347;5.0111;-3.6679;-6.2560;2.0956;0.3369;-0.1941
0004533355;3.1460;-2.7270;-7.1946;1.7396;0.6534;-0.0715
0004533363;0.7446;-1.2450;-7.7021;1.1684;0.8819;0.0803
0004533371;-1.7645;1.6592;-7.5657;0.2670;0.9493;0.2495
0004533379;-3.7014;5.4708;-6.5601;-0.8860;0.9265;0.5321
0004533387;-4.6424;9.9144;-5.5929;-2.1813;1.0800;1.0291
0004533395;-4.1827;13.5416;-3.9576;-3.1952;1.1622;1.4602
0004533403;0.0144;15.7754;-1.5419;-3.5691;0.9681;1.3138
0004533411;5.4947;15.1888;2.7869;-3.1862;0.7873;0.7695
0004533419;9.6893;13.3860;6.4931;-2.2287;0.4222;0.2682
0004533427;12.2679;12.3110;8.0517;-1.1333;0.0895;-0.0661
0004533435;14.5137;12.3445;6.3279;-0.3419;-0.1856;-0.1848
0004533443;14.6549;11.7148;4.3958;0.1194;-0.4040;-0.2076
0004533451;14.0252;11.1354;4.0414;0.2158;-0.5750;-0.1856
0004533459;11.6789;10.2065;4.9919;0.0685;-0.6278;-0.1410
0004533467;8.8442;8.9471;5.7988;-0.0390;-0.6388;-0.1099
0004533475;6.4284;7.3430;5.7533;0.0525;-0.6026;-0.1276
0004533483;4.2904;6.5864;5.1236;0.3289;-0.4856;-0.1769
0004533491;2.2338;5.6790;3.8618;0.7136;-0.3524;-0.2449
0004533499;0.5914;4.8100;2.6983;1.1262;-0.1592;-0.3300
0004533507;-0.8475;3.4261;1.8938;1.4958;0.0196;-0.4128
0004533515;-1.5730;1.7047;1.3408;1.7896;0.2197;-0.4732
0004533523;-1.5969;-0.1484;1.1947;2.0006;0.4290;-0.5315
0004533531;-1.0415;-1.3934;1.4293;2.0725;0.6115;-0.5461
0004533539;-0.3926;-2.7270;1.2186;2.0225;0.7320;-0.5229
0004533547;0.5578;-3.9456;1.3024;1.9283;0.7657;-0.4517
0004533555;1.9154;-5.2409;1.4724;1.8634;0.7418;-0.3517
0004533563;3.3782;-5.8993;1.3934;1.8899;0.7554;-0.2924
0004533571;4.6471;-6.4332;1.1301;1.9717;0.7659;-0.2489
0004533579;5.6336;-6.6631;1.0989;2.0848;0.7212;-0.2053
0004533587;6.5410;-6.6822;1.4389;2.1893;0.5729;-0.1494
0004533595;7.2018;-6.7373;1.6592;2.2476;0.4205;-0.0901
0004533603;7.8123;-6.7086;1.7885;2.2378;0.3252;-0.0645
0004533611;8.3773;-6.8378;1.8579;2.1850;0.2952;-0.0606
0004533619;8.7676;-7.0390;1.4317;2.0991;0.3220;-0.1069
0004533627;9.3589;-7.1156;0.9026;1.9698;0.4112;-0.1703
0004533635;9.1937;-7.6136;-0.2753;1.7497;0.5903;-0.2398
0004533643;9.0668;-8.1523;-2.0111;1.5740;0.8158;-0.3341
0004533651;8.7771;-8.5976;-4.5897;1.3416;1.1298;-0.3908
0004533659;8.9807;-8.7317;-8.1355;1.1900;1.5813;-0.3327
0004533725;10.4435;12.3589;3.2058;-4.3657;-0.8881;0.7205
0004533733;8.6335;10.7332;9.1866;-4.3657;-0.6562;0.1342
0004533741;7.3813;9.7947;13.0556;-4.3657;-0.2354;-0.6291
0004533749;6.0908;8.7460;14.3748;-4.3183;0.2546;-1.1025
0004533757;4.3742;8.8155;14.3006;-3.6934;0.7754;-1.1787
0004533765;1.7406;8.5617;12.6749;-2.7639;0.8175;-1.0088
0004533773;0.4741;9.1530;9.3637;-1.6903;0.4660;-0.7445
0004533781;1.1444;10.6781;6.1675;-0.8721;0.2036;-0.5689
0004533789;3.7972;11.2863;4.4628;-0.4503;0.2407;-0.5000
0004533797;6.2369;9.4451;4.1180;-0.1366;0.3289;-0.5155
0004533805;8.0948;7.5393;4.2665;0.2447;0.3830;-0.4922
0004533813;9.0070;5.6407;4.1755;0.5554;0.3914;-0.3768
0004533821;9.3446;4.4149;3.4213;0.7232;0.4222;-0.2650
0004533829;8.5976;2.8156;2.6647;0.8291;0.4903;-0.2070
0004533837;7.5992;1.7526;1.8148;0.8990;0.5207;-0.1212
0004533845;6.2776;0.3663;1.3623;0.9910;0.5384;-0.0428
0004533853;5.9328;-0.6081;1.2450;1.0047;0.5899;0.0905
0004533861;5.8490;-1.6352;1.5610;0.9621;0.6319;0.2434
0004533869;5.2337;-3.0813;1.1564;0.9174;0.6947;0.3389
0004533877;5.3702;-4.1683;0.6440;0.9202;0.7999;0.3889
0004533885;5.4875;-5.0566;0.0934;1.0321;0.8452;0.4241
0004533893;5.1068;-5.8035;-0.6225;1.3027;0.8487;0.3476
0004533901;5.2337;-6.4356;-1.8340;1.6482;0.8755;0.1807
0004533909;5.9520;-6.7133;-3.2394;1.9385;0.9903;0.0115
0004533917;5.8873;-6.8067;-5.4755;2.1621;1.3552;-0.1298
0004533925;4.7405;-5.8490;-8.6335;2.1646;1.8163;-0.1655
0004533933;2.7102;-3.5099;-11.9279;1.7918;2.2152;-0.0598
0004533941;-0.2466;0.6967;-12.1817;0.5953;2.0260;0.1104
0004533949;-2.0470;7.0270;-8.7700;-1.7489;1.3579;0.2591
0004533957;-1.6065;15.0859;-3.0789;-4.3657;0.8484;0.3946
0004533965;2.4636;19.6468;-1.7526;-4.3657;0.5849;0.9719
0004533973;7.0749;20.7218;-4.0438;-4.3657;0.5099;1.3705
0004533981;11.1450;19.9940;-3.0598;-4.3657;0.4128;1.4189
0004533989;13.9534;17.2478;4.9392;-4.3657;0.3162;0.9739
0004533997;13.5871;16.7570;12.9838;-2.4368;0.0020;0.2669
0004534005;13.5392;22.4193;14.3652;-0.9288;-0.0588;0.1172
0004534013;10.3932;27.5860;10.4267;-0.8787;-0.0246;0.2017
0004534021;6.0454;27.9954;7.0964;-0.8302;-0.0314;0.0434
0004534029;3.4692;24.8039;7.2832;0.0029;0.1115;-0.3134
0004534037;1.5514;20.7553;8.1834;1.1632;0.2569;-0.5670
0004534045;0.3687;17.4681;7.8650;1.9161;0.3420;-0.6412
0004534053;0.1700;13.8074;6.6655;2.2735;0.4445;-0.5798
0004534061;0.4645;10.7667;5.1739;2.3459;0.6037;-0.4481
0004534069;1.0295;8.3701;3.8714;2.2274;0.7925;-0.3227
0004534077;1.7741;6.3015;2.7390;2.0443;0.9328;-0.2467
0004534085;3.0167;4.8123;2.3008;1.8357;1.0749;-0.2137
0004534093;3.8906;3.4788;2.2098;1.6581;1.2075;-0.2268
0004534101;4.6974;2.3439;2.3272;1.5038;1.2949;-0.2531
0004534109;5.4037;1.6879;2.3822;1.3813;1.3775;-0.2665
0004534117;5.9472;0.8930;2.4373;1.2812;1.4273;-0.2349
0004534125;6.3398;0.4166;2.6815;1.2083;1.4540;-0.1721
0004534133;6.5960;-0.5028;3.0526;1.1947;1.4897;-0.0871
0004534141;6.6535;-1.3384;3.3830;1.2348;1.5480;-0.0057
0004534149;6.4045;-2.2266;3.7086;1.2927;1.6214;0.0625
0004534157;6.2153;-3.1196;3.3495;1.3748;1.6926;0.1299
0004534165;6.1076;-4.0630;2.7198;1.4881;1.7487;0.1895
0004534173;6.0597;-4.7597;1.9082;1.6217;1.8010;0.2102
0004534181;6.1723;-5.5976;0.6728;1.7609;1.8355;0.2057
0004534189;6.3686;-6.0789;-0.5986;1.8888;1.8410;0.1615
0004534197;6.2704;-6.5697;-1.8507;2.0351;1.7810;0.0754
0004534205;6.4859;-6.7229;-2.6001;2.1841;1.6350;-0.0532
0004534213;6.7924;-6.5745;-3.1723;2.2195;1.5553;-0.2050
0004534221;7.2209;-6.4404;-2.8515;2.1048;1.6116;-0.2938
0004534229;7.4603;-5.9975;-2.4756;1.7812;1.5973;-0.2549
0004534237;7.2999;-5.7174;-2.1811;1.2577;1.4978;-0.1099
0004534245;6.9480;-5.3558;-2.0303;0.6287;1.4878;0.0899
0004534253;5.9711;-5.0781;-1.7597;-0.0851;1.5992;0.3239
0004534261;4.8459;-4.5633;-1.4317;-0.8468;1.7389;0.4926
0004534269;4.2713;-4.0007;-1.6496;-1.5537;1.8226;0.5311
0004534277;3.2585;-3.1412;-3.1603;-2.1409;1.8382;0.4531
0004534285;2.3296;-1.8364;-3.6296;-2.6389;1.9272;0.2703
0004534293;0.7877;0.3304;-4.6424;-2.9902;2.0560;-0.2611
0004534301;-1.2833;6.8043;-5.8658;-3.5681;1.8759;-1.6868
0004534369;9.6558;14.4227;6.7229;-0.2101;2.1093;1.2356
0004534377;9.7372;12.9814;5.2984;0.5706;2.3177;1.0419
0004534385;8.4443;9.3518;3.8307;1.2095;2.4496;0.9533
0004534393;7.7692;6.6224;2.6839;1.6555;2.4669;0.8989
0004534401;7.0390;4.3335;1.2929;1.8475;2.3710;0.8599
0004534409;6.9145;2.6743;0.4621;1.7876;2.2651;0.8014
0004534417;6.6942;1.6257;-0.1820;1.5773;2.1890;0.6856
0004534425;6.5218;1.1037;-0.6129;1.2045;2.1408;0.5488
0004534433;5.8347;0.8164;-0.6345;0.7454;2.1542;0.3980
0004534441;4.9536;0.4597;-0.7661;0.3086;2.1673;0.2984
0004534449;3.7182;0.3759;-0.8188;-0.0418;2.2246;0.1840
0004534457;3.0526;0.4118;-0.6177;-0.2114;2.3105;0.0891
0004534465;3.1819;0.6800;-0.1891;-0.1833;2.3934;0.0152
0004534473;3.4740;0.7925;0.1604;-0.0545;2.4733;-0.0136
0004534481;4.1946;1.1229;0.5531;0.1095;2.5592;-0.0401
0004534489;5.0470;1.3455;0.9074;0.2306;2.6105;-0.0433
0004534497;5.6383;1.3791;1.1708;0.3014;2.6081;-0.0650
0004534505;6.4907;1.5993;1.4868;0.3154;2.5624;-0.0934
0004534513;7.2329;1.4269;1.5203;0.3131;2.5009;-0.1372
0004534521;7.9296;1.4150;1.5060;0.2914;2.4563;-0.1661
0004534529;8.3366;1.3240;1.6568;0.2783;2.4217;-0.2057
0004534537;8.9735;1.3695;1.6855;0.2531;2.3830;-0.2313
0004534545;8.9352;1.2354;1.8579;0.1877;2.3451;-0.2409
0004534553;9.0692;1.5419;1.5419;0.0863;2.2941;-0.2322
0004534561;9.0692;1.7741;1.1995;-0.0277;2.2435;-0.2061
0004534569;8.6622;2.0351;1.1109;-0.1371;2.1914;-0.1684
0004534577;8.9328;2.5929;0.9768;-0.1917;2.1501;-0.1275
0004534585;8.3821;2.4421;0.9409;-0.1747;2.1000;-0.1058
0004534593;8.5305;2.6504;1.2402;-0.0753;2.0720;-0.0933
0004534601;8.3007;2.7031;1.2234;0.0557;2.0185;-0.0949
0004534609;8.2456;2.5929;1.6544;0.1901;1.9661;-0.1284
0004534617;8.1570;2.3343;1.5897;0.2634;1.9295;-0.1689
0004534625;8.3222;2.1261;1.7310;0.3086;1.8782;-0.2238
0004534633;8.2097;1.8986;1.9728;0.3122;1.8225;-0.2779
0004534641;8.3246;1.6520;2.2218;0.2996;1.7664;-0.3198
0004534649;8.5712;1.4389;2.7270;0.2447;1.6986;-0.3409
0004534657;8.6335;1.3024;3.2609;0.1696;1.6264;-0.3297
0004534665;8.9711;1.2043;3.5626;0.0545;1.5525;-0.2834
0004534673;9.3254;1.2498;3.7182;-0.0983;1.5010;-0.2134
0004534681;9.6582;1.4605;3.4333;-0.2665;1.4432;-0.1228
0004534689;9.9072;1.4772;3.4189;-0.4503;1.3901;-0.0366
0004534697;10.0102;1.5012;2.8635;-0.6388;1.3422;0.0401
0004534705;9.4499;1.1396;2.3703;-0.7669;1.3187;0.0628
0004534713;9.0836;1.1492;1.3527;-0.8135;1.3071;0.0370
0004534721;8.9878;1.9225;-0.6656;-0.8363;1.3315;0.1163
0004534729;7.9966;3.6703;-4.4053;-0.9733;1.5934;0.3957
0004534737;4.2617;7.1874;-10.0461;-1.1772;2.2298;0.9450
0004534745;-0.0144;10.8002;-10.8625;-1.6339;2.7002;1.7291
0004534753;-3.3088;12.5887;-9.1794;-2.0920;2.6934;2.2655
0004534761;-1.6592;11.8321;-3.0718;-2.1024;2.2322;2.2300
0004534769;2.4325;10.3549;2.1691;-1.8700;1.9634;1.9911
0004534777;5.9975;7.5657;5.5306;-1.2337;1.9681;1.6274
0004534785;8.7221;6.2393;5.8012;-0.2605;1.9817;1.1566
0004534793;10.4052;5.8490;3.1939;0.6847;1.9200;0.6363
0004534801;10.9559;5.1427;0.4525;1.3360;1.8401;0.3072
0004534809;10.9032;3.6607;-1.0654;1.8242;1.7276;0.0855
0004534817;10.2999;1.7980;-1.8052;2.0903;1.5717;-0.0970
0004534825;9.0597;0.2945;-1.7717;2.1895;1.4254;-0.2365
0004534833;6.7133;-0.3639;-1.6903;2.0803;1.3078;-0.3104
0004534841;4.5418;-0.1915;-2.1596;1.6763;1.3223;-0.3016
0004534849;2.8467;0.3304;-2.9233;1.0801;1.5180;-0.2626
0004534857;1.3910;0.9194;-3.6990;0.4439;1.7126;-0.1932
0004534865;0.5219;1.5874;-3.9480;-0.0914;1.9045;-0.0947
0004534873;0.1915;2.1069;-3.3303;-0.4109;2.1166;-0.0368
0004534881;0.3998;2.6887;-2.3655;-0.5525;2.3097;-0.0312
0004534890;1.0965;3.2346;-1.0511;-0.5584;2.5482;-0.0550
0004534899;1.5538;3.2394;-0.0910;-0.4242;2.7783;-0.1420
0004534908;2.1476;3.0813;0.4238;-0.1871;2.9752;-0.2738
0004534917;2.4708;2.7102;0.6345;0.0785;3.1289;-0.4161
0004534926;3.1316;2.4636;0.5650;0.2181;3.2551;-0.5105
0004534935;3.6847;2.2098;0.6704;0.1865;3.3751;-0.5606
0004534944;4.1013;1.6592;0.5483;0.0485;3.4314;-0.5211
0004534953;4.8411;1.7190;0.3160;-0.1010;3.4167;-0.4209
0004534962;5.7820;2.0853;0.4310;-0.2538;3.3512;-0.2683
0004535030;8.0110;3.3854;0.5842;0.1978;2.4938;-0.2938
0004535039;6.5960;3.2801;0.5315;0.2358;2.4387;-0.3683
0004535048;5.6934;3.2346;0.5818;0.2386;2.3818;-0.3972
0004535057;5.0254;3.1891;0.8140;0.2285;2.3298;-0.3948
0004535066;5.0733;3.1460;1.0726;0.2072;2.2617;-0.3708
0004535075;5.4468;2.9161;1.4030;0.1887;2.1777;-0.3223
0004535084;6.1938;2.5738;1.6137;0.1637;2.0821;-0.2795
0004535093;7.2377;2.2673;1.4078;0.1347;1.9628;-0.2394
0004535102;8.4827;1.9513;1.2785;0.0701;1.8115;-0.1916
0004535111;9.4068;2.1452;0.8332;0.0057;1.6403;-0.1212
0004535120;9.9335;1.8028;0.4884;-0.0197;1.4662;-0.0710
0004535129;10.4196;2.0375;0.3089;-0.0092;1.2862;-0.0248
0004535138;10.6494;2.0207;0.1604;0.0124;1.0512;0.0257
0004535147;10.7164;1.8914;0.0503;0.0434;0.8350;0.0474
0004535156;9.9575;1.9201;-0.0383;0.0714;0.6644;0.0405
0004535165;8.2791;1.7382;-0.2442;0.0774;0.5232;0.0236
0004535174;7.0892;2.0207;-0.0551;0.0847;0.4535;0.0007
0004535183;5.9089;2.0758;0.4597;0.0490;0.4664;0.0180
0004535192;4.8818;1.9441;1.0894;-0.0242;0.5316;0.0357
0004535201;4.1683;2.4014;1.1779;-0.1316;0.5769;0.0743
0004535210;3.5291;2.6839;1.1660;-0.2578;0.5989;0.1467
0004535219;3.1101;3.1125;0.9170;-0.3750;0.5670;0.2709
0004535228;4.2282;3.3854;0.8906;-0.4045;0.4691;0.4365
0004535237;6.2968;3.3519;1.4078;-0.3726;0.4347;0.5769
0004535246;7.6806;3.3639;1.4676;-0.3460;0.3977;0.6496
0004535255;8.6694;3.1867;1.4054;-0.3226;0.3585;0.6495
0004535264;9.3972;3.2058;1.3910;-0.2962;0.3352;0.6159
0004535273;9.7085;3.2250;1.7813;-0.2914;0.3472;0.5801
0004535282;9.1219;2.9856;1.8268;-0.3497;0.3489;0.4984
0004535291;7.3143;2.6791;1.1612;-0.4521;0.3373;0.3469
0004535300;5.7964;3.1603;-0.0479;-0.6074;0.3315;0.1362
0004535309;6.4069;5.0182;-1.4222;-0.9066;0.2555;-0.2894
0004535318;7.5106;6.7014;-3.5961;-1.3370;0.1291;-0.9208
0004535327;7.7452;7.9057;-5.9664;-1.7918;-0.0821;-1.5577
0004535336;6.7133;8.0158;-5.9951;-2.1268;-0.1811;-1.9556
0004535345;4.6855;7.7165;-4.8459;-2.2663;-0.1673;-2.1794
0004535354;2.1668;7.4124;-3.8523;-2.1671;0.0056;-2.1869
0004535363;-0.0575;6.5984;-3.5961;-1.7906;0.2256;-1.9133
0004535372;-1.8459;5.3271;-3.4165;-1.1433;0.4211;-1.4465
0004535381;-2.4972;4.1899;-3.2657;-0.4024;0.7065;-0.8852
0004535390;-1.6424;3.0358;-3.0502;0.2542;1.0031;-0.3926
0004535399;1.0127;2.1045;-2.3942;0.7635;1.2153;-0.0624
0004535408;4.2808;1.7214;-1.8962;1.0147;1.2685;0.1792
0004535417;6.5697;1.4724;-1.2115;0.9894;1.2241;0.3664
0004535426;8.3845;1.5754;-0.7159;0.7414;1.1030;0.4998
0004535435;9.5265;1.6544;-0.2298;0.3381;0.8821;0.5383
0004535444;10.7476;1.7071;-0.0120;-0.1041;0.6106;0.4553
0004535453;11.9710;2.0159;-0.2921;-0.5061;0.3293;0.3172
0004535462;12.3062;2.0853;-0.4094;-0.8078;0.1058;0.2028
0004535471;12.4163;2.4325;-0.6560;-0.9874;-0.0629;0.1816
0004535480;11.3389;2.5690;-0.6800;-1.0048;-0.2032;0.2248
0004535489;9.6869;2.3463;-0.7422;-0.8641;-0.4012;0.2407
0004535498;8.8562;2.5786;-0.1484;-0.6672;-0.5666;0.2443
0004535507;8.0852;2.6671;0.0790;-0.4851;-0.7189;0.2467
0004535516;7.6136;2.5953;0.4142;-0.3725;-0.8108;0.2442
0004535525;6.8929;2.4828;0.2777;-0.2958;-0.8532;0.2094
0004535534;6.0142;2.4397;0.4573;-0.2334;-0.8450;0.1559
0004535543;4.8746;2.2003;0.2203;-0.1724;-0.7675;0.1186
0004535552;3.8714;2.3391;-0.0359;-0.1170;-0.6328;0.0825
0004535561;2.9784;2.1548;-0.2155;-0.0622;-0.4875;0.0264
0004535570;2.6288;1.9944;-0.2227;-0.0085;-0.3256;-0.0032
0004535579;2.5666;1.8411;-0.0359;0.0414;-0.1993;-0.0184
0004535588;3.2274;1.7286;0.1197;0.0574;-0.1006;-0.0205
0004535597;4.0510;1.9513;0.1748;0.0665;-0.0442;-0.0366
0004535606;4.9416;2.1620;0.3687;0.0549;-0.0125;-0.0492
0004535615;5.7700;2.1739;0.6297;0.0597;-0.0168;-0.0817
0004535624;6.2417;2.3894;0.8859;0.0470;-0.0278;-0.1087
0004535633;6.8043;2.5905;1.1971;0.0385;-0.0540;-0.1384
0004535642;7.0749;2.4636;1.4150;0.0493;-0.0717;-0.1564
0004535651;7.2520;2.6408;1.5778;0.0810;-0.1178;-0.1679
0004535660;6.6798;2.4972;1.6209;0.1025;-0.1583;-0.1487
0004535669;6.6655;2.3152;1.5227;0.1583;-0.2249;-0.1274
0004535678;6.6200;2.1835;1.5682;0.2206;-0.2791;-0.0949
0004535746;8.7388;2.2625;1.4293;-0.4331;-0.8924;-0.0722
0004535755;8.6957;3.1149;1.0319;-0.6455;-0.9026;-0.0474
0004535764;7.7309;3.8355;0.2682;-0.7954;-0.8863;-0.0205
0004535773;6.5936;4.5107;0.5507;-0.8451;-0.8989;-0.0105
0004535782;5.6048;5.2672;0.9792;-0.7304;-0.9126;-0.0065
0004535791;5.0206;5.7030;1.4006;-0.4835;-0.9282;-0.0268
0004535800;4.8794;6.0885;1.6185;-0.1777;-0.9333;-0.0592
0004535809;5.0661;6.9599;1.2282;0.1252;-0.8804;0.0188
0004535818;3.9385;7.7859;0.7877;0.0537;-0.8604;0.3439
0004535827;3.3854;8.0014;-0.8140;-0.0262;-0.7249;0.6815
0004535836;3.4716;7.5537;-1.6712;0.0474;-0.5957;0.9539
0004535845;3.5434;7.6064;-2.2051;0.0249;-0.4426;1.2919
0004535854;2.6695;7.5058;-2.2003;-0.1459;-0.2478;1.6855
0004535863;2.8299;6.6774;-2.0303;-0.2265;-0.1327;1.9628
0004535872;4.1851;5.7078;-1.5275;0.0362;-0.1147;1.9985
0004535881;5.7413;4.7669;-1.0487;0.4377;-0.1889;1.8431
0004535890;7.3981;3.9097;-1.5658;0.8009;-0.3104;1.5214
0004535899;8.3917;2.7078;-1.7909;1.0130;-0.4090;1.2160
0004535908;9.3039;1.5634;-1.9656;1.0864;-0.5885;0.9703
0004535917;9.6438;0.2729;-2.0782;1.1201;-0.7865;0.7478
0004535926;9.2656;-0.7302;-2.1476;1.1239;-0.9511;0.5650
0004535935;7.6567;-0.9673;-2.3032;1.0576;-1.0709;0.4028
0004535944;5.8466;-0.4477;-2.2146;0.8134;-1.0399;0.2944
0004535953;4.1180;0.3232;-1.6328;0.3976;-0.9057;0.1756
0004535962;2.7270;1.3168;-1.4126;-0.0392;-0.7135;0.1054
0004535971;1.6017;2.6193;-1.0558;-0.4000;-0.4646;0.0982
0004535980;0.7661;4.0342;-0.7446;-0.6474;-0.1820;0.0978
0004535989;-0.5004;4.8578;-0.3807;-0.7582;0.0416;0.0528
0004535998;-0.6249;5.7748;0.2083;-0.6612;0.1673;-0.0640
0004536007;-0.4717;5.5689;0.8619;-0.3854;0.2389;-0.1899
0004536016;0.6991;4.9416;1.0965;0.0398;0.3234;-0.2967
0004536025;2.1620;4.1204;0.6057;0.4189;0.5057;-0.3587
0004536034;3.0670;3.0406;-0.0814;0.5933;0.6331;-0.3774
0004536043;4.1252;2.2841;-0.5243;0.6027;0.7104;-0.3729
0004536052;5.1092;1.7166;-0.7039;0.5095;0.7266;-0.3423
0004536061;5.7916;1.2761;-0.5914;0.3581;0.7000;-0.2986
0004536070;6.3901;0.7230;-0.3639;0.1968;0.6547;-0.2506
0004536079;6.9336;0.5459;-0.2131;0.0285;0.5982;-0.2053
0004536088;7.5226;0.5435;-0.0742;-0.1037;0.5389;-0.1769
0004536095;7.9296;0.7638;0.0359;-0.1928;0.4959;-0.1651
0004536103;7.9320;0.7230;0.1820;-0.2646;0.4505;-0.1506
0004536111;7.8889;1.0965;0.2682;-0.3054;0.3874;-0.1190
0004536119;7.7285;1.3503;0.4214;-0.3210;0.3395;-0.0636
0004536127;7.4699;1.6520;0.4573;-0.3075;0.2891;0.0031
0004536135;7.3119;1.9417;0.5363;-0.2793;0.2390;0.0669
0004536143;7.1778;2.3343;0.6512;-0.2288;0.2172;0.1415
0004536151;6.6894;2.5355;0.7350;-0.1812;0.1811;0.2114
0004536159;6.6583;2.6001;0.9098;-0.1168;0.1507;0.2625
0004536167;6.7445;2.8515;1.0678;-0.0470;0.1083;0.2958
0004536175;6.6870;2.8228;1.2665;-0.0025;0.0667;0.3259
0004536183;6.9743;2.8371;1.1372;0.0490;0.0075;0.3363
0004536191;6.7684;2.7031;1.1325;0.0906;-0.0398;0.3409
0004536199;6.6750;2.5115;1.0989;0.1144;-0.1017;0.3397
0004536207;6.6200;2.4612;1.1516;0.1376;-0.1588;0.3348
