time;acc_x;acc_y;acc_z;gyro_x;gyro_y;gyro_z
0004671516;6.2297;2.7246;-0.1987;0.3006;-0.5220;-0.0175
0004671525;5.9520;2.5139;-0.0742;0.2836;-0.5269;-0.0232
0004671533;5.5402;2.4110;-0.0527;0.2698;-0.5292;-0.0348
0004671541;5.3917;2.4277;-0.0575;0.2350;-0.5167;-0.0344
0004671549;5.2505;2.4732;-0.0287;0.1958;-0.4938;-0.0438
0004671557;5.0925;2.5450;-0.0694;0.1704;-0.4710;-0.0620
0004671565;5.0015;2.4924;-0.1676;0.1383;-0.4367;-0.0690
0004671573;5.0901;2.7533;-0.2658;0.1264;-0.4066;-0.0849
0004671581;5.2984;2.9808;-0.0742;0.1304;-0.3710;-0.1003
0004671589;5.0685;2.9880;-0.0168;0.1583;-0.3381;-0.1111
0004671597;5.1691;2.9951;-0.1365;0.1821;-0.2919;-0.1054
0004671605;5.4516;3.1029;-0.0239;0.2182;-0.2565;-0.0983
0004671613;5.4109;3.0957;-0.0024;0.2485;-0.2326;-0.1035
0004671621;5.2146;3.1412;-0.0646;0.2665;-0.2144;-0.1118
0004671629;5.2002;2.9664;-0.1341;0.2643;-0.2057;-0.1164
0004671637;4.9297;3.0023;-0.1748;0.2433;-0.2062;-0.1371
0004671645;5.2337;3.1723;-0.3328;0.2321;-0.2046;-0.1677
0004671653;5.2170;3.1101;-0.3735;0.2340;-0.1992;-0.1873
0004671661;5.2385;2.9568;-0.3041;0.2495;-0.1861;-0.2138
0004671669;5.5809;3.0454;-0.1365;0.2926;-0.1771;-0.2447
0004671677;5.6216;2.8635;-0.0862;0.3389;-0.1776;-0.2821
0004671685;5.4468;2.8156;-0.0718;0.3573;-0.1761;-0.2922
0004671693;5.6623;2.8228;0.0048;0.3433;-0.1848;-0.3015
0004671701;5.7437;2.5450;-0.0215;0.3127;-0.1972;-0.2886
0004671709;5.9520;2.6552;-0.1915;0.2741;-0.2150;-0.2739
0004671717;5.7964;2.3391;-0.1700;0.2369;-0.2256;-0.2513
0004671725;5.8993;2.3439;-0.2418;0.2086;-0.2517;-0.2395
0004671733;5.7030;2.4110;-0.3711;0.1784;-0.2714;-0.2316
0004671741;5.6240;2.5522;-0.4190;0.1119;-0.2754;-0.2002
0004671749;5.6431;2.7725;-0.5746;0.0293;-0.2876;-0.1551
0004671757;5.8323;3.2394;-0.7997;-0.0641;-0.2711;-0.0706
0004671765;5.5162;3.6129;-1.0271;-0.1319;-0.2439;0.0083
0004671773;5.3654;3.7996;-1.1061;-0.1430;-0.2245;0.0602
0004671781;5.5067;4.1300;-0.9313;-0.1108;-0.1941;0.0937
0004671789;5.6048;4.2689;-0.9050;-0.0296;-0.1823;0.1045
0004671797;5.6072;4.1515;-0.7709;0.0634;-0.1673;0.1134
0004671805;5.7054;4.1013;-0.7135;0.1603;-0.1569;0.1128
0004671813;5.8490;3.8547;-0.7063;0.2406;-0.1412;0.1085
0004671821;5.8490;3.4500;-0.9720;0.2818;-0.1212;0.1131
0004671829;6.1627;3.2250;-0.8906;0.3035;-0.1159;0.1104
0004671837;5.9975;2.7557;-0.8571;0.3187;-0.1207;0.1128
0004671845;5.8610;2.5426;-0.7302;0.3171;-0.1362;0.1147
0004671853;5.7676;2.2793;-0.7638;0.3060;-0.1560;0.1298
0004671861;5.6503;2.0135;-0.7614;0.2884;-0.1832;0.1515
0004671869;5.4708;1.7119;-0.9864;0.2575;-0.2120;0.1877
0004671877;5.5545;1.7286;-1.0918;0.2022;-0.2273;0.2390
0004671885;5.6024;1.5371;-1.0223;0.1295;-0.2525;0.2761
0004671893;5.6838;1.5371;-0.7877;0.0357;-0.2766;0.3108
0004671901;5.7700;1.5921;-0.6728;-0.0807;-0.2986;0.3500
0004671909;6.0454;1.6496;-0.3376;-0.2057;-0.3335;0.3813
0004671917;6.1675;1.9848;-0.3328;-0.3187;-0.3635;0.4225
0004671925;6.3087;2.3391;-0.3759;-0.4110;-0.3972;0.4533
0004671933;6.2944;2.8467;-0.3448;-0.4704;-0.4242;0.4670
0004671941;6.1818;3.2848;-0.4094;-0.4944;-0.4499;0.4551
0004671949;6.1411;3.6799;-0.2682;-0.4860;-0.4630;0.4291
0004671957;5.7652;3.8116;-0.3089;-0.4382;-0.4671;0.3758
0004671965;5.9544;3.9887;-0.1030;-0.3596;-0.4338;0.3207
0004671973;5.5402;3.9121;0.0287;-0.2670;-0.3874;0.2693
0004671981;5.1092;3.8810;0.0670;-0.1721;-0.3439;0.2248
0004671989;4.8100;3.7302;0.0958;-0.1126;-0.2896;0.1936
0004671997;4.4819;3.4548;-0.0048;-0.0697;-0.2328;0.1629
0004672005;4.1707;3.1412;-0.1149;-0.0408;-0.1655;0.1432
0004672013;3.9480;2.8395;-0.2418;-0.0485;-0.0882;0.1426
0004672021;3.9313;2.5905;-0.2729;-0.0717;-0.0119;0.1308
0004672029;4.1779;2.5833;-0.2682;-0.1086;0.0588;0.1167
0004672037;4.2234;2.5115;-0.3089;-0.1680;0.1271;0.0981
0004672045;4.7309;2.7916;-0.3376;-0.2357;0.1848;0.0685
0004672053;5.0350;2.9856;-0.4070;-0.2955;0.2393;0.0481
0004672061;5.1188;3.0718;-0.6273;-0.3321;0.2828;0.0293
0004672069;5.3917;3.2322;-0.7757;-0.3435;0.3099;0.0164
0004672077;5.6168;3.4141;-0.8284;-0.3327;0.3333;0.0216
0004672085;5.7724;3.4333;-0.9553;-0.2990;0.3480;0.0119
0004672151;6.3422;2.3272;-1.1253;0.0624;0.2441;-0.0629
0004672159;6.3375;2.1284;-0.9002;0.0482;0.2450;-0.0422
0004672167;6.1794;1.9944;-0.8380;0.0410;0.2353;-0.0265
0004672175;5.9256;1.7837;-0.8619;0.0119;0.2434;-0.0052
0004672183;5.9328;2.0279;-0.8068;-0.0229;0.2478;0.0173
0004672191;5.8514;1.8411;-0.8188;-0.0624;0.2553;0.0381
0004672199;5.5785;2.0039;-0.8164;-0.1238;0.2539;0.0652
0004672207;5.7533;2.3320;-0.9218;-0.1828;0.2515;0.0967
0004672215;5.6216;2.4301;-0.8906;-0.2418;0.2550;0.1180
0004672223;5.7389;2.7605;-0.9625;-0.2814;0.2369;0.1346
0004672231;5.5402;2.8252;-0.7949;-0.3066;0.2222;0.1442
0004672239;5.7006;3.2298;-0.5531;-0.3215;0.2116;0.1561
0004672247;5.5809;3.4237;-0.3280;-0.2952;0.2002;0.1500
0004672255;5.5091;3.5410;-0.1460;-0.2414;0.2112;0.1296
0004672263;5.4061;3.7733;0.0144;-0.1725;0.2245;0.1091
0004672271;5.0422;3.7326;0.0335;-0.0977;0.2304;0.0926
0004672279;5.0039;3.8978;-0.0599;-0.0324;0.2278;0.0743
0004672287;4.9225;3.8140;-0.1532;0.0088;0.2340;0.0554
0004672295;4.8435;3.7493;-0.4310;0.0376;0.2288;0.0153
0004672303;4.8818;3.6296;-0.5339;0.0434;0.2204;-0.0216
0004672311;5.2385;3.5458;-0.8835;0.0272;0.2193;-0.0637
0004672319;5.2241;3.5003;-0.9002;0.0065;0.2089;-0.1106
0004672327;5.6288;3.5434;-0.9649;-0.0289;0.2044;-0.1498
0004672335;5.4324;3.2561;-0.8356;-0.0478;0.2008;-0.1859
0004672343;5.6527;3.2825;-0.6345;-0.0409;0.1875;-0.2222
0004672351;5.5186;3.0119;-0.5698;-0.0326;0.1904;-0.2302
0004672359;5.6336;2.7629;-0.5746;-0.0177;0.1743;-0.2434
0004672367;5.8873;2.7916;-0.5914;-0.0212;0.1692;-0.2250
0004672375;5.8945;2.5929;-0.5435;-0.0374;0.1575;-0.2036
0004672383;6.1124;2.6312;-0.3879;-0.0468;0.1438;-0.1721
0004672391;6.2560;2.5762;-0.3041;-0.0634;0.1255;-0.1426
0004672399;6.0501;2.2793;-0.3543;-0.0690;0.1115;-0.1100
0004672407;5.9711;2.3631;-0.2322;-0.0698;0.1057;-0.0847
0004672415;6.3111;2.7725;-0.2921;-0.0602;0.1034;-0.0657
0004672423;6.0430;2.6647;-0.4286;-0.0484;0.0922;-0.0461
0004672431;5.9304;2.7150;-0.4908;-0.0416;0.1015;-0.0253
0004672439;5.7078;2.7294;-0.5124;-0.0444;0.1062;-0.0036
0004672447;5.6192;2.8156;-0.5267;-0.0372;0.1073;0.0193
0004672455;5.6886;2.9880;-0.4741;-0.0268;0.1054;0.0388
0004672463;5.4492;2.9760;-0.5100;-0.0080;0.0982;0.0465
0004672471;5.4253;3.0670;-0.4621;-0.0027;0.1059;0.0477
0004672479;5.2098;2.9425;-0.4501;-0.0096;0.1062;0.0477
0004672487;5.2313;3.0813;-0.3663;-0.0224;0.1070;0.0402
0004672495;4.9799;3.0598;-0.4118;-0.0326;0.1168;0.0408
0004672503;5.0685;3.1651;-0.3807;-0.0237;0.1167;0.0245
0004672511;5.1164;3.2489;-0.3998;-0.0148;0.1292;0.0224
0004672519;5.1332;3.1939;-0.2562;-0.0008;0.1318;0.0137
0004672527;5.0589;3.2633;-0.2801;0.0125;0.1504;0.0031
0004672535;5.1451;3.2896;-0.2179;0.0216;0.1687;0.0135
0004672543;5.2433;3.1340;-0.0958;0.0257;0.1763;0.0073
0004672551;5.3367;2.9999;-0.0766;0.0238;0.1844;-0.0033
0004672559;5.3678;2.8252;-0.0072;0.0209;0.1933;0.0045
0004672567;5.4037;2.7797;-0.0575;0.0128;0.2080;0.0079
0004672575;5.6072;2.7294;0.0622;0.0117;0.2089;0.0036
0004672583;5.5019;2.5594;0.1173;0.0073;0.2085;0.0157
0004672591;5.6336;2.5283;0.1269;-0.0161;0.2168;0.0304
0004672599;5.8275;2.7222;0.2059;-0.0334;0.2174;0.0306
0004672607;5.6934;2.6743;0.2322;-0.0564;0.2146;0.0325
0004672615;5.4133;2.6336;0.2873;-0.0873;0.2170;0.0340
0004672623;5.1882;2.5881;0.2155;-0.1115;0.2101;0.0276
0004672631;5.2146;2.6767;0.2179;-0.1254;0.2074;0.0240
0004672639;5.1451;2.6384;0.2873;-0.1446;0.2142;0.0226
0004672647;4.9584;2.5283;0.2634;-0.1536;0.2184;0.0215
0004672655;4.9153;2.3966;0.3089;-0.1696;0.2174;0.0233
0004672663;4.8650;2.2889;0.2298;-0.1796;0.2126;0.0179
0004672671;4.9177;2.5091;0.3160;-0.2064;0.2158;0.0270
0004672679;4.7621;2.3774;0.2753;-0.2217;0.2298;0.0353
0004672687;4.8052;2.4277;0.0646;-0.2593;0.2477;0.0508
0004672695;4.4341;2.3224;0.1532;-0.3010;0.2773;0.0662
0004672703;4.3144;2.3703;0.1460;-0.3236;0.3059;0.0655
0004672711;4.0869;2.3822;0.1844;-0.3356;0.3287;0.0663
0004672719;4.1348;2.3774;0.2466;-0.3276;0.3479;0.0560
0004672727;4.3527;2.4948;0.4166;-0.3139;0.3785;0.0384
0004672792;4.9560;1.1301;0.0646;-0.4875;0.4698;-0.1852
0004672800;4.9871;1.1396;-0.0958;-0.5096;0.4592;-0.1939
0004672808;5.1284;1.2091;-0.1484;-0.5203;0.4399;-0.1933
0004672816;5.2696;1.2306;-0.2011;-0.5087;0.4066;-0.1900
0004672824;5.2960;1.1779;-0.0383;-0.4927;0.3721;-0.1873
0004672832;5.5162;1.3264;0.0311;-0.4742;0.3357;-0.1888
0004672840;5.9065;1.6328;-0.1484;-0.4835;0.3147;-0.1681
0004672848;5.9041;1.5754;-0.3519;-0.5021;0.2766;-0.1476
0004672856;5.9113;1.6113;-0.5291;-0.5041;0.2070;-0.1224
0004672864;6.2584;2.0399;-0.6393;-0.4939;0.1403;-0.0568
0004672872;6.3470;2.2697;-0.7159;-0.4768;0.0738;0.0189
0004672880;6.7780;2.6288;-0.4453;-0.4409;-0.0097;0.1114
0004672888;6.9647;2.6624;-0.4286;-0.3858;-0.0761;0.2102
0004672896;7.0413;2.8922;-0.3112;-0.3224;-0.1094;0.3111
0004672904;6.9192;3.0670;-0.2442;-0.2289;-0.1395;0.3865
0004672912;6.7445;3.1412;-0.2298;-0.1192;-0.1533;0.4409
0004672920;6.0334;2.9353;-0.1413;0.0036;-0.1663;0.4675
0004672928;5.5881;2.8587;-0.1413;0.1039;-0.1423;0.4723
0004672936;5.1643;2.5139;-0.0503;0.1872;-0.1114;0.4571
0004672944;4.7788;2.2649;0.0886;0.2317;-0.0703;0.4269
0004672952;4.5562;2.1165;0.1197;0.2677;-0.0382;0.3841
0004672960;4.0677;1.7621;0.1365;0.2856;0.0093;0.3605
0004672968;4.1396;1.4916;0.2011;0.3126;0.0594;0.3393
0004672976;4.1659;1.2306;0.1963;0.3311;0.1136;0.3451
0004672984;4.3598;1.0415;0.3639;0.3435;0.1649;0.3601
0004672992;4.6902;0.6297;0.4741;0.3516;0.2025;0.3821
0004673000;5.2313;0.5794;0.6560;0.3351;0.2246;0.4150
0004673008;5.3965;0.4621;0.8045;0.2719;0.2405;0.4545
0004673016;5.6910;0.5555;0.8691;0.1928;0.2041;0.4806
0004673024;6.4284;0.7446;0.8380;0.0961;0.1677;0.4911
0004673032;6.7900;0.9840;0.5914;0.0161;0.1510;0.4803
0004673040;7.0198;0.9840;0.5387;-0.0358;0.1514;0.4491
0004673048;7.1946;1.0654;0.4118;-0.0444;0.1512;0.4158
0004673056;7.0437;1.2785;0.0168;-0.0306;0.1693;0.3780
0004673064;6.7205;1.3168;0.2705;0.0077;0.1783;0.3429
0004673072;6.0549;1.0989;0.2610;0.0376;0.1824;0.3184
0004673080;5.6288;1.0247;0.2634;0.0845;0.1752;0.3010
0004673088;5.4253;1.0080;0.2418;0.1300;0.1923;0.2888
0004673096;5.3295;0.7542;0.2490;0.1669;0.1932;0.2828
0004673104;5.2409;0.6440;0.2897;0.2110;0.1908;0.2882
0004673112;5.2361;0.4238;0.5171;0.2317;0.1957;0.2928
0004673120;5.4708;0.1844;0.6680;0.2561;0.1925;0.2946
0004673128;5.5498;-0.0934;1.0008;0.2701;0.1736;0.3004
0004673136;6.2177;0.1652;1.0487;0.2646;0.1625;0.2964
0004673144;6.2321;-0.0192;1.0918;0.2646;0.1418;0.2866
0004673152;6.6535;-0.1508;1.0487;0.2819;0.1216;0.2678
0004673160;6.7852;-0.5148;0.8715;0.3012;0.1069;0.2434
0004673168;6.7445;-0.8092;0.7877;0.3277;0.0766;0.1994
0004673176;6.7732;-1.1301;0.8308;0.3339;0.0468;0.1518
0004673184;6.5003;-1.6496;0.9122;0.3146;0.0217;0.1164
0004673192;6.3183;-1.9345;0.8452;0.2930;-0.0052;0.0791
0004673200;5.9209;-2.3320;1.0965;0.2737;-0.0261;0.0458
0004673208;6.0837;-2.6001;1.3982;0.2353;-0.0293;0.0330
0004673216;6.2824;-2.7749;1.4317;0.2017;-0.0413;0.0337
0004673224;6.2417;-2.9425;0.8260;0.2266;-0.0953;0.0492
0004673232;5.3558;-3.1125;-0.2107;0.2719;-0.1739;-0.0241
0004673240;5.2672;-2.7246;-0.6752;0.1732;-0.2930;-0.1595
0004673248;6.4572;-1.8028;-1.6328;-0.0898;-0.5662;-0.3068
0004673256;7.8003;-0.5531;-2.6791;-0.4422;-0.9200;-0.3877
0004673264;9.9264;1.1277;-2.2290;-0.8637;-1.1688;-0.3507
0004673272;11.6574;3.2274;-1.5969;-1.4500;-1.3388;-0.2646
0004673280;13.7691;5.9017;-0.1915;-2.1903;-1.2913;-0.2118
0004673288;14.6597;8.2911;1.3647;-2.9106;-1.0457;-0.2046
0004673296;13.0364;11.2767;2.4708;-3.4992;-0.8599;-0.3704
0004673304;9.8114;13.1083;3.2202;-3.8280;-0.7977;-0.6679
0004673312;6.9097;13.4794;3.7206;-3.6780;-0.6675;-0.8809
0004673320;4.6543;13.4291;4.6376;-2.9252;-0.5055;-0.8656
0004673328;2.3559;12.9790;6.1196;-1.8158;-0.3207;-0.6908
0004673336;0.3783;13.1992;6.1914;-0.7369;-0.2749;-0.5171
0004673344;0.2346;13.4123;4.3479;0.0036;-0.3687;-0.4695
0004673352;3.6751;13.3333;2.0135;0.3264;-0.3989;-0.6279
0004673360;7.2185;12.7491;1.3096;0.2839;-0.4269;-0.8374
0004673368;10.3693;11.8489;2.0734;0.1135;-0.4646;-1.0224
0004673376;12.3014;10.8362;2.9281;0.0111;-0.5291;-1.0984
0004673442;1.4293;5.5857;2.4780;-0.1828;0.0815;0.2153
0004673450;1.5179;4.9488;1.8771;0.0032;0.1688;0.2069
0004673458;2.5450;4.5394;1.6113;0.1865;0.2200;0.1713
0004673466;3.7086;4.0175;1.4030;0.3289;0.2314;0.1152
0004673474;5.0613;3.4884;1.6065;0.4351;0.2158;0.0340
0004673482;6.1148;2.9233;1.6017;0.5003;0.1749;-0.0541
0004673490;7.1347;2.6336;1.5083;0.5235;0.1095;-0.1286
0004673498;7.8266;2.3727;1.2833;0.5172;0.0476;-0.1839
0004673506;8.4300;2.3607;1.0056;0.4858;-0.0293;-0.2248
0004673514;8.1906;2.1787;0.8763;0.4198;-0.0933;-0.2336
0004673522;7.9272;2.4181;0.9577;0.3118;-0.1511;-0.2200
0004673530;7.4053;2.3535;0.9266;0.1833;-0.1896;-0.1978
0004673538;6.7588;2.6169;0.9744;0.0410;-0.2088;-0.1599
0004673546;6.0717;2.9161;0.9170;-0.0681;-0.2209;-0.1384
0004673554;5.6886;3.3471;0.6177;-0.1095;-0.1952;-0.1046
0004673562;5.6048;3.6248;0.5004;-0.1003;-0.1664;-0.0858
0004673570;5.5737;3.7804;0.3256;0.0004;-0.1356;-0.0746
0004673578;5.6431;3.4668;0.1437;0.1474;-0.0965;-0.0446
0004673586;5.6982;3.1316;0.4070;0.2998;-0.0675;-0.0137
0004673594;5.9544;2.6001;0.4621;0.4271;-0.0630;-0.0061
0004673602;6.0286;2.0973;0.8787;0.5003;-0.0644;0.0031
0004673610;5.9831;1.5179;1.1325;0.5172;-0.0492;-0.0023
0004673618;5.7676;0.8499;1.1516;0.5087;-0.0361;-0.0230
0004673626;5.7341;0.4884;0.8787;0.4872;-0.0065;-0.0502
0004673634;5.6503;0.2251;0.7542;0.4458;0.0156;-0.0786
0004673642;5.9640;0.2514;0.7159;0.3792;0.0508;-0.1035
0004673650;5.9855;0.0646;0.7254;0.3067;0.0687;-0.1294
0004673658;6.1148;0.1844;0.7159;0.2509;0.0782;-0.1628
0004673666;6.4332;0.2274;0.6488;0.1819;0.0754;-0.1990
0004673674;6.6655;0.4860;0.6847;0.1223;0.0750;-0.2345
0004673682;6.7900;0.6728;0.7566;0.0476;0.0675;-0.2587
0004673690;6.9647;0.8475;0.8763;-0.0252;0.0486;-0.2789
0004673698;7.1491;0.8954;1.1516;-0.0719;0.0161;-0.2956
0004673706;7.2975;1.1372;1.3384;-0.1047;-0.0128;-0.2884
0004673714;7.3646;0.9720;1.5395;-0.1127;-0.0468;-0.2825
0004673722;7.6231;0.9050;1.7047;-0.0993;-0.0909;-0.2771
0004673730;7.8745;0.7542;1.6903;-0.0817;-0.1270;-0.2527
0004673738;8.2744;0.6512;1.6424;-0.0488;-0.1664;-0.2270
0004673746;8.5617;0.2897;1.7286;-0.0121;-0.2090;-0.1867
0004673754;8.9926;0.3184;1.6281;0.0004;-0.2442;-0.1331
0004673762;8.9280;0.0335;1.4078;0.0213;-0.2822;-0.0733
0004673770;9.0214;-0.0287;1.3408;0.0236;-0.2882;-0.0145
0004673778;8.5353;-0.2083;1.1971;0.0454;-0.3116;0.0294
0004673786;8.2001;-0.3855;1.2234;0.0805;-0.3191;0.0512
0004673794;7.6782;-0.4693;1.2641;0.1127;-0.2920;0.0650
0004673802;7.1228;-0.7254;1.3958;0.1482;-0.2650;0.0470
0004673810;6.7540;-0.8092;1.5012;0.1728;-0.2316;0.0212
0004673818;6.5960;-0.9290;1.5658;0.1915;-0.1872;-0.0233
0004673826;6.0549;-1.2450;1.6688;0.2053;-0.1246;-0.0594
0004673834;5.9209;-1.4437;1.4174;0.1783;-0.0826;-0.0762
0004673842;5.9592;-1.7549;1.3767;0.1727;-0.0488;-0.0786
0004673850;5.7030;-2.0542;1.1540;0.1375;-0.0288;-0.0541
0004673858;5.6623;-2.1356;1.2402;0.0953;0.0071;-0.0356
0004673866;5.7485;-2.1500;1.0295;0.0322;0.0501;-0.0093
0004673874;5.7054;-2.0662;1.0391;-0.0558;0.1023;-0.0085
0004673882;6.0549;-1.6472;0.8763;-0.1736;0.1876;-0.0125
0004673890;5.6767;-1.3551;0.6297;-0.3119;0.2682;-0.0373
0004673898;5.0925;-0.9337;0.3519;-0.4501;0.3695;-0.0749
0004673906;4.8914;-0.3974;-0.1556;-0.5593;0.4955;-0.0914
0004673914;4.3766;0.1652;-0.3472;-0.6270;0.6161;-0.1242
0004673922;4.2377;0.8475;-0.3591;-0.6097;0.7133;-0.1703
0004673930;4.1587;1.2115;-0.3065;-0.5092;0.7622;-0.2302
0004673938;4.4484;1.3455;0.4669;-0.3179;0.7813;-0.2675
0004673946;4.9512;1.1588;1.3838;-0.0398;0.7500;-0.3062
0004673954;5.4253;0.7063;2.4086;0.2573;0.6865;-0.3881
0004673962;6.0717;0.1987;2.9090;0.4920;0.6572;-0.4241
0004673970;6.7445;-0.0790;2.8539;0.5629;0.6135;-0.3585
0004673978;6.7349;-0.3448;2.0375;0.3893;0.5973;-0.1262
0004673986;6.6008;-0.2322;0.8978;0.0518;0.6314;0.2206
0004673994;5.5210;0.6943;-0.2274;-0.5076;0.6391;0.7093
0004674002;4.3646;1.9680;-1.1923;-1.2261;0.7033;1.2189
0004674010;3.0335;3.9145;-1.8507;-1.9806;0.7929;1.6748
0004674018;1.6927;5.8778;-1.6735;-2.5508;0.8026;1.9939
0004674085;3.9097;16.0364;5.4372;0.4383;0.6065;-0.3191
0004674093;2.7892;14.1258;4.1731;0.8467;0.5750;-0.1496
0004674101;2.1165;12.5360;3.3567;0.9798;0.5983;0.1184
0004674109;2.0590;11.5664;2.6647;0.9547;0.6900;0.3521
0004674117;2.2003;10.6255;2.6576;0.9575;0.8383;0.4515
0004674125;2.2529;10.1323;2.6743;1.0460;0.9888;0.3901
0004674133;2.7461;9.7492;2.8323;1.2249;1.1373;0.2297
0004674141;2.8132;9.6007;2.5139;1.3709;1.2401;0.0484
0004674149;2.6384;8.5928;2.3320;1.4822;1.3279;-0.1584
0004674157;2.3894;7.2161;1.9968;1.5302;1.3809;-0.3496
0004674165;2.2721;5.5426;1.6065;1.5350;1.4440;-0.4923
0004674173;2.4349;4.1922;1.0032;1.5475;1.5014;-0.5910
0004674181;2.6624;2.9090;0.8667;1.5569;1.5533;-0.6543
0004674189;3.1987;1.8938;0.9194;1.5268;1.5910;-0.6832
0004674197;3.7493;0.9194;1.2689;1.4396;1.6078;-0.6793
0004674205;4.4173;0.0431;1.7047;1.2800;1.6190;-0.6663
0004674213;5.3654;-0.2083;1.8771;1.0365;1.6049;-0.6415
0004674221;5.9233;-0.6225;2.1500;0.7390;1.5756;-0.5909
0004674229;6.7756;-0.7542;2.1931;0.4407;1.5078;-0.5423
0004674237;8.1307;-0.5626;2.0063;0.2272;1.4388;-0.4799
0004674245;8.7364;-0.5267;1.7406;0.1298;1.3963;-0.4225
0004674253;8.8681;-0.3041;1.3288;0.1351;1.3776;-0.3687
0004674261;8.5138;-0.0359;0.7302;0.2158;1.3197;-0.3252
0004674269;7.6399;0.2682;0.7374;0.3364;1.2391;-0.2770
0004674277;6.5841;0.2370;0.9720;0.4309;1.1687;-0.2185
0004674285;5.7461;0.0814;1.1205;0.4952;1.1012;-0.1375
0004674293;5.1739;-0.3065;1.4533;0.5179;1.0473;-0.0693
0004674301;5.2313;-0.1532;1.4581;0.4771;0.9916;0.0195
0004674309;5.2601;-0.1796;1.5538;0.3926;0.9441;0.1102
0004674317;5.5545;-0.1820;1.5921;0.2705;0.8701;0.1840
0004674325;5.9328;0.2658;1.5203;0.1328;0.8002;0.2486
0004674333;6.2537;0.5315;1.9321;0.0213;0.7213;0.3062
0004674341;6.8163;1.1756;1.5347;-0.0662;0.6283;0.3349
0004674349;7.3717;1.8124;1.3312;-0.1171;0.5293;0.3275
0004674357;7.4508;2.2218;1.2905;-0.1475;0.4461;0.3002
0004674365;7.3622;2.9592;1.2689;-0.1482;0.3523;0.2571
0004674373;6.9504;3.2130;1.3982;-0.1308;0.2670;0.2041
0004674381;6.6272;3.7852;1.6209;-0.1003;0.1905;0.1580
0004674389;5.8754;4.0606;1.8196;-0.0753;0.1175;0.1248
0004674397;5.3008;4.2641;1.8459;-0.0410;0.0690;0.1095
0004674405;4.3886;4.2449;1.7286;0.0083;0.0309;0.1090
0004674413;3.9648;4.1539;1.3312;0.0729;-0.0019;0.1262
0004674421;3.6176;3.9720;1.0870;0.1380;-0.0127;0.1478
0004674429;3.5602;3.7900;0.9146;0.1911;-0.0366;0.1589
0004674437;3.6583;3.4979;0.8691;0.2181;-0.0449;0.1659
0004674445;3.9385;3.0957;0.6584;0.2266;-0.0666;0.1452
0004674453;4.4532;2.6647;0.5962;0.2029;-0.0826;0.1018
0004674461;4.9273;2.5067;0.5818;0.1668;-0.0953;0.0429
0004674469;5.1332;2.3487;0.5578;0.1090;-0.1027;-0.0280
0004674477;5.3367;2.3535;0.5866;0.0448;-0.1132;-0.0938
0004674485;5.2457;2.2865;0.6201;-0.0045;-0.1332;-0.1680
0004674493;5.1715;2.2505;0.7925;-0.0437;-0.1609;-0.2118
0004674501;5.2050;2.3008;0.9792;-0.0911;-0.1863;-0.2317
0004674509;5.2960;2.6384;0.9936;-0.1339;-0.2196;-0.2312
0004674517;5.3798;2.5379;0.8380;-0.1681;-0.2406;-0.2086
0004674525;5.4300;2.6193;0.8859;-0.1962;-0.2539;-0.1717
0004674533;5.4157;2.7007;1.2713;-0.2026;-0.2856;-0.1444
0004674541;5.3534;2.5833;1.4174;-0.1895;-0.3054;-0.1246
0004674549;5.1547;2.4277;1.2402;-0.1516;-0.3131;-0.1077
0004674557;4.8985;2.2793;0.9290;-0.1143;-0.3112;-0.1086
0004674565;4.7118;2.0159;0.3639;-0.0558;-0.3060;-0.1296
0004674573;4.2234;1.6664;1.0463;0.0153;-0.2927;-0.1669
0004674581;3.4692;1.6161;0.0215;0.1184;-0.2987;-0.2038
0004674589;2.9999;1.1971;0.7997;0.2068;-0.3163;-0.2136
0004674597;2.8659;0.7566;1.1756;0.2908;-0.2946;-0.2182
0004674605;2.9928;0.2753;1.2857;0.3671;-0.2619;-0.2218
0004674613;3.4165;-0.1173;1.3647;0.4309;-0.2058;-0.2232
0004674621;3.4500;-0.6345;1.2450;0.4835;-0.1494;-0.2182
0004674629;3.7709;-1.1492;1.3791;0.5223;-0.1067;-0.2086
0004674637;4.2497;-1.4246;1.3551;0.5291;-0.0600;-0.1689
0004674645;4.4029;-1.9249;1.7310;0.5223;-0.0683;-0.1262
0004674653;5.0422;-2.2505;2.1093;0.5004;-0.1025;-0.0557
0004674661;5.5881;-2.6145;2.3391;0.4619;-0.1158;0.0366
0004674727;7.9607;-1.7861;-0.1030;-0.4854;-0.3980;0.8589
0004674735;7.2832;-0.8930;-1.1660;-0.6753;-0.3938;0.8811
0004674743;6.0047;-0.2346;-1.9225;-0.8258;-0.3798;0.8709
0004674751;5.1523;0.6680;-1.9728;-0.9110;-0.3619;0.8396
0004674759;4.3622;1.2282;-1.4629;-0.8988;-0.3395;0.7877
0004674767;3.9792;1.7789;-0.9960;-0.7907;-0.3299;0.7210
0004674775;3.8690;2.2960;-0.1197;-0.6310;-0.3140;0.6856
0004674783;4.0965;2.9257;0.2298;-0.4215;-0.3020;0.6728
0004674791;4.3407;2.9544;0.4094;-0.1873;-0.2910;0.6635
0004674799;4.9057;3.0119;0.1197;0.0826;-0.2996;0.6330
0004674807;5.7389;2.7509;0.2083;0.3383;-0.2994;0.6094
0004674815;5.9927;2.3535;0.0407;0.5481;-0.3016;0.5592
0004674823;6.4236;1.6544;0.1820;0.7609;-0.3284;0.4715
0004674831;6.4739;0.7494;0.3112;0.9028;-0.3368;0.3738
0004674839;6.4332;-0.0862;0.6895;0.9931;-0.3653;0.2701
0004674847;6.3303;-0.8691;0.9433;1.0307;-0.3868;0.1741
0004674855;5.7940;-1.8603;0.8571;1.0445;-0.4189;0.0837
0004674863;5.6407;-2.7246;1.0247;1.0245;-0.4257;0.0132
0004674871;5.5091;-3.4093;1.0654;1.0114;-0.4146;-0.0330
0004674879;4.5298;-4.0055;0.4214;0.9999;-0.4588;-0.1071
0004674887;3.6057;-4.5945;-0.2346;0.9507;-0.5465;-0.2418
0004674895;3.5650;-4.7477;-0.8787;0.8064;-0.6889;-0.4046
0004674903;4.6064;-4.2952;-1.1444;0.4787;-0.7230;-0.5858
0004674911;5.6790;-3.2465;-1.2330;-0.0601;-0.7306;-0.7573
0004674919;6.8761;-1.5227;-0.7542;-0.8705;-0.7785;-0.8390
0004674927;8.0278;0.5243;0.0527;-1.8815;-0.9237;-0.7372
0004674935;8.5305;3.4979;-0.0168;-2.9536;-1.1347;-0.5359
0004674943;8.4922;6.7229;0.1580;-3.9695;-1.3427;-0.2154
0004674951;9.6367;11.5472;0.1772;-4.3657;-1.4136;0.1446
0004674959;11.4467;15.4857;1.4820;-4.3657;-1.3596;0.4032
0004674967;12.5696;17.3915;3.9768;-4.3657;-1.1526;0.6278
0004674975;11.7196;16.7953;7.5920;-4.3657;-0.8136;0.7344
0004674983;9.6367;16.0052;10.7978;-2.9727;-0.6054;0.6576
0004674991;6.7612;16.2327;10.6901;-1.5074;-0.5240;0.4434
0004674999;4.4819;16.6732;7.2784;-0.5898;-0.5171;0.2493
0004675007;3.6966;15.4833;4.6926;-0.1541;-0.5308;0.1142
0004675015;3.3255;13.4315;4.6208;0.0743;-0.5199;0.0386
0004675023;2.8898;11.1115;5.3678;0.2783;-0.4943;0.0369
0004675031;2.8036;9.3925;5.3510;0.4955;-0.4227;0.0878
0004675039;3.0119;8.0134;4.6519;0.7176;-0.3036;0.1079
0004675047;3.0694;6.7540;3.7637;0.9048;-0.1708;0.0825
0004675055;3.3878;6.0262;2.9185;0.9864;-0.0396;0.0336
0004675063;4.2306;5.1691;2.3631;0.9557;0.0957;-0.0203
0004675071;5.0542;4.5394;2.1093;0.8330;0.1817;-0.0533
0004675079;6.1124;4.0582;2.1093;0.6472;0.2222;-0.0618
0004675087;6.9432;4.0965;1.9848;0.4024;0.2160;-0.0429
0004675095;7.4795;4.1108;1.6592;0.1753;0.2132;-0.0152
0004675103;8.0804;4.5059;1.4389;0.0597;0.1920;0.0141
0004675111;8.0469;4.4891;1.6065;0.0702;0.1672;0.0308
0004675119;8.0804;4.4412;1.7741;0.1752;0.1384;0.0242
0004675127;7.8721;4.3718;1.7909;0.3315;0.1160;-0.0117
0004675135;7.3287;3.7326;1.7597;0.5155;0.1005;-0.0755
0004675143;7.2640;3.2681;1.6041;0.7016;0.0955;-0.1495
0004675151;6.8666;2.3128;1.6305;0.8657;0.1123;-0.2090
0004675159;6.8570;1.5395;1.8387;1.0059;0.1256;-0.2594
0004675167;6.9791;0.6632;2.0614;1.1126;0.1516;-0.2896
0004675175;7.2425;-0.1101;2.3559;1.1562;0.1809;-0.3016
0004675183;7.3191;-0.9122;2.5642;1.1475;0.1773;-0.3167
0004675191;7.4651;-1.5323;2.7390;1.0864;0.1625;-0.3272
0004675199;7.5082;-2.1811;2.7438;1.0036;0.1164;-0.3409
0004675207;7.8290;-2.6959;2.7150;0.8966;0.0454;-0.3408
0004675215;8.1666;-2.9137;2.6456;0.7923;-0.0249;-0.3459
0004675223;8.3845;-3.2346;2.3727;0.6773;-0.1063;-0.3291
0004675231;8.7053;-3.3686;2.0566;0.5405;-0.1812;-0.2875
0004675239;8.8609;-3.3974;1.8579;0.3914;-0.2490;-0.2457
0004675247;9.0261;-3.3112;1.4676;0.2434;-0.3035;-0.2004
0004675255;9.2320;-3.1244;1.2234;0.1126;-0.3507;-0.1681
0004675263;9.1674;-3.0382;0.8954;-0.0151;-0.3853;-0.1304
0004675271;9.3518;-2.6695;0.7638;-0.1207;-0.4278;-0.1061
0004675279;9.0764;-2.4732;0.6416;-0.2042;-0.4350;-0.0795
0004675287;8.7963;-2.1955;0.7781;-0.2322;-0.4354;-0.0757
0004675295;8.2049;-1.8076;0.9218;-0.2122;-0.4305;-0.0561
0004675303;7.5441;-1.6472;1.3527;-0.1510;-0.3788;-0.0472
0004675369;4.0414;-2.2936;-0.7590;0.8519;-0.2300;-0.4282
0004675377;5.1356;-2.9281;-1.2857;1.0539;-0.1861;-0.4461
0004675385;6.5793;-3.2801;-2.2266;1.2513;-0.0328;-0.3894
0004675393;6.5577;-3.0694;-3.7397;1.3583;0.2518;-0.2398
0004675401;5.6719;-2.1356;-4.1970;1.2344;0.4293;0.0348
0004675409;4.0606;-1.0463;-3.8092;0.7548;0.5698;0.3856
0004675417;1.9393;0.1197;-3.4692;-0.0144;0.7734;0.6829
0004675425;0.3567;1.7717;-2.9449;-0.8973;0.8933;0.8346
0004675433;-0.1341;4.6328;-2.2505;-1.8118;0.8139;0.9902
0004675441;3.0311;9.1602;-1.7980;-2.7415;0.6712;1.3214
0004675449;6.7325;13.8912;-1.2282;-3.6176;0.7955;1.8884
0004675457;8.0517;18.3516;1.1660;-4.3657;0.7031;2.3281
0004675465;9.2225;19.6133;4.2018;-4.3657;0.5841;2.1011
0004675473;11.1761;18.8543;7.7596;-3.5706;0.4607;1.3047
0004675481;12.0740;19.3547;10.6350;-1.8826;0.2797;0.4391
0004675489;10.8098;21.0666;10.7619;-0.3473;0.0638;-0.1182
0004675497;7.3861;21.4951;7.2089;0.4146;-0.1083;-0.3064
0004675505;4.9512;18.6772;4.3167;0.7999;-0.3063;-0.3672
0004675513;3.8666;16.1321;3.6009;0.8604;-0.4041;-0.3016
0004675521;3.8235;13.9678;3.4309;0.7714;-0.3990;-0.2268
0004675529;3.7230;11.8633;2.8970;0.7205;-0.3260;-0.1984
0004675537;3.6919;10.6207;2.7461;0.7076;-0.2017;-0.2156
0004675545;3.6105;9.3446;2.7509;0.6760;-0.0691;-0.2494
0004675553;3.6990;8.5712;2.6671;0.6475;0.0187;-0.3211
0004675561;4.0079;7.5729;2.5115;0.6531;0.0829;-0.4074
0004675569;4.1563;6.5793;2.2242;0.6650;0.1127;-0.4971
0004675577;4.3838;6.0956;1.6903;0.7184;0.1753;-0.5875
0004675585;4.3072;5.3678;1.4533;0.7911;0.2054;-0.6716
0004675593;4.2904;4.6112;1.5897;0.8604;0.2300;-0.7278
0004675601;4.2018;3.6057;2.0039;0.9180;0.2566;-0.7619
0004675609;4.5250;2.8754;2.4804;0.9884;0.2762;-0.7814
0004675617;4.8411;2.0806;2.6504;1.0557;0.3114;-0.7614
0004675625;4.6639;1.3072;2.6600;1.1141;0.3585;-0.7190
0004675633;4.7429;0.8523;2.8084;1.1618;0.4130;-0.6378
0004675641;4.9440;0.2035;2.7629;1.1740;0.4574;-0.5528
0004675649;5.4324;-0.5411;2.7318;1.1856;0.4787;-0.4462
0004675657;5.9041;-1.2426;2.6480;1.2329;0.4907;-0.3441
0004675665;6.2249;-1.9609;2.3750;1.3105;0.4907;-0.2463
0004675673;6.5721;-2.5594;2.1284;1.3868;0.4956;-0.1471
0004675681;7.1132;-2.9473;1.6975;1.4722;0.4992;-0.0589
0004675689;7.0892;-3.5745;1.1588;1.5419;0.4775;0.0159
0004675697;7.2520;-3.6943;0.7901;1.5864;0.4407;0.0830
0004675705;7.2185;-3.9528;0.3735;1.5781;0.3873;0.1402
0004675713;7.0174;-4.2545;0.2298;1.5473;0.3120;0.1897
0004675721;7.3023;-4.2377;0.0048;1.4526;0.2378;0.2313
0004675729;7.3717;-4.0007;-0.0431;1.2991;0.1516;0.2734
0004675737;7.6351;-3.9073;-0.3711;1.0722;0.0874;0.3256
0004675745;7.8410;-3.7038;-0.3831;0.7962;0.0497;0.3866
0004675753;7.8506;-3.6152;-0.7398;0.5064;0.0013;0.4442
0004675761;7.8075;-3.2394;-1.0080;0.1703;-0.0131;0.5293
0004675769;7.0509;-3.1101;-1.3168;-0.1359;-0.0592;0.5901
0004675777;6.3518;-2.4588;-1.3240;-0.4066;-0.1086;0.6111
0004675785;5.8155;-1.8842;-1.0127;-0.5979;-0.1581;0.6038
0004675793;5.5761;-1.1612;-1.0630;-0.6928;-0.1731;0.5836
0004675801;5.3702;-0.6608;-0.8045;-0.6988;-0.1793;0.5557
0004675809;5.3702;-0.1939;-0.6345;-0.6303;-0.1641;0.5112
0004675817;5.4372;0.1006;-0.1915;-0.5093;-0.1340;0.4727
0004675825;5.3127;0.1652;-0.0072;-0.3607;-0.1175;0.4349
0004675833;5.3486;0.0551;0.4645;-0.1986;-0.0897;0.4052
0004675841;5.3774;-0.1556;0.8715;-0.0546;-0.0711;0.3706
0004675849;5.2505;-0.3807;1.0056;0.0454;-0.0715;0.3519
0004675857;5.2313;-0.8380;1.0750;0.1019;-0.0831;0.3343
0004675865;5.4277;-1.0223;1.0343;0.1085;-0.1051;0.3429
0004675873;5.5737;-1.1684;0.9553;0.0529;-0.1673;0.3512
0004675881;5.5809;-1.3024;1.0367;-0.0703;-0.2113;0.3852
0004675889;5.4899;-1.5179;0.8811;-0.2182;-0.2599;0.4113
0004675897;5.6982;-1.3360;0.8380;-0.3697;-0.3115;0.4214
0004675905;5.5234;-1.4748;0.7278;-0.4888;-0.3437;0.4132
0004675913;5.3367;-1.5897;0.7733;-0.5897;-0.3633;0.3710
0004675921;5.1930;-1.6113;0.9098;-0.6536;-0.3696;0.3080
0004675929;5.0925;-1.1899;1.1253;-0.7149;-0.3698;0.2381
0004675937;4.9488;-1.2617;1.3192;-0.7538;-0.3781;0.1655
0004676021;12.3972;3.0598;-0.3328;-1.7132;-2.1293;-0.3236
0004676029;13.9678;5.6024;-0.0886;-2.3742;-2.1009;-0.3196
0004676037;14.7219;8.7293;1.1803;-3.2066;-1.8822;-0.4182
0004676045;14.0779;12.1386;2.5379;-4.0778;-1.6739;-0.5645
0004676053;12.5791;14.7579;4.1899;-4.3657;-1.5519;-0.6466
0004676061;9.6007;16.1417;5.5881;-4.3657;-1.3464;-0.6126
0004676069;6.6104;16.7379;8.0158;-4.1362;-1.0115;-0.5000
0004676077;3.6775;17.7195;10.7835;-3.0870;-0.6975;-0.4411
0004676085;1.5467;19.0076;11.6622;-2.0292;-0.4770;-0.4659
0004676093;0.3783;20.1855;10.3693;-1.1337;-0.3199;-0.5161
0004676101;1.1803;19.1081;8.4683;-0.2983;-0.2193;-0.4578
0004676109;2.8778;16.5559;7.0557;0.4706;-0.1131;-0.4093
0004676117;4.4436;14.1713;6.4308;0.9344;-0.0344;-0.3736
0004676125;5.5641;11.7100;5.9233;1.1580;0.0096;-0.3355
0004676133;6.5050;9.9527;5.1739;1.1870;0.0316;-0.3183
0004676141;7.2951;8.7532;4.4963;1.0962;0.0294;-0.3369
0004676149;8.0876;8.1810;3.5602;0.9434;-0.0129;-0.3861
0004676157;8.5401;7.7237;2.9880;0.7446;-0.0562;-0.4202
0004676165;9.1219;7.7692;2.8850;0.5509;-0.1073;-0.4450
0004676173;9.3158;7.7093;3.1364;0.4068;-0.1491;-0.4514
0004676181;9.4523;7.7835;3.2848;0.3123;-0.1795;-0.4226
0004676189;8.9591;7.5705;3.2370;0.3051;-0.2002;-0.3789
0004676197;8.1211;7.4771;2.9736;0.3693;-0.2285;-0.3317
0004676205;7.5465;7.3191;2.6217;0.4804;-0.2465;-0.2834
0004676213;6.8977;6.7852;2.3463;0.6250;-0.2787;-0.2543
0004676221;6.6152;6.1842;2.0997;0.7770;-0.3048;-0.2328
0004676229;6.1196;5.2744;1.8340;0.9249;-0.3268;-0.2145
0004676237;6.0430;4.5011;1.4222;1.0672;-0.3340;-0.2018
0004676245;6.0094;3.8068;1.0942;1.2169;-0.3413;-0.1780
0004676253;6.1818;2.8156;1.0774;1.3592;-0.3292;-0.1390
0004676261;6.1435;1.8411;0.8691;1.4638;-0.3068;-0.0965
0004676269;6.3590;1.0056;0.6584;1.5455;-0.2959;-0.0636
0004676277;6.1339;0.2203;0.4956;1.5793;-0.2960;-0.0384
0004676285;6.0765;-0.3400;0.2682;1.5489;-0.3142;-0.0220
0004676293;6.1723;-0.7302;0.1844;1.4501;-0.3284;-0.0073
0004676301;6.2417;-1.1181;0.2035;1.3161;-0.3407;-0.0052
0004676309;6.3782;-1.5443;0.1867;1.1562;-0.3496;-0.0133
0004676317;6.2273;-1.9082;0.2370;0.9954;-0.3453;-0.0273
0004676325;6.2177;-2.1931;0.1939;0.8470;-0.3291;-0.0496
0004676333;6.2680;-2.2697;0.2107;0.7145;-0.3082;-0.0811
0004676341;6.2680;-2.1380;0.0742;0.6015;-0.2922;-0.1186
0004676349;6.4141;-2.0782;0.1101;0.5007;-0.2767;-0.1459
0004676357;6.3782;-2.1021;0.2801;0.4209;-0.2431;-0.1470
0004676365;6.4715;-1.8483;0.5339;0.3680;-0.2121;-0.1423
0004676373;6.4404;-1.7909;0.7302;0.3391;-0.1892;-0.1276
0004676381;6.4859;-1.7597;0.6823;0.3210;-0.1743;-0.1176
0004676389;6.8666;-1.6520;0.6105;0.3015;-0.1483;-0.1038
0004676397;6.7971;-1.7621;0.5483;0.2935;-0.1312;-0.1035
0004676405;7.0318;-1.5347;0.4621;0.3006;-0.1223;-0.1120
0004676413;6.9264;-1.5945;0.4525;0.3066;-0.1155;-0.1272
0004676421;7.2305;-1.6640;0.6656;0.3178;-0.0933;-0.1280
0004676429;7.1371;-1.9489;0.9673;0.3397;-0.0719;-0.1408
0004676437;7.2329;-1.9944;1.2522;0.3636;-0.0602;-0.1736
0004676445;7.1323;-2.0997;1.5060;0.3561;-0.0470;-0.1945
0004676453;6.8283;-2.2889;1.4581;0.3317;-0.0502;-0.2204
0004676461;6.9647;-2.2913;1.4629;0.2966;-0.0695;-0.2392
0004676469;6.6032;-2.4349;1.3192;0.2494;-0.0866;-0.2538
0004676477;6.5793;-2.5666;1.2019;0.2046;-0.0921;-0.2585
0004676485;6.4572;-2.5283;0.9768;0.1679;-0.1098;-0.2746
0004676493;6.7253;-2.4541;1.0415;0.1467;-0.1174;-0.3063
0004676501;6.6152;-2.6600;0.8691;0.1383;-0.0883;-0.3375
0004676509;6.8043;-2.5977;0.9601;0.1454;-0.0464;-0.3760
0004676517;6.5386;-2.6983;0.9625;0.1541;0.0065;-0.4162
0004676525;6.1890;-2.7366;0.9026;0.1450;0.1124;-0.4309
0004676535;5.8706;-2.5474;0.8332;0.0703;0.2475;-0.4202
0004676543;5.2433;-2.6863;0.9792;-0.0354;0.3527;-0.4033
0004676552;4.7525;-2.3966;0.9266;-0.2208;0.4394;-0.3424
0004676561;4.2449;-1.9393;0.6895;-0.4285;0.5091;-0.2554
0004676570;3.7613;-1.6903;0.5100;-0.6226;0.5768;-0.1697
0004676579;3.7613;-1.0056;0.4956;-0.7838;0.6043;-0.1122
0004676588;3.9887;-0.8140;0.3089;-0.8607;0.5947;-0.0698
0004676597;4.7716;-0.3376;0.1173;-0.8292;0.5979;-0.0630
0004676664;9.4858;-2.0806;-0.7207;0.6019;0.4923;-0.1727
0004676673;8.8322;-1.6017;-2.0638;0.4197;0.6804;0.0569
0004676682;6.7062;-0.6345;-2.9688;-0.0959;0.6985;0.3773
0004676691;5.0494;0.9146;-3.3471;-0.8769;0.6792;0.6005
0004676700;3.5937;3.3567;-2.6743;-1.7902;0.5469;0.7181
0004676709;4.5945;7.5609;-1.3719;-2.8416;0.5285;1.0188
0004676718;5.5474;12.8808;0.2873;-4.0033;0.6991;1.5503
0004676727;4.0103;17.8344;3.3447;-4.3657;0.7718;1.8161
0004676736;2.9257;20.9612;6.9288;-4.3657;0.6516;1.4015
0004676745;4.6088;22.6228;10.4100;-4.0851;0.4627;0.6167
0004676754;5.8778;23.4464;13.6398;-2.0522;0.3397;0.0015
0004676763;4.6974;24.4520;13.2399;-0.3063;0.1176;-0.2154
0004676772;3.7206;21.0259;9.5265;0.5470;-0.1844;-0.3214
0004676781;4.7357;16.9079;7.0701;0.8071;-0.3179;-0.3796
0004676790;6.0047;13.8122;5.7461;0.6602;-0.3248;-0.3740
0004676799;6.3758;11.2288;4.8195;0.4323;-0.2697;-0.4321
0004676808;6.4021;9.5265;4.4532;0.2646;-0.2068;-0.5131
0004676817;6.3470;8.8657;4.1108;0.1146;-0.1772;-0.5454
0004676826;5.9807;8.3917;4.1132;0.0518;-0.2150;-0.5821
0004676835;5.4971;7.7165;3.9504;0.1222;-0.2695;-0.6273
0004676844;5.0063;7.1539;3.8188;0.2955;-0.3252;-0.6583
0004676853;4.4915;6.3949;3.4333;0.5180;-0.3204;-0.6578
0004676862;4.1659;5.5857;3.1460;0.7453;-0.2785;-0.6479
0004676871;3.6272;4.7525;2.7054;0.9277;-0.1769;-0.6027
0004676880;2.9904;3.8834;2.2769;1.0832;-0.0374;-0.5641
0004676889;2.4301;3.1101;1.9609;1.2051;0.1308;-0.5059
0004676898;2.0063;2.0734;1.8411;1.2974;0.3071;-0.4726
0004676907;1.8483;1.5012;1.7406;1.3482;0.4670;-0.4365
0004676916;2.1452;0.5124;1.6017;1.4055;0.6107;-0.4245
0004676925;2.6576;-0.3783;1.4796;1.4254;0.7341;-0.3982
0004676934;3.1627;-1.2354;1.4030;1.4480;0.8154;-0.3745
0004676943;3.9193;-1.9632;1.3408;1.4630;0.8575;-0.3254
0004676952;4.6160;-2.6839;1.2546;1.4918;0.8748;-0.2763
0004676961;5.2960;-3.2250;1.4078;1.5056;0.8744;-0.2170
0004676970;5.9640;-3.9480;1.2689;1.5560;0.8636;-0.1649
0004676979;6.6295;-4.3287;1.1756;1.5768;0.8541;-0.0889
0004676988;6.9073;-4.9129;1.0918;1.5980;0.8315;-0.0337
0004676997;7.3310;-5.1164;0.9577;1.5881;0.7929;0.0305
0004677006;7.4747;-5.4731;0.8068;1.5418;0.7462;0.0846
0004677015;7.5202;-5.5210;0.5914;1.4246;0.7212;0.1450
0004677024;7.6255;-5.6407;0.3831;1.2885;0.6852;0.2041
0004677033;7.5369;-5.5617;0.2394;1.0734;0.6374;0.2769
0004677042;7.4292;-5.4755;0.2825;0.8170;0.5494;0.3496
0004677051;7.5082;-5.0709;0.4764;0.4839;0.4346;0.4487
0004677060;7.5393;-4.6040;0.4214;0.0917;0.3135;0.5866
0004677069;7.7189;-3.9863;0.2825;-0.3376;0.2042;0.7342
0004677078;7.7788;-3.1939;0.4046;-0.7180;0.0897;0.8680
0004677087;7.6710;-2.4660;0.1748;-1.0136;-0.0143;0.9494
0004677096;7.4053;-1.4269;-0.5100;-1.2001;-0.0893;0.9655
0004677105;7.1108;-0.5171;-1.1181;-1.2192;-0.1543;0.9224
0004677114;6.8905;0.9553;-1.6233;-1.0906;-0.1998;0.8050
0004677123;6.0980;1.6616;-1.4820;-0.8789;-0.1556;0.6647
0004677132;5.6599;2.2266;-0.8906;-0.6091;-0.0971;0.5224
0004677141;5.2529;2.3535;-0.2346;-0.2946;-0.0410;0.4145
0004677150;4.7980;2.0327;0.3926;0.0264;0.0083;0.3624
0004677159;4.4077;1.5275;0.5411;0.3075;0.0648;0.3572
0004677168;4.3455;1.1301;0.5938;0.4815;0.1043;0.3926
0004677177;4.1300;0.4501;0.7207;0.5689;0.1616;0.4319
0004677186;4.3072;-0.0120;0.9601;0.6121;0.2242;0.4346
0004677195;4.4269;-0.7254;1.2258;0.6536;0.2871;0.3619
0004677204;4.8866;-1.1708;1.7334;0.7176;0.3540;0.2332
0004677213;5.4277;-1.8555;2.2889;0.7819;0.4295;0.0955
0004677222;5.6862;-2.6360;2.7342;0.8456;0.4638;-0.0452
0004677231;5.5785;-3.2609;2.4684;0.8723;0.4485;-0.1659
0004677240;4.8794;-4.2569;1.3695;0.9070;0.3066;-0.3064
0004677249;4.3335;-4.5322;-0.1891;0.8929;0.0803;-0.4907
0004677258;5.2601;-4.0438;-1.2450;0.8001;-0.1695;-0.7136
0004677267;7.1180;-3.0598;-0.7877;0.5021;-0.2437;-0.8367
0004677276;9.0333;-2.4014;0.2729;0.0108;-0.4780;-0.7593
0004677285;10.6590;-0.9098;1.1588;-0.6971;-0.6611;-0.5429
0004677294;11.3796;1.4437;1.0606;-1.6768;-0.7416;-0.3345
0004677303;9.9407;5.8514;-0.0311;-2.9147;-0.8677;-0.3156
0004677312;8.3390;11.6598;-0.1317;-4.3620;-0.9687;-0.4948
0004677379;4.9009;15.3756;5.4133;1.4562;0.5606;0.1368
0004677388;4.6280;11.8585;4.3958;1.6240;0.6422;0.2466
0004677397;4.1468;8.6143;3.5817;1.5867;0.6887;0.3066
0004677406;4.8866;6.6295;2.7725;1.4027;0.7029;0.3371
0004677415;5.8012;4.9129;2.2505;1.1202;0.7068;0.3901
0004677424;6.7900;4.1683;2.3966;0.7637;0.6932;0.4443
0004677433;7.1874;3.6320;2.7725;0.4044;0.6833;0.4838
0004677442;7.4915;3.8283;2.9640;0.0935;0.6736;0.4995
0004677451;7.4436;4.1539;2.8156;-0.0457;0.7048;0.4680
0004677460;6.9288;4.0845;2.7605;0.0125;0.7514;0.4297
0004677469;6.6415;3.9840;2.6336;0.1817;0.8007;0.3484
0004677478;6.2489;3.3471;2.4900;0.4089;0.8323;0.2578
0004677487;6.3255;2.4660;2.2936;0.6555;0.8174;0.1784
0004677496;6.7014;1.5443;2.5666;0.8933;0.7793;0.1100
0004677505;7.3957;0.6608;2.4397;1.0725;0.7041;0.0429
0004677514;7.9775;-0.3208;2.4086;1.1783;0.6123;-0.0420
0004677523;8.4396;-0.8906;2.4541;1.1981;0.5267;-0.1252
0004677532;8.6622;-1.4868;2.2553;1.1722;0.4582;-0.2226
0004677541;8.7388;-2.1739;2.1835;1.1218;0.4084;-0.3148
0004677550;8.2744;-2.7438;2.1093;1.0399;0.4090;-0.3797
0004677559;7.8793;-3.2417;2.1261;0.9661;0.4130;-0.4258
0004677568;7.2425;-3.5003;2.1572;0.9096;0.4463;-0.4365
0004677577;6.6343;-3.9863;2.2601;0.8595;0.4874;-0.3978
0004677586;6.2153;-4.2497;2.0853;0.8407;0.4918;-0.3617
0004677595;6.1579;-4.4867;1.9010;0.8326;0.5200;-0.3232
0004677604;6.2177;-4.3742;1.5658;0.7922;0.6139;-0.3031
0004677613;6.2632;-4.1827;1.0080;0.6817;0.7986;-0.2956
0004677622;5.4444;-4.0031;0.4573;0.4942;1.0595;-0.3191
0004677631;4.5035;-3.5961;0.1652;0.2381;1.3354;-0.3351
0004677640;4.0654;-2.9377;-0.0072;-0.0534;1.6146;-0.3136
0004677649;3.1723;-2.2122;0.2442;-0.3912;1.8696;-0.2874
0004677658;2.5283;-1.7406;0.7925;-0.7420;2.0288;-0.2773
0004677667;2.0399;-1.4485;1.7478;-1.0456;2.1277;-0.3316
0004677676;2.1476;-1.0654;2.6911;-1.2121;2.1226;-0.4616
0004677685;2.5355;-0.6488;3.6990;-1.2297;2.0432;-0.6138
0004677694;3.5841;-0.6919;3.9265;-1.1141;1.9180;-0.6873
0004677703;4.8267;-0.7901;3.7589;-0.8168;1.8022;-0.6932
0004677712;6.0094;-1.3695;3.6057;-0.3714;1.6689;-0.6920
0004677721;7.3909;-1.9824;3.2394;0.1054;1.4847;-0.6981
0004677730;8.7221;-2.5379;1.8340;0.5064;1.3781;-0.6459
0004677739;10.7284;-1.9776;-0.6321;0.6887;1.3727;-0.3565
0004677748;11.8321;-1.9848;-3.2729;0.6979;1.5856;0.1079
0004677757;9.4116;-0.5650;-4.3958;0.3243;1.7609;0.6428
0004677766;5.5330;0.8356;-4.4293;-0.5633;1.6426;0.8965
0004677775;2.2458;1.9441;-3.8068;-1.6430;1.5355;0.9173
0004677784;1.1564;4.9488;-3.2322;-2.7864;1.2708;0.9423
0004677793;3.3998;9.8306;-3.3902;-4.0059;1.2212;1.1178
0004677802;6.4284;15.4665;-3.0765;-4.3657;1.3300;1.4414
0004677811;9.2129;21.7513;-3.2465;-4.3657;1.4693;1.8775
0004677820;8.4036;29.7312;-1.6783;-4.3657;1.3029;2.4337
0004677829;1.9824;30.0640;5.3032;-3.8333;0.8166;1.9726
0004677838;1.3647;24.4376;14.0133;-1.9177;1.0770;0.3838
0004677847;4.4604;20.7529;13.5871;0.2144;0.8288;-0.7132
0004677856;6.3901;18.1145;7.4675;1.4376;0.8143;-0.8647
0004677865;5.9376;14.4466;3.8523;1.8783;0.7961;-0.7273
0004677874;4.8914;11.7843;2.9233;1.6721;0.9013;-0.4890
0004677883;3.1125;9.0142;1.5730;1.3296;1.0616;-0.3559
0004677892;1.6640;6.8738;2.8826;1.0044;1.3101;-0.2855
0004677901;1.1851;6.2417;3.2753;0.6755;1.4875;-0.1837
0004677910;0.9505;6.3518;3.4357;0.4008;1.6298;0.0312
0004677919;1.5060;6.5864;3.9456;0.3020;1.7435;0.1511
0004677928;2.2338;7.0318;3.5985;0.3447;1.8783;0.1607
0004677937;2.8539;6.8642;3.0263;0.4744;2.0256;0.1053
0004677946;3.8834;6.4189;2.8156;0.6567;2.1569;0.0420
0004677955;4.7405;5.7389;2.7964;0.8609;2.2533;-0.0204
0004677964;5.3175;4.9081;2.5426;1.0263;2.2882;-0.0550
0004677973;5.5306;3.9696;2.3774;1.1927;2.3036;-0.0702
0004677982;5.8490;3.2274;2.1021;1.3406;2.2671;-0.0674
0004677991;5.8395;2.3487;1.6257;1.4749;2.2231;-0.0666
0004678000;5.9735;1.6209;1.5945;1.6001;2.1649;-0.0769
0004678009;5.9352;0.6656;1.4509;1.7040;2.1265;-0.1154
0004678018;6.1986;-0.3424;1.5299;1.7535;2.1000;-0.1611
0004678027;6.5170;-1.2474;1.6855;1.7552;2.0857;-0.2058
0004678036;6.4739;-2.0782;1.7669;1.7399;2.0711;-0.2216
0004678126;6.1699;-5.1116;2.3918;0.2403;1.7151;0.3953
0004678135;5.7174;-4.7309;2.0494;-0.0120;1.7444;0.4114
0004678144;5.0709;-4.1755;1.6281;-0.3361;1.7845;0.4077
0004678153;4.4005;-3.5099;1.1971;-0.7085;1.8053;0.3872
0004678162;4.3718;-1.9489;0.1149;-1.1305;1.7658;0.4006
0004678171;4.8291;-0.2753;-0.6632;-1.5515;1.6661;0.4359
0004678180;5.3965;1.9130;-0.9553;-1.9119;1.5051;0.4447
0004678189;6.5434;4.4436;-0.6177;-2.1448;1.3274;0.4453
0004678198;7.8266;6.2632;0.0934;-2.2090;1.1962;0.4523
0004678207;9.3470;7.9942;1.8507;-2.0939;1.1181;0.4450
0004678216;9.8928;8.5784;3.5123;-1.7112;1.0749;0.3929
0004678225;8.8514;9.2464;1.3886;-1.0396;0.8517;0.2591
0004678234;9.3685;11.7220;-1.5993;-0.5636;0.5450;-0.0862
0004678243;10.0078;15.0212;-2.3487;-0.9622;0.3108;-1.1099
0004678252;11.3365;15.7802;-4.4341;-1.5055;0.1757;-2.0019
0004678261;9.1482;12.8593;-4.4293;-1.3290;0.2681;-2.0482
0004678270;3.9433;10.1275;-0.5914;-0.8034;0.4940;-1.7335
0004678279;-0.3184;9.0860;-0.3783;-0.3524;0.6524;-1.4232
0004678288;-2.5929;6.9528;-0.6704;0.1380;0.8627;-1.1118
0004678297;-4.0151;4.7669;-0.6177;0.7437;1.1992;-0.7401
0004678306;-4.2186;2.4588;-0.2227;1.3194;1.5111;-0.3728
0004678315;-3.5506;0.3232;0.4956;1.7495;1.7519;-0.1514
0004678324;-1.2139;-1.1037;0.6967;1.9337;1.8831;-0.0572
0004678333;2.3655;-1.5275;0.7446;1.8331;2.0078;0.0354
0004678342;4.8578;-1.3120;0.8116;1.3991;2.0133;0.1536
0004678351;6.4620;-1.1085;0.4884;0.7566;1.8854;0.2606
0004678360;8.3007;-0.9697;0.0527;0.0781;1.7239;0.3228
0004678369;10.0604;-0.1987;-0.1460;-0.5477;1.5572;0.3094
0004678378;11.0229;0.9840;-0.6249;-1.0844;1.3977;0.2140
0004678387;11.5831;2.6312;-0.7494;-1.4894;1.3518;0.0894
0004678396;10.5848;3.7230;-0.4525;-1.6718;1.4286;0.0246
0004678405;8.1259;4.3838;-0.1772;-1.5418;1.3574;-0.0132
0004678414;6.6511;5.0925;0.2993;-1.2031;1.2995;-0.0277
0004678423;5.1068;5.1571;0.4788;-0.7493;1.2670;0.0382
0004678432;4.2617;4.6902;0.7973;-0.3012;1.2753;0.1158
0004678441;3.7996;3.9433;0.7207;0.0298;1.2986;0.2104
0004678450;3.6559;2.9281;0.5794;0.2473;1.3448;0.2755
0004678459;3.7804;1.8459;0.3400;0.3557;1.4005;0.3198
0004678468;4.3527;1.2570;0.3304;0.3816;1.4693;0.3162
0004678477;4.5346;0.5555;0.4501;0.2959;1.5330;0.2819
0004678486;5.2074;0.5219;0.3448;0.1592;1.5744;0.2084
0004678495;5.7365;0.5387;0.5962;-0.0314;1.5997;0.1364
0004678504;6.2058;0.9098;0.6416;-0.2072;1.5872;0.0461
0004678513;6.7780;1.2929;0.5866;-0.3291;1.5828;-0.0209
0004678522;6.8043;1.7406;0.4645;-0.3579;1.5588;-0.0850
0004678531;7.2042;2.2098;0.4286;-0.3341;1.5202;-0.1212
0004678540;7.4436;2.5786;0.4214;-0.2537;1.4586;-0.1324
0004678549;7.6088;2.8491;0.4525;-0.1705;1.4150;-0.1352
0004678558;7.9464;2.9137;0.5076;-0.1010;1.3604;-0.1247
0004678567;8.0709;2.9353;0.7446;-0.0813;1.2950;-0.1187
0004678576;8.0182;3.0813;0.7901;-0.1043;1.2061;-0.1291
0004678585;8.1954;3.2968;1.3503;-0.1334;1.1322;-0.1591
0004678594;8.3246;3.6583;1.4605;-0.1739;1.0317;-0.1768
0004678603;8.0876;3.5602;1.6400;-0.1845;0.9441;-0.2048
0004678612;8.2337;3.6392;1.8842;-0.1580;0.8643;-0.2366
0004678621;8.4515;3.8475;2.1021;-0.1220;0.8135;-0.2643
0004678630;8.0637;3.5769;2.0423;-0.0576;0.7665;-0.2907
0004678639;7.9847;3.3303;2.4852;0.0096;0.7504;-0.3160
0004678648;7.4124;3.0813;2.6312;0.0854;0.7192;-0.3536
0004678657;6.8953;2.6791;2.8563;0.1669;0.6971;-0.3881
0004678666;5.9520;2.1141;2.9329;0.2118;0.6642;-0.4301
0004678675;5.0111;1.6688;2.8611;0.2513;0.6275;-0.5188
0004678684;4.2904;1.6879;2.5091;0.2338;0.5712;-0.5614
0004678693;3.9361;1.8268;1.6257;0.0957;0.5051;-0.5008
0004678702;4.0965;1.7430;0.3783;-0.0370;0.4786;-0.4318
0004678711;4.9416;1.7933;-0.4860;-0.1588;0.5582;-0.3639
0004678720;6.4811;1.9609;-0.9050;-0.2974;0.6482;-0.2349
0004678729;7.5920;2.5355;-1.5395;-0.5893;0.7140;0.0636
0004678738;6.7181;4.3838;-2.6312;-1.1926;0.9915;0.6186
0004678747;5.2696;6.8307;-4.7046;-2.0479;1.2975;1.3975
0004678756;4.9177;8.2600;-5.6048;-2.8573;1.2674;2.0824
0004678765;5.1547;8.5210;-5.7988;-3.0282;1.2593;2.3946
0004678774;5.3941;8.7580;-4.7812;-2.5058;1.2784;2.2825
0004678837;6.1483;0.9266;-0.6201;1.4605;0.3092;0.1375
0004678846;4.9560;0.6009;-0.8356;1.1122;0.3220;0.2145
0004678855;3.7685;0.4357;-1.4413;0.5810;0.4281;0.2530
0004678864;3.0670;0.7326;-1.3982;0.0919;0.6301;0.2719
0004678873;1.8890;0.8691;-1.6185;-0.2138;0.8860;0.2992
0004678882;1.1277;1.4844;-1.3048;-0.3993;1.1740;0.3130
0004678891;0.5722;2.3343;-1.4030;-0.4882;1.4298;0.2822
0004678900;0.2538;2.9592;-1.3024;-0.4876;1.6763;0.2085
0004678909;0.2035;3.4740;-0.9816;-0.3954;1.8932;0.1102
0004678918;0.6369;3.5530;-0.2586;-0.2658;2.0278;0.0222
0004678927;1.7095;3.0598;0.3759;-0.1082;2.0913;-0.0718
0004678936;3.1963;2.4062;0.9816;0.0326;2.1341;-0.1452
0004678945;4.6687;2.2601;0.9888;0.0474;2.1751;-0.1572
0004678954;5.8347;1.9632;0.9194;-0.0300;2.1532;-0.1158
0004678963;6.8833;1.7478;0.6057;-0.1537;2.0936;-0.0392
0004678972;7.7979;2.1069;0.3687;-0.2539;2.0123;0.0585
0004678981;8.0349;2.0710;0.1460;-0.2856;1.9386;0.1347
0004678990;7.9200;2.3415;0.0455;-0.2409;1.8616;0.1869
0004678999;7.8889;2.6312;0.2466;-0.1653;1.7796;0.2116
0004679008;7.3167;2.7222;0.5243;-0.0577;1.6738;0.2041
0004679017;7.0054;2.8443;0.6560;0.0582;1.5833;0.1756
0004679026;6.5841;2.4804;0.7901;0.1607;1.5052;0.1443
0004679035;6.6463;2.5594;0.7733;0.1943;1.4456;0.1395
0004679044;6.5601;2.4301;0.5698;0.1873;1.3751;0.1198
0004679053;6.8690;2.4541;0.4669;0.1239;1.3159;0.1090
0004679062;7.1611;2.6169;0.3974;0.0529;1.2464;0.1098
0004679071;7.4292;2.8228;0.3160;0.0053;1.1664;0.1096
0004679080;7.7213;3.0215;0.3615;0.0083;1.0870;0.1159
0004679089;7.7716;3.0023;0.4549;0.0670;0.9979;0.1234
0004679098;7.7931;2.7964;0.5890;0.1537;0.9125;0.1439
0004679107;7.9966;2.7845;0.5722;0.2643;0.8162;0.1531
0004679116;7.9990;2.4924;0.7039;0.3712;0.7334;0.1677
0004679125;7.8195;2.1596;0.5267;0.4422;0.6462;0.1852
0004679134;7.8745;1.9082;0.5794;0.4788;0.5756;0.2042
0004679143;7.5130;1.5179;0.5076;0.4574;0.5284;0.2304
0004679152;7.4699;1.4820;0.4669;0.4042;0.4935;0.2411
0004679161;6.9887;1.2402;0.5483;0.3099;0.4918;0.2501
0004679170;6.2848;1.1779;0.7039;0.1998;0.4752;0.2393
0004679179;5.3079;1.2067;0.7446;0.0633;0.4795;0.2197
0004679188;4.5897;1.4006;0.9050;-0.0857;0.5004;0.1895
0004679197;4.0725;1.8483;0.9768;-0.2495;0.5412;0.1661
0004679206;3.7302;2.3224;0.9074;-0.4249;0.5781;0.1716
0004679215;3.7613;3.2896;0.5195;-0.5379;0.5697;0.2298
0004679224;4.3958;4.0486;0.2562;-0.5746;0.5488;0.2987
0004679233;5.1667;4.6783;0.3041;-0.5577;0.5844;0.3203
0004679242;5.7772;4.7046;0.4118;-0.4603;0.6532;0.3392
0004679251;6.7229;5.2816;0.8691;-0.3295;0.7377;0.3371
0004679260;7.1180;5.1811;1.6161;-0.2463;0.8275;0.3272
0004679269;6.8546;4.9584;2.1500;-0.2240;0.9156;0.3066
0004679278;6.2297;4.6328;2.5738;-0.2470;0.9763;0.2661
0004679287;5.2529;3.8810;2.3128;-0.2638;0.9820;0.2182
0004679296;4.2952;4.0582;0.8475;-0.2920;0.8950;0.1204
0004679305;4.9512;4.6950;0.2466;-0.5384;0.8535;-0.2188
0004679314;6.7349;5.1811;-0.9218;-0.9613;0.7349;-0.7733
0004679323;7.8865;4.8578;-2.7485;-1.2792;0.6290;-1.1972
0004679332;7.2209;4.3479;-3.1651;-1.4162;0.6105;-1.3578
0004679341;6.1220;4.8698;-3.1460;-1.5406;0.5879;-1.4813
0004679350;5.2074;5.9376;-3.4884;-1.7272;0.5943;-1.6347
0004679359;4.1037;5.6192;-3.9576;-1.7091;0.6576;-1.5857
0004679368;3.1747;4.9057;-3.4572;-1.3716;0.8066;-1.3800
0004679377;1.9561;4.2090;-2.8299;-0.8430;0.9900;-1.0329
0004679386;1.4317;3.6464;-2.2051;-0.3186;1.1807;-0.7390
0004679395;1.5107;2.9808;-1.5969;0.1467;1.3328;-0.5477
0004679404;2.4588;2.1931;-1.2091;0.4920;1.4180;-0.4238
0004679413;4.0701;1.8747;-1.0223;0.6744;1.4188;-0.3561
0004679422;5.9759;1.8579;-0.4190;0.6522;1.3576;-0.3002
0004679431;7.3071;2.1859;0.2107;0.4138;1.1600;-0.2407
0004679440;8.8274;2.6887;0.6416;0.0156;0.9152;-0.1524
0004679449;10.1897;3.0861;0.8499;-0.4060;0.6551;-0.0710
0004679458;11.4060;3.4620;0.7661;-0.7135;0.4461;0.0168
0004679467;12.0213;3.6775;0.1101;-0.8327;0.3079;0.0767
0004679476;11.2863;3.7445;-0.2107;-0.6875;0.2220;0.1136
0004679485;10.1179;3.7254;0.0479;-0.4505;0.1254;0.1649
0004679494;9.2512;3.9624;0.3208;-0.2392;-0.0560;0.2052
0004679561;4.6376;1.5490;0.5052;0.1639;-0.4674;0.1780
0004679570;3.9696;1.2330;0.5794;0.1728;-0.3724;0.1172
0004679579;3.4046;1.1420;0.7685;0.1680;-0.2646;0.0632
0004679588;3.1771;1.2402;0.7805;0.1563;-0.1751;0.0159
0004679597;3.2250;1.2833;0.9409;0.1426;-0.0798;-0.0109
0004679606;3.5602;1.3982;0.7925;0.1312;-0.0111;-0.0402
0004679615;4.1851;1.5443;0.8116;0.1368;0.0520;-0.0695
0004679624;4.5083;1.4916;0.7350;0.1315;0.0970;-0.1199
0004679633;5.2098;1.7478;0.8308;0.1054;0.1302;-0.1545
0004679642;5.6790;2.0758;0.9337;0.0522;0.1351;-0.1760
0004679651;6.0358;2.3727;1.0223;0.0244;0.1244;-0.1880
0004679660;6.3734;2.7126;1.2115;-0.0051;0.1075;-0.1993
0004679669;6.6583;2.8659;1.3216;0.0145;0.0626;-0.2093
0004679678;6.4643;2.7461;1.3838;0.0613;0.0197;-0.2062
0004679687;6.4500;2.7677;1.5706;0.1359;-0.0240;-0.1912
0004679696;6.6248;2.7773;1.7813;0.2085;-0.0761;-0.1693
0004679705;6.7445;2.7940;1.7430;0.2875;-0.1431;-0.1536
0004679714;6.6822;2.6671;1.7166;0.3439;-0.1966;-0.1323
0004679723;6.7301;2.2913;1.6089;0.3829;-0.2654;-0.1236
0004679732;6.8809;2.4445;1.5012;0.3953;-0.3360;-0.0997
0004679741;7.0773;2.5019;1.5227;0.3677;-0.4074;-0.0794
0004679750;7.5226;2.5091;1.3647;0.3020;-0.4638;-0.0365
0004679759;7.5178;2.5546;1.2306;0.2017;-0.5240;-0.0068
0004679768;8.0373;3.2130;0.9218;0.0498;-0.5688;0.0405
0004679777;7.9487;3.3806;0.5219;-0.1292;-0.5588;0.0666
0004679786;7.3598;3.5051;0.2945;-0.2542;-0.4916;0.0430
0004679795;6.0214;3.5985;0.4573;-0.3315;-0.4648;0.0020
0004679804;5.0853;3.6368;0.9409;-0.3251;-0.4935;-0.0360
0004679813;4.8267;3.7852;1.5419;-0.2411;-0.5343;-0.0508
0004679822;4.8219;4.1899;2.0830;-0.1340;-0.5858;-0.0314
0004679831;5.5115;4.6184;1.9728;-0.0357;-0.5911;0.0131
0004679840;4.9775;5.3439;1.3001;-0.1506;-0.5478;0.2237
0004679849;4.3167;5.7844;0.4860;-0.4764;-0.4688;0.5690
0004679858;5.0015;5.3917;-0.3280;-0.6841;-0.4195;0.8002
0004679867;5.8682;4.7573;-0.4980;-0.7108;-0.4016;0.9100
0004679876;6.4141;4.6160;-1.0080;-0.6392;-0.3667;1.0184
0004679885;6.3782;4.5945;-1.8244;-0.5669;-0.2635;1.1518
0004679894;6.3063;5.0757;-2.3152;-0.5320;-0.1969;1.3280
0004679903;5.8083;5.3678;-2.4205;-0.5312;-0.2036;1.4735
0004679912;5.6024;5.2888;-2.5187;-0.4225;-0.2986;1.4883
0004679919;5.8442;4.9392;-2.4469;-0.2336;-0.3990;1.4198
0004679927;6.4763;4.4843;-2.1691;0.0649;-0.5055;1.2907
0004679935;7.1754;3.5171;-1.6305;0.4121;-0.6114;1.1442
0004679943;7.8075;2.5355;-1.1612;0.7873;-0.7091;0.9794
0004679951;8.0325;1.7957;-1.0271;1.0825;-0.7799;0.8279
0004679959;7.2185;1.1684;-1.0032;1.2315;-0.8183;0.6928
