time;acc_x;acc_y;acc_z;gyro_x;gyro_y;gyro_z
0000198437;4.8722;2.7869;-2.0542;0.0205;-0.1415;-0.0180
0000198447;4.7477;2.6767;-2.0207;0.0036;-0.1326;-0.0057
0000198455;4.9009;2.9832;-2.0470;-0.0183;-0.1319;-0.0023
0000198463;4.7166;2.9209;-1.9920;-0.0221;-0.1384;-0.0048
0000198471;4.9392;3.0526;-1.9800;-0.0312;-0.1364;-0.0051
0000198479;4.9775;3.1316;-1.9249;-0.0338;-0.1422;-0.0080
0000198487;4.9129;3.1627;-1.8028;-0.0285;-0.1314;-0.0045
0000198495;4.8985;3.2226;-1.7382;-0.0065;-0.1344;-0.0164
0000198503;4.9129;3.1268;-1.8579;0.0105;-0.1214;-0.0189
0000198511;4.9680;2.9568;-1.7717;0.0258;-0.1124;-0.0205
0000198519;4.9321;2.8060;-1.8603;0.0368;-0.1118;-0.0284
0000198527;4.8411;2.6719;-1.9585;0.0308;-0.1062;-0.0205
0000198535;4.8530;2.5881;-2.0734;0.0115;-0.1049;-0.0115
0000198543;4.8985;2.6552;-2.0446;-0.0091;-0.1152;-0.0035
0000198551;4.7932;2.6264;-2.0758;-0.0366;-0.1206;0.0099
0000198559;4.9512;2.7533;-2.0207;-0.0642;-0.1191;0.0258
0000198567;4.8722;2.9161;-1.9345;-0.0779;-0.1340;0.0256
0000198575;5.2625;3.2848;-1.9273;-0.0751;-0.1504;0.0151
0000198583;5.2768;3.3806;-1.7454;-0.0701;-0.1595;0.0119
0000198591;5.2864;3.3758;-1.6712;-0.0521;-0.1771;0.0079
0000198599;5.2864;3.1340;-1.7621;-0.0273;-0.1990;0.0076
0000198607;5.3079;3.0765;-1.8028;-0.0027;-0.2272;0.0153
0000198615;5.2840;2.8156;-1.8890;0.0149;-0.2493;0.0361
0000198623;5.4516;2.9784;-2.1021;0.0201;-0.2673;0.0565
0000198631;5.5809;3.0335;-2.1835;0.0192;-0.2966;0.0781
0000198639;5.4372;2.9951;-2.1883;0.0119;-0.3239;0.0969
0000198647;5.5402;3.1412;-2.2170;0.0056;-0.3575;0.1013
0000198655;5.3726;3.1149;-2.2984;0.0083;-0.3812;0.1078
0000198663;5.4492;3.2465;-2.3391;0.0073;-0.3922;0.1124
0000198671;5.3534;3.2513;-2.3535;0.0164;-0.4110;0.1108
0000198679;5.3678;3.4500;-2.5762;0.0384;-0.4329;0.1123
0000198687;5.2529;3.4668;-2.6073;0.0504;-0.4351;0.1306
0000198695;4.8722;3.1939;-2.7725;0.0773;-0.4459;0.1472
0000198703;4.6256;3.0622;-2.7318;0.0990;-0.4547;0.1792
0000198711;4.7932;3.3662;-2.7246;0.1159;-0.4643;0.2029
0000198719;4.8794;3.0574;-2.6911;0.1250;-0.4580;0.2205
0000198727;5.0350;3.1627;-2.5594;0.1348;-0.4430;0.2045
0000198735;5.0685;2.9497;-2.3463;0.1270;-0.4321;0.1667
0000198743;4.9775;2.6384;-1.9752;0.1300;-0.4143;0.1154
0000198751;4.9847;2.2936;-1.5682;0.1336;-0.3789;0.0709
0000198759;5.0422;2.3966;-1.4557;0.1660;-0.3523;0.0289
0000198767;5.2768;2.1859;-1.2282;0.2021;-0.3216;0.0093
0000198775;5.3654;1.9082;-1.1756;0.2366;-0.3315;0.0008
0000198783;5.7461;1.9489;-1.1684;0.2643;-0.3581;-0.0005
0000198791;5.8634;1.8866;-1.2785;0.2389;-0.4026;0.0217
0000198799;6.1986;2.1261;-1.3767;0.1783;-0.4670;0.0389
0000198807;6.4643;2.4972;-1.7023;0.0817;-0.5320;0.0649
0000198815;6.6726;2.9497;-1.7095;-0.0658;-0.6101;0.0886
0000198823;6.8905;3.3232;-1.6496;-0.2025;-0.6869;0.1095
0000198831;6.9168;3.7924;-1.6759;-0.3230;-0.7553;0.1206
0000198839;6.9192;4.1611;-1.4246;-0.4056;-0.8319;0.0977
0000198847;6.9959;4.7142;-1.0199;-0.4375;-0.8751;0.0585
0000198855;6.6224;4.6711;-0.5722;-0.4105;-0.8989;0.0285
0000198863;6.3853;4.7238;-0.2514;-0.3219;-0.9150;0.0107
0000198871;6.0238;4.4652;0.0359;-0.1851;-0.9318;0.0192
0000198879;5.7078;4.2808;0.0982;-0.0405;-0.9268;0.0448
0000198887;5.5354;3.8810;-0.0575;0.0794;-0.9210;0.0703
0000198895;5.5258;3.5865;-0.2490;0.1573;-0.8973;0.0851
0000198903;5.5881;3.2178;-0.5291;0.1812;-0.8731;0.0842
0000198911;5.6144;2.9473;-0.7230;0.1703;-0.8416;0.0713
0000198919;5.7317;2.7485;-0.8906;0.1375;-0.8243;0.0398
0000198927;5.8107;2.4277;-1.0798;0.1037;-0.7963;0.0111
0000198935;5.8921;2.3128;-1.1349;0.0697;-0.7819;-0.0180
0000198943;5.8610;2.0973;-1.1923;0.0345;-0.7810;-0.0573
0000198951;5.9735;2.2218;-1.2354;0.0111;-0.7833;-0.0859
0000198959;6.0525;2.5139;-1.4581;-0.0203;-0.7614;-0.1057
0000198967;5.7030;2.4995;-1.6520;-0.0236;-0.7593;-0.1446
0000198975;5.7772;2.8730;-1.6903;-0.0390;-0.7594;-0.1716
0000198983;5.5881;3.2250;-1.7071;-0.0458;-0.7695;-0.2093
0000198991;5.0925;3.4261;-1.8579;-0.0646;-0.7622;-0.2237
0000198999;4.7262;3.7613;-1.8531;-0.0671;-0.7631;-0.2392
0000199007;4.3718;3.9600;-1.9561;-0.0626;-0.7498;-0.2454
0000199073;4.1420;3.0718;-2.1308;0.1227;-0.6346;-0.0745
0000199081;4.6471;3.0335;-2.1620;0.0859;-0.6302;-0.0253
0000199089;4.8507;2.8491;-2.0135;0.0550;-0.6412;0.0003
0000199097;5.2529;2.6863;-1.9465;0.0442;-0.6707;0.0047
0000199105;5.6048;2.7174;-1.8651;0.0409;-0.6783;0.0035
0000199113;5.5617;2.4972;-1.9106;0.0674;-0.6856;-0.0211
0000199121;5.5881;2.5091;-1.9656;0.0933;-0.6869;-0.0452
0000199129;5.5809;2.3152;-1.9130;0.1288;-0.7075;-0.0753
0000199137;5.7174;2.2170;-1.8459;0.1596;-0.7490;-0.1186
0000199145;5.7844;2.0087;-1.7478;0.1839;-0.7974;-0.1559
0000199153;5.7604;2.0063;-1.7310;0.1745;-0.8362;-0.1687
0000199161;5.6695;1.8196;-1.8459;0.1552;-0.8817;-0.1703
0000199169;5.4133;1.8459;-1.7813;0.1191;-0.9073;-0.1458
0000199177;5.0039;1.6424;-1.8818;0.0871;-0.9201;-0.1102
0000199185;4.6543;1.6209;-1.7502;0.0685;-0.9340;-0.0685
0000199193;4.3048;1.5586;-1.7980;0.0421;-0.9145;-0.0209
0000199201;3.8738;1.6807;-1.6424;0.0230;-0.8974;0.0080
0000199209;3.5219;1.7478;-1.4557;-0.0068;-0.8648;0.0204
0000199217;3.0765;1.6472;-1.4078;-0.0465;-0.8287;0.0041
0000199225;2.8347;1.6496;-1.2641;-0.0937;-0.7825;-0.0337
0000199233;2.4445;1.6807;-1.1995;-0.1639;-0.7289;-0.0779
0000199241;2.0853;1.6783;-1.2043;-0.2193;-0.6795;-0.1238
0000199249;1.7741;1.9776;-1.2474;-0.2733;-0.6087;-0.1641
0000199257;1.4581;2.1524;-1.1540;-0.3136;-0.5301;-0.2073
0000199265;1.2977;2.5426;-1.1899;-0.3536;-0.4515;-0.2523
0000199273;1.0989;2.9353;-1.1516;-0.3876;-0.3584;-0.2757
0000199281;1.0630;3.1747;-0.9960;-0.4113;-0.2709;-0.2984
0000199289;1.0534;3.4429;-0.8380;-0.4394;-0.1899;-0.3034
0000199297;1.1564;3.8044;-0.5531;-0.4559;-0.1198;-0.2916
0000199305;1.3503;4.0247;-0.5339;-0.4561;-0.0584;-0.2593
0000199313;1.7717;4.5753;-0.4334;-0.4413;-0.0060;-0.1867
0000199321;2.1165;4.8674;-0.3831;-0.4207;0.0167;-0.0991
0000199329;2.5498;4.8554;-0.4094;-0.3641;0.0177;-0.0173
0000199337;3.1556;5.1188;-0.3687;-0.2982;0.0234;0.0426
0000199345;3.7158;4.9392;-0.2586;-0.2245;0.0324;0.0721
0000199353;4.1228;4.6136;-0.1867;-0.1360;0.0324;0.0585
0000199361;4.5610;4.3287;-0.0886;-0.0452;0.0372;0.0254
0000199369;4.8866;3.9863;-0.0120;0.0429;0.0266;-0.0240
0000199377;4.7740;3.6512;0.0455;0.1276;0.0089;-0.0813
0000199385;4.6136;3.2298;-0.0646;0.1948;0.0021;-0.1163
0000199393;4.4197;2.7031;-0.2705;0.2457;-0.0159;-0.1332
0000199401;4.2617;2.5019;-0.4046;0.2785;-0.0290;-0.1392
0000199409;4.1611;2.3583;-0.5148;0.3066;-0.0520;-0.1330
0000199417;3.9887;2.0973;-0.5818;0.3072;-0.0606;-0.1061
0000199425;3.8690;1.8316;-0.7709;0.3152;-0.0755;-0.0833
0000199433;3.7397;1.6352;-0.8499;0.3419;-0.0871;-0.0741
0000199441;3.6224;1.8076;-1.1181;0.3680;-0.0953;-0.0584
0000199449;3.5147;1.8723;-1.2402;0.3669;-0.1106;-0.0329
0000199457;3.9624;2.1691;-1.3910;0.3247;-0.1123;0.0065
0000199465;4.3551;2.3942;-1.2282;0.2751;-0.1025;0.0441
0000199473;4.6088;2.1572;-1.0080;0.2348;-0.0707;0.0847
0000199481;4.6064;2.2051;-0.7925;0.2132;-0.0191;0.1095
0000199489;4.7932;2.3104;-0.7638;0.2328;0.0261;0.0950
0000199497;4.4221;2.4469;-0.8835;0.2675;0.0605;0.0494
0000199505;4.2808;2.8970;-1.1277;0.3151;0.0839;-0.0055
0000199513;3.7230;2.9161;-1.3096;0.3384;0.1111;-0.0460
0000199521;3.6320;3.1388;-1.4988;0.3451;0.1171;-0.0927
0000199529;3.2585;3.2681;-1.7334;0.3341;0.1128;-0.1230
0000199537;3.2609;3.5458;-1.8411;0.2992;0.0958;-0.1360
0000199545;3.0215;3.5123;-2.0159;0.2519;0.0691;-0.1104
0000199553;2.9592;3.5817;-2.0135;0.2302;0.0258;-0.0719
0000199561;3.3375;3.7685;-1.7645;0.2413;-0.0167;-0.0321
0000199569;3.3782;3.7565;-1.4748;0.2806;-0.0266;0.0177
0000199577;3.7828;3.5530;-1.2905;0.3352;-0.0156;0.0480
0000199585;4.1611;3.4764;-1.2378;0.4081;-0.0067;0.0532
0000199593;4.3622;3.2561;-1.2761;0.4878;-0.0048;0.0520
0000199601;4.4796;2.8730;-1.3838;0.5431;-0.0009;0.0437
0000199609;4.5418;2.5690;-1.4461;0.5958;0.0012;0.0354
0000199617;4.6639;2.3583;-1.4629;0.6281;-0.0137;0.0185
0000199625;4.6950;2.0901;-1.4916;0.6041;-0.0217;0.0079
0000199633;4.5873;1.7382;-1.4222;0.5542;-0.0484;0.0003
0000199641;4.5346;1.4389;-1.4988;0.4715;-0.0686;0.0004
0000199707;4.1611;3.2968;-1.3240;0.0246;-0.0691;0.2009
0000199715;4.3048;3.3854;-1.2713;0.0990;-0.0917;0.1608
0000199723;4.5298;3.7661;-1.0271;0.1769;-0.1023;0.1096
0000199731;4.6639;3.8642;-0.9864;0.2550;-0.1155;0.0608
0000199739;4.4987;3.7972;-1.0223;0.3260;-0.1402;0.0209
0000199747;4.4867;3.9289;-1.1013;0.3774;-0.1619;0.0052
0000199755;4.2880;3.9456;-1.3192;0.4209;-0.1843;0.0115
0000199763;4.1492;3.6943;-1.4341;0.4458;-0.1872;0.0248
0000199771;4.1324;3.5458;-1.4772;0.4783;-0.1821;0.0350
0000199779;3.8595;3.0694;-1.4916;0.5003;-0.1620;0.0650
0000199787;3.9169;2.8850;-1.5945;0.5163;-0.1458;0.0863
0000199795;3.8786;2.8371;-1.5826;0.5231;-0.1316;0.0953
0000199803;3.8523;2.4588;-1.7669;0.5008;-0.1178;0.1088
0000199811;4.0414;2.2721;-1.9201;0.4699;-0.1014;0.1112
0000199819;3.8211;2.1261;-2.1021;0.4225;-0.0909;0.0957
0000199827;4.0534;2.2505;-2.1620;0.3695;-0.0827;0.0718
0000199835;4.1084;2.1859;-2.2218;0.3123;-0.0850;0.0445
0000199843;4.1659;2.4229;-2.1045;0.2698;-0.0869;0.0209
0000199851;4.1779;2.5187;-2.0877;0.2300;-0.0839;0.0216
0000199859;4.1539;2.6408;-1.8507;0.2033;-0.0817;0.0366
0000199867;4.1755;2.6815;-1.7286;0.2172;-0.0801;0.0498
0000199875;3.9816;2.9999;-1.7214;0.2602;-0.0677;0.0675
0000199883;3.8595;3.0550;-1.6544;0.3182;-0.0534;0.0867
0000199891;3.7373;2.8874;-1.7047;0.3765;-0.0416;0.0890
0000199899;3.8690;2.8850;-1.7837;0.4081;-0.0179;0.0958
0000199907;3.9744;2.8802;-1.8507;0.4213;-0.0036;0.0969
0000199915;4.1156;2.7940;-1.8411;0.4157;0.0109;0.0854
0000199923;4.3838;2.7198;-1.9728;0.3928;0.0249;0.0781
0000199931;4.4412;2.7150;-1.9609;0.3766;0.0249;0.0620
0000199939;4.5059;2.6288;-2.0351;0.3544;0.0348;0.0524
0000199947;4.5346;2.7150;-2.0758;0.3453;0.0364;0.0344
0000199955;4.4053;2.5426;-2.1284;0.3571;0.0326;0.0266
0000199963;4.3096;2.8371;-2.2218;0.3718;0.0430;0.0262
0000199971;4.0725;2.8347;-2.2434;0.3901;0.0568;0.0260
0000199979;3.6583;2.7461;-2.1500;0.4171;0.0590;0.0292
0000199987;3.8786;2.9592;-2.1380;0.4426;0.0629;0.0429
0000199995;3.9025;3.0095;-2.2649;0.4557;0.0636;0.0671
0000200003;4.3287;3.3782;-2.2769;0.4916;0.0560;0.0737
0000200011;4.3239;3.1460;-2.1907;0.5168;0.0578;0.0807
0000200019;4.3814;2.8563;-2.0423;0.5653;0.0624;0.0789
0000200027;4.5418;2.7773;-1.9944;0.6189;0.0713;0.0794
0000200035;4.8267;2.6791;-2.0518;0.6691;0.0673;0.0675
0000200043;4.7645;2.3104;-2.2242;0.6987;0.0770;0.0604
0000200051;4.5681;2.0279;-2.4421;0.7056;0.0869;0.0625
0000200059;4.4700;1.7526;-2.5762;0.6965;0.0979;0.0737
0000200067;4.2665;1.6257;-2.6576;0.6579;0.1103;0.0878
0000200075;4.2090;1.4413;-2.7342;0.5874;0.1226;0.1175
0000200083;4.0630;1.3551;-2.8084;0.4807;0.1331;0.1510
0000200091;4.0989;1.6328;-2.8611;0.3683;0.1402;0.1615
0000200099;4.0007;1.7166;-2.5355;0.2722;0.1488;0.1625
0000200107;4.0677;1.9178;-2.2098;0.2018;0.1619;0.1613
0000200115;4.1946;2.1572;-1.8220;0.1961;0.1665;0.1479
0000200123;4.1779;2.2625;-1.5826;0.2277;0.1795;0.1268
0000200131;4.3096;2.3511;-1.5347;0.3087;0.1812;0.1082
0000200139;4.2353;2.3104;-1.5060;0.3981;0.1761;0.0914
0000200147;4.3072;2.1237;-1.5419;0.4671;0.1816;0.0985
0000200155;4.4173;1.9178;-1.5107;0.5016;0.1800;0.1108
0000200163;4.2497;1.6376;-1.4724;0.4936;0.1824;0.1431
0000200171;4.5466;1.4150;-1.4868;0.4445;0.1831;0.1837
0000200179;4.6783;1.4509;-1.3120;0.3988;0.1673;0.2098
0000200187;4.8937;1.2641;-1.3408;0.3379;0.1543;0.2244
0000200195;5.1427;1.2570;-1.1660;0.2691;0.1399;0.2252
0000200203;5.3056;1.4198;-1.3958;0.2252;0.1360;0.2062
0000200211;5.3726;1.3048;-1.2929;0.1977;0.1279;0.1597
0000200219;5.3606;1.4700;-1.2977;0.1612;0.1175;0.1143
0000200227;4.9775;1.1468;-1.2570;0.1203;0.1027;0.0870
0000200235;4.5562;0.8188;-1.1947;0.0793;0.0937;0.0937
0000200243;4.0342;0.6680;-1.0104;0.0155;0.0937;0.1270
0000200251;3.9169;0.7326;-0.8715;-0.0789;0.1118;0.1919
0000200259;3.9241;0.6177;-0.6728;-0.1873;0.1319;0.2679
0000200267;3.9121;0.7326;-0.4046;-0.2733;0.1518;0.3332
0000200275;3.9816;0.7135;-0.0862;-0.3341;0.1560;0.3639
0000200283;3.9504;0.7853;0.6464;-0.3814;0.1657;0.3858
0000200291;3.6966;0.4022;1.2210;-0.4429;0.2118;0.4154
0000200357;3.9983;-1.0367;0.0168;-0.6010;0.9895;0.4301
0000200365;4.6040;-0.2538;-0.6847;-0.6880;0.9515;0.5083
0000200373;4.8674;0.4501;-1.2019;-0.8043;0.8635;0.5684
0000200381;5.4875;0.9792;-1.0654;-0.9510;0.8070;0.5820
0000200389;5.7293;1.5227;-0.8882;-1.1130;0.7986;0.5427
0000200397;5.5593;2.1644;-0.3065;-1.2808;0.8375;0.4688
0000200405;5.0542;2.8156;0.3567;-1.4388;0.9350;0.3770
0000200413;4.3407;3.5626;0.9481;-1.5136;1.0560;0.2974
0000200421;3.3710;3.9576;1.1660;-1.4698;1.1852;0.2513
0000200429;2.9401;4.5418;1.5419;-1.3221;1.3187;0.2409
0000200437;2.5522;4.8195;1.5850;-1.0949;1.3636;0.2118
0000200445;2.4828;4.4436;0.9122;-0.7707;1.3394;0.1427
0000200453;3.5817;3.7421;0.5650;-0.4022;1.2323;0.0358
0000200461;5.2098;3.1388;0.4980;-0.1407;1.1433;-0.0698
0000200469;7.2425;1.5131;0.3687;0.0224;1.0926;-0.1085
0000200477;8.9974;0.4549;0.3735;0.0775;0.9904;-0.1051
0000200485;10.3382;-0.3735;0.1748;0.0404;0.8499;-0.0570
0000200493;11.3509;-1.1516;0.1197;-0.0199;0.6671;-0.0217
0000200501;12.1147;-1.1061;-0.3352;-0.0767;0.5125;0.0506
0000200509;12.1242;-0.4669;-1.0032;-0.0926;0.4185;0.1053
0000200517;10.3406;0.3783;-1.7071;-0.0284;0.3733;0.1380
0000200525;8.4611;1.7071;-3.4237;0.0915;0.3276;0.1609
0000200533;7.1754;2.2553;-3.8283;0.2971;0.3143;0.1799
0000200541;6.0525;1.8627;-4.7046;0.6103;0.2642;0.1636
0000200549;5.5115;1.2617;-4.8411;1.0027;0.2221;0.1271
0000200557;5.8586;0.6369;-4.9392;1.3464;0.2134;0.0826
0000200565;6.0885;-0.5411;-5.0015;1.6546;0.2108;0.0440
0000200573;6.3063;-2.1117;-4.7477;1.8534;0.0758;0.0462
0000200581;6.8354;-3.4788;-4.4915;1.9020;-0.1438;0.0963
0000200589;7.2233;-4.4388;-4.3024;1.8413;-0.3476;0.1612
0000200597;8.0685;-4.6184;-4.3191;1.6441;-0.5152;0.2523
0000200605;8.8226;-4.2377;-4.3934;1.3185;-0.6206;0.3612
0000200613;8.9184;-2.6935;-4.7908;0.9204;-0.6636;0.4297
0000200621;8.7795;-0.7039;-5.2888;0.6391;-0.7308;0.4763
0000200629;8.2504;1.6640;-5.8993;0.5401;-0.8005;0.5215
0000200637;7.8650;3.3040;-6.7157;0.7321;-0.8334;0.5357
0000200645;7.6423;4.3958;-7.6926;1.1572;-0.8312;0.5284
0000200653;6.8067;4.1611;-7.6303;1.6862;-0.7418;0.4998
0000200661;5.5258;2.6336;-6.6224;2.1806;-0.5865;0.4565
0000200669;4.1061;0.2777;-4.7525;2.4698;-0.5220;0.3716
0000200677;2.7845;-1.0199;-3.1963;2.4614;-0.5769;0.2813
0000200685;4.2258;-1.0223;-2.4181;2.2725;-0.5408;0.3732
0000200693;9.8402;0.4621;-5.7820;2.7645;-0.1840;0.7482
0000200701;15.6940;10.4435;-9.0621;4.1379;-0.9338;1.4500
0000200709;18.7562;28.9483;-10.4627;4.3656;-2.6352;1.8269
0000200717;16.8336;50.0819;-14.8177;3.9642;-3.4399;0.9915
0000200725;17.8009;53.6852;-17.5016;2.9078;-3.7227;0.0409
0000200733;12.0787;35.5012;-15.7419;3.0301;-3.0978;-0.7746
0000200741;7.0006;19.9317;-2.7701;3.9265;-2.3689;-0.8482
0000200749;5.8395;10.8840;3.9552;4.2714;-1.8193;-0.3965
0000200757;6.5505;4.1563;7.6830;4.0879;-1.0956;0.5029
0000200765;5.9161;-0.2227;9.4978;3.6003;-0.8166;1.4557
0000200773;4.4652;-2.3367;11.1785;2.5583;-1.0032;2.0654
0000200781;3.0239;-3.9624;11.7507;1.2177;-2.0150;2.0121
0000200789;3.9361;-5.7604;11.1235;0.3792;-3.2089;1.6009
0000200797;5.2960;-7.3167;10.1562;0.1635;-3.7948;1.1391
0000200805;6.0885;-9.1650;10.2783;0.6860;-3.6333;0.6022
0000200813;6.4548;-11.0397;11.0756;1.8758;-2.6394;0.0981
0000200821;6.5697;-12.7180;11.7986;3.5870;-0.9738;-0.1592
0000200829;6.1292;-13.0915;11.6478;4.3656;0.6442;-0.1768
0000200837;5.0661;-12.0117;12.1865;4.3656;1.6098;0.0001
0000200845;4.2210;-10.8074;12.8257;4.3656;1.8856;0.2850
0000200853;3.2394;-10.4244;13.4387;4.3656;1.6519;0.4852
0000200861;1.7190;-10.6207;13.0699;4.3656;1.1020;0.4674
0000200869;0.8595;-10.5632;12.2775;4.3656;0.3547;0.2201
0000200877;1.1779;-10.0940;9.3446;4.3656;-0.3732;-0.0594
0000200885;2.8419;-9.5193;5.5569;4.3656;-1.0854;-0.2105
0000200893;4.3718;-8.8897;1.6520;4.3656;-1.6129;-0.2074
0000200901;5.4061;-9.1315;-1.2641;4.3656;-1.9337;-0.1533
0000200909;8.4635;-14.7842;-7.9847;4.3656;-1.8774;-0.2494
0000200917;5.8059;-78.4532;-78.4532;2.5317;2.3894;-1.5751
0000200925;16.4386;-56.0890;-54.2454;-1.3535;-0.5152;-0.1104
0000200992;3.5865;-6.8761;-1.4293;0.5391;1.1099;-1.0324
0000201000;5.3654;-7.7045;0.3687;0.8929;1.2465;-0.4215
0000201008;5.8155;-6.8809;-1.5658;1.4405;1.3057;0.0039
0000201016;5.6360;-5.7461;-2.1763;1.7003;1.3235;0.3265
0000201024;5.1212;-4.3862;-3.4500;1.7032;1.0909;0.4531
0000201032;3.6631;-3.2178;-6.1244;1.8734;0.7095;0.3341
0000201040;2.0638;-3.6200;-10.9200;2.0015;0.4478;0.0887
0000201048;1.2617;-5.6479;-10.9439;1.7601;0.2918;-0.0674
0000201056;3.0167;-7.8889;-9.5002;1.4140;0.1815;-0.2049
0000201064;5.3343;-9.9599;-1.2689;1.3241;0.0221;-0.1900
0000201072;4.9943;-10.7260;-2.4636;1.2677;-0.0957;-0.1410
0000201080;5.7724;-10.6614;-1.8483;1.3095;-0.1115;-0.1236
0000201088;6.2058;-11.1163;-1.0870;1.2958;0.0629;-0.0233
0000201096;6.6415;-11.8441;-1.0918;1.2296;0.4361;0.0790
0000201104;7.0485;-12.1338;-1.5155;1.0624;0.9874;0.1699
0000201112;6.9264;-12.5743;-3.2633;0.6142;1.4589;0.2373
0000201120;6.3111;-13.3237;-4.9584;-0.1728;1.6764;0.2072
0000201128;6.3422;-14.1976;-7.5130;-1.1090;1.5044;0.1070
0000201136;6.4739;-14.9662;-7.7141;-1.9453;0.9474;0.0410
0000201144;7.4867;-15.0667;-13.6853;-2.5871;0.2729;0.0738
0000201152;7.4388;-13.8624;-13.1729;-2.7406;-0.1356;0.1170
0000201160;7.1012;-11.6047;-13.6541;-2.6370;-0.3994;0.1575
0000201168;6.3686;-9.6965;-15.0978;-2.1482;-0.4898;0.2094
0000201176;5.1954;-6.5625;-19.3164;-1.3255;-0.4656;0.2013
0000201184;4.4221;-4.9416;-15.7155;-0.2309;-0.3175;0.0977
0000201192;3.6847;-3.5793;-16.4960;0.5421;-0.1536;0.0621
0000201200;2.7461;-3.9145;-16.0771;0.8351;0.0773;0.1601
0000201208;3.0119;-6.0454;-16.9533;0.8100;0.3353;0.2506
0000201216;3.8140;-7.9416;-16.4817;0.5961;0.4153;0.2670
0000201224;4.6017;-9.1985;-13.3237;0.3457;0.3419;0.2210
0000201232;5.4253;-9.5289;-10.8314;0.1759;0.2442;0.0829
0000201240;6.2441;-9.4739;-9.1243;0.1162;0.1684;-0.0785
0000201248;6.8019;-9.2296;-7.0868;0.1179;0.0930;-0.1976
0000201256;7.2880;-8.6622;-6.3470;0.0955;0.0669;-0.2491
0000201264;7.5154;-8.1666;-6.6224;0.0588;0.0652;-0.2446
0000201272;7.6327;-8.3797;-7.0198;0.0061;0.1208;-0.1927
0000201280;7.5633;-8.2576;-9.2296;-0.0891;0.1701;-0.1423
0000201288;6.9240;-8.5329;-11.1043;-0.1913;0.1588;-0.1034
0000201296;6.5984;-8.7197;-12.8305;-0.3135;0.0722;-0.0909
0000201304;6.2800;-8.8394;-13.4410;-0.4034;-0.0304;-0.0731
0000201312;6.7612;-8.5712;-12.7443;-0.4242;-0.0636;-0.0549
0000201320;7.4053;-8.3893;-11.2958;-0.4000;0.0298;-0.0409
0000201328;7.6351;-8.1116;-9.7229;-0.3713;0.1737;-0.0257
0000201336;7.7668;-8.1139;-8.3893;-0.3440;0.2894;-0.0203
0000201344;7.7524;-7.7668;-7.6351;-0.3267;0.3644;-0.0344
0000201352;7.3502;-7.4388;-6.7540;-0.3485;0.3251;-0.0578
0000201360;6.4284;-7.1443;-6.2920;-0.3652;0.1136;-0.1030
0000201368;5.8610;-6.5769;-7.5082;-0.3805;-0.1466;-0.1696
0000201376;5.2481;-5.8682;-10.5465;-0.3409;-0.1022;-0.2228
0000201384;4.9249;-4.7525;-12.0476;-0.2565;0.0955;-0.2585
0000201392;5.2218;-3.6033;-11.4108;-0.2254;0.1731;-0.2461
0000201400;5.3726;-2.4038;-11.3365;-0.1640;0.1500;-0.1896
0000201408;5.1739;-1.1708;-11.3605;-0.1568;0.2128;-0.1114
0000201416;5.0278;0.3089;-11.6598;-0.2312;0.3062;-0.0172
0000201424;5.4636;1.2091;-11.3988;-0.3535;0.3553;0.0690
0000201432;5.8347;1.8196;-10.7931;-0.4473;0.2966;0.1643
0000201440;6.4620;1.8579;-10.2304;-0.4710;0.1964;0.2453
0000201448;7.1922;1.3934;-9.7276;-0.4867;0.1907;0.2811
0000201456;7.6375;-0.3472;-9.0549;-0.3912;0.2330;0.2258
0000201464;6.5481;-2.1332;-6.7062;-0.1414;0.2747;0.1527
0000201472;8.2791;-3.2274;-9.8737;0.1592;0.1585;0.0618
0000201480;8.3031;-4.9105;-9.4044;0.4742;0.0970;-0.0313
0000201488;8.1379;-5.9640;-10.3669;0.7168;0.0462;-0.1378
0000201496;7.7883;-6.8259;-10.6374;0.8500;-0.0556;-0.2550
0000201504;7.4077;-7.8817;-9.9407;0.8636;-0.1931;-0.3537
0000201512;7.0749;-8.2576;-9.9982;0.7537;-0.2872;-0.3949
0000201520;6.5481;-8.5521;-9.8857;0.5686;-0.3275;-0.3936
0000201528;5.9328;-8.6526;-9.8258;0.3324;-0.3268;-0.3468
0000201536;5.8059;-8.3821;-10.0437;0.0418;-0.3071;-0.2369
0000201544;5.8466;-7.6231;-10.6566;-0.2669;-0.2382;-0.1102
0000201552;6.2465;-6.5817;-11.1474;-0.5353;-0.1515;0.0218
0000201618;6.1339;-3.5243;-8.1666;-0.1945;0.0340;-0.1889
0000201626;6.0166;-4.5179;-7.9966;0.0402;0.0189;-0.2037
0000201634;6.2058;-5.1356;-8.6119;0.3034;0.0232;-0.2106
0000201642;6.4596;-5.6383;-9.3637;0.5516;0.0381;-0.2020
0000201650;6.4907;-6.2944;-10.3477;0.7047;0.0469;-0.1685
0000201658;6.8450;-6.6655;-11.1929;0.7198;0.0634;-0.1120
0000201666;6.7588;-7.2927;-11.7340;0.6238;0.0578;-0.0485
0000201674;6.7995;-7.6375;-11.6143;0.4728;0.0228;0.0200
0000201682;6.8857;-7.8410;-11.2480;0.2843;-0.0224;0.0646
0000201690;7.0006;-7.7620;-10.9607;0.1025;-0.0352;0.0663
0000201698;6.9097;-7.5992;-10.7500;-0.0402;-0.0532;0.0400
0000201706;6.8594;-7.3239;-10.5536;-0.1411;-0.0625;0.0177
0000201714;6.9671;-6.7301;-10.3789;-0.1913;-0.0821;0.0064
0000201722;7.0605;-6.2153;-10.2448;-0.2013;-0.1047;-0.0037
0000201730;6.8690;-6.0214;-10.0604;-0.1792;-0.1287;-0.0009
0000201738;6.7133;-5.6743;-9.8162;-0.1411;-0.1502;0.0001
0000201746;6.3805;-5.4540;-9.6774;-0.0659;-0.1707;-0.0123
0000201754;6.3758;-5.4636;-9.7516;0.0364;-0.1943;-0.0320
0000201762;6.0478;-5.6838;-9.8713;0.1303;-0.1897;-0.0414
0000201770;6.2680;-5.7221;-10.0126;0.2325;-0.1868;-0.0444
0000201778;6.3183;-5.8347;-10.2999;0.2803;-0.1724;-0.0193
0000201786;6.1435;-6.1531;-10.5034;0.2838;-0.1536;-0.0043
0000201794;6.1339;-6.1770;-10.6518;0.2517;-0.1307;0.0159
0000201802;5.9759;-6.2824;-10.8912;0.1827;-0.1062;0.0293
0000201810;5.9496;-6.2560;-11.1139;0.0969;-0.0741;0.0384
0000201818;5.9065;-6.1794;-10.9343;0.0293;-0.0505;0.0360
0000201826;5.9017;-5.9376;-10.8050;-0.0368;-0.0218;0.0372
0000201834;6.0286;-5.6599;-10.6542;-0.0898;-0.0021;0.0321
0000201842;6.2489;-5.4899;-10.5465;-0.1046;0.0060;0.0260
0000201850;6.4380;-5.2720;-10.4531;-0.1021;0.0093;0.0320
0000201858;6.6774;-4.9608;-10.1873;-0.0941;0.0113;0.0358
0000201866;6.7373;-5.0589;-9.9024;-0.0723;0.0027;0.0548
0000201874;6.6702;-5.3439;-9.8665;-0.0377;-0.0137;0.0663
0000201882;7.0749;-5.2337;-9.9742;0.0027;-0.0414;0.0682
0000201890;7.0222;-5.4755;-10.0652;0.0565;-0.0890;0.0557
0000201898;7.0006;-5.4588;-10.2520;0.0935;-0.1242;0.0505
0000201906;6.8642;-5.7102;-10.2520;0.1122;-0.1573;0.0302
0000201914;6.8259;-5.6264;-10.4244;0.1073;-0.1712;0.0157
0000201922;6.6942;-5.7245;-10.5225;0.0999;-0.1901;-0.0072
0000201930;6.3351;-5.7844;-10.6494;0.0830;-0.1895;-0.0237
0000201938;6.2537;-5.6192;-10.7476;0.0605;-0.1801;-0.0378
0000201946;6.1148;-5.6024;-10.5105;0.0352;-0.1605;-0.0446
0000201954;5.8323;-5.6623;-10.5656;0.0159;-0.1370;-0.0464
0000201962;5.5976;-5.5186;-10.5465;-0.0012;-0.1039;-0.0384
0000201970;5.6192;-5.5833;-10.5369;-0.0093;-0.0694;-0.0304
0000201978;5.6168;-5.6264;-10.3693;-0.0007;-0.0500;-0.0326
0000201986;5.8897;-5.6982;-10.1610;0.0007;-0.0334;-0.0236
0000201994;5.6431;-6.0262;-10.2592;0.0017;-0.0167;-0.0290
0000202002;5.9041;-6.0334;-10.1801;0.0172;-0.0028;-0.0369
0000202010;5.9352;-6.2249;-10.3645;0.0236;0.0092;-0.0416
0000202018;6.1459;-6.1770;-10.4555;0.0248;0.0164;-0.0444
0000202026;6.5098;-6.0813;-10.5536;0.0249;0.0009;-0.0514
0000202034;6.4380;-6.2704;-10.6039;0.0091;0.0019;-0.0297
0000202042;6.4859;-6.1986;-10.6207;-0.0116;-0.0147;-0.0266
0000202050;6.4476;-6.1124;-10.6470;-0.0356;-0.0286;-0.0163
0000202058;6.5601;-6.0813;-10.4890;-0.0488;-0.0469;-0.0048
0000202066;6.4308;-6.0118;-10.4411;-0.0489;-0.0632;-0.0051
0000202074;6.2872;-5.7676;-10.4172;-0.0376;-0.0755;-0.0031
0000202082;6.0597;-5.8921;-10.3238;-0.0245;-0.0763;0.0051
0000202090;6.0094;-5.7844;-10.2496;-0.0036;-0.0669;0.0003
0000202098;5.8203;-5.8826;-10.1754;0.0137;-0.0540;-0.0036
0000202106;5.9233;-5.8323;-10.1323;0.0167;-0.0396;-0.0152
0000202114;5.8155;-5.9831;-10.1730;0.0157;-0.0225;-0.0220
0000202122;6.1196;-5.9664;-10.2759;0.0208;-0.0135;-0.0337
0000202130;6.4428;-5.8299;-10.3573;0.0139;-0.0049;-0.0282
0000202138;6.5625;-6.0406;-10.4459;0.0035;-0.0063;-0.0297
0000202146;6.4596;-6.0094;-10.5297;0.0060;-0.0116;-0.0284
0000202154;6.3614;-6.1196;-10.5656;0.0016;-0.0177;-0.0262
0000202162;6.5553;-6.1100;-10.6303;0.0043;-0.0305;-0.0164
0000202170;6.4715;-5.9951;-10.5034;-0.0041;-0.0336;-0.0064
0000202232;6.4452;-5.7700;-10.2400;-0.0717;-0.0385;0.0040
0000202240;6.4907;-5.7748;-10.3166;-0.0489;-0.0450;0.0121
0000202248;6.4548;-5.5330;-10.3645;-0.0304;-0.0428;0.0207
0000202256;6.4715;-5.6719;-10.4938;-0.0109;-0.0492;0.0115
0000202264;6.4284;-5.7078;-10.5010;-0.0040;-0.0546;0.0153
0000202272;6.3925;-5.6431;-10.2687;-0.0048;-0.0565;0.0152
0000202280;6.3997;-5.6814;-10.2065;0.0027;-0.0654;-0.0023
0000202288;6.1292;-5.8275;-10.1682;0.0008;-0.0630;-0.0055
0000202296;6.1100;-5.8634;-10.3190;0.0035;-0.0548;-0.0167
0000202304;6.1914;-5.8754;-10.4387;-0.0079;-0.0444;-0.0212
0000202312;5.9807;-6.0310;-10.4363;-0.0184;-0.0342;-0.0294
0000202320;5.9328;-6.1028;-10.5393;-0.0389;-0.0238;-0.0234
0000202328;6.1914;-5.8969;-10.5034;-0.0582;-0.0105;-0.0047
0000202336;6.0669;-6.0525;-10.5704;-0.0646;0.0001;0.0089
0000202344;6.3997;-5.6838;-10.4986;-0.0654;-0.0097;0.0136
0000202352;6.3470;-5.9065;-10.4387;-0.0426;-0.0216;0.0113
0000202360;6.4643;-5.8610;-10.4052;-0.0289;-0.0261;0.0159
0000202368;6.3710;-5.9209;-10.2568;-0.0193;-0.0366;0.0113
0000202376;6.3470;-6.0334;-10.3046;-0.0088;-0.0458;0.0111
0000202384;6.4883;-5.8993;-10.3693;-0.0107;-0.0548;0.0095
0000202392;6.5290;-5.8466;-10.2328;-0.0185;-0.0537;0.0092
0000202400;6.2896;-6.0454;-10.3310;-0.0274;-0.0573;0.0059
0000202408;6.3351;-5.8419;-10.4267;-0.0372;-0.0593;-0.0049
0000202416;6.0501;-5.9616;-10.3765;-0.0525;-0.0545;-0.0112
0000202424;6.2728;-5.8778;-10.5105;-0.0665;-0.0501;-0.0164
0000202432;6.2393;-5.7030;-10.4986;-0.0637;-0.0492;-0.0245
0000202440;6.1268;-5.9017;-10.4555;-0.0679;-0.0360;-0.0250
0000202448;5.8945;-5.9855;-10.4100;-0.0646;-0.0296;-0.0253
0000202456;6.0047;-5.9711;-10.4579;-0.0513;-0.0364;-0.0348
0000202464;6.2728;-5.8371;-10.4387;-0.0404;-0.0234;-0.0281
0000202472;6.2034;-5.9328;-10.3645;-0.0346;-0.0258;-0.0284
0000202480;6.2752;-5.9161;-10.4148;-0.0410;-0.0262;-0.0168
0000202488;6.3686;-5.9280;-10.3166;-0.0406;-0.0273;-0.0065
0000202496;6.3542;-5.8490;-10.2855;-0.0496;-0.0397;-0.0015
0000202504;6.4260;-5.8323;-10.3860;-0.0638;-0.0400;0.0020
0000202512;6.0621;-5.8610;-10.4148;-0.0903;-0.0318;0.0012
0000202520;5.9855;-5.8802;-10.2496;-0.1158;-0.0222;-0.0035
0000202528;5.9711;-5.7916;-10.4028;-0.1292;-0.0003;0.0048
0000202536;6.0071;-5.6192;-10.2759;-0.1248;0.0125;0.0091
0000202544;5.7389;-5.7413;-10.4531;-0.0923;0.0290;0.0097
0000202552;6.0621;-5.5402;-10.4722;-0.0518;0.0281;0.0127
0000202560;6.2130;-5.7102;-10.5393;-0.0253;0.0310;0.0187
0000202568;6.2728;-5.8634;-10.6231;-0.0136;0.0215;0.0151
0000202576;6.5697;-5.8227;-10.5201;-0.0318;0.0087;0.0084
0000202584;6.8354;-5.7724;-10.5058;-0.0697;-0.0028;0.0092
0000202592;6.6655;-5.7485;-10.4052;-0.0971;-0.0113;0.0091
0000202600;6.5074;-5.7676;-10.4315;-0.1029;-0.0220;0.0007
0000202608;6.6224;-5.5234;-10.3070;-0.0974;-0.0310;-0.0073
0000202616;6.5649;-5.4899;-10.3310;-0.0846;-0.0293;-0.0177
0000202624;6.2704;-5.6144;-10.3238;-0.0734;-0.0266;-0.0224
0000202632;6.1387;-5.7652;-10.3358;-0.0638;-0.0297;-0.0324
0000202640;6.2417;-5.7341;-10.3693;-0.0600;-0.0330;-0.0273
0000202648;6.1483;-5.7868;-10.2711;-0.0642;-0.0329;-0.0184
0000202656;6.2513;-5.7078;-10.2017;-0.0545;-0.0445;-0.0177
0000202664;6.3925;-5.6168;-10.2615;-0.0460;-0.0416;-0.0059
0000202672;6.3351;-5.7054;-10.4435;-0.0426;-0.0473;0.0073
0000202680;6.5074;-5.7413;-10.4746;-0.0408;-0.0561;0.0093
0000202688;6.3901;-5.8897;-10.4938;-0.0405;-0.0628;0.0060
0000202696;6.5912;-5.8131;-10.5441;-0.0608;-0.0514;0.0113
0000202704;6.4069;-5.8969;-10.5608;-0.0881;-0.0412;0.0141
0000202712;6.2728;-5.9209;-10.5393;-0.1078;-0.0476;0.0136
0000202720;6.3231;-5.6743;-10.4651;-0.1180;-0.0393;0.0191
0000202728;5.9735;-5.9783;-10.3142;-0.1139;-0.0346;0.0173
0000202736;6.1268;-5.6982;-10.2807;-0.0981;-0.0290;0.0131
0000202744;6.2513;-5.5785;-10.3094;-0.0870;-0.0225;0.0179
0000202752;6.2058;-5.4444;-10.1754;-0.0735;-0.0285;0.0121
0000202760;6.2010;-5.5952;-10.2472;-0.0502;-0.0325;-0.0065
0000202768;6.2968;-5.5378;-10.4004;-0.0536;-0.0181;-0.0108
0000202776;6.1962;-5.5641;-10.4244;-0.0600;-0.0125;-0.0156
0000202844;6.1986;-5.4827;-10.4459;-0.0434;-0.0381;-0.0257
0000202852;6.2010;-5.5043;-10.3070;-0.0337;-0.0366;-0.0208
0000202860;6.2249;-5.3989;-10.2568;-0.0252;-0.0313;-0.0199
0000202868;6.0861;-5.5402;-10.3669;-0.0209;-0.0244;-0.0161
0000202876;6.4739;-5.4372;-10.3166;-0.0104;-0.0175;-0.0116
0000202884;6.3829;-5.4300;-10.3358;-0.0109;-0.0180;-0.0084
0000202892;6.2704;-5.5617;-10.3094;-0.0025;-0.0204;-0.0069
0000202900;6.4763;-5.5258;-10.3094;-0.0063;-0.0181;-0.0039
0000202908;6.4260;-5.6599;-10.3956;-0.0087;-0.0216;-0.0049
0000202916;6.5218;-5.4923;-10.4052;-0.0124;-0.0310;-0.0123
0000202924;6.4979;-5.6934;-10.4124;-0.0063;-0.0414;-0.0200
0000202932;6.2848;-5.6551;-10.3837;-0.0005;-0.0446;-0.0282
0000202940;6.3901;-5.6383;-10.2496;0.0035;-0.0389;-0.0317
0000202948;6.2560;-5.6240;-10.3717;0.0024;-0.0268;-0.0298
0000202956;6.1651;-5.7293;-10.3477;0.0100;-0.0260;-0.0304
0000202964;6.1890;-5.8586;-10.3837;0.0147;-0.0270;-0.0270
0000202972;6.1675;-5.5426;-10.2711;0.0128;-0.0117;-0.0157
0000202980;6.2058;-5.6671;-10.2927;0.0125;-0.0128;-0.0140
0000202988;6.3279;-5.6479;-10.2951;0.0197;-0.0244;-0.0163
0000202996;6.3925;-5.6096;-10.4172;0.0165;-0.0248;-0.0112
0000203004;6.3734;-5.6144;-10.5034;0.0088;-0.0225;-0.0127
0000203012;6.3351;-5.6168;-10.5105;0.0115;-0.0313;-0.0201
0000203020;6.5098;-5.6551;-10.4315;0.0067;-0.0394;-0.0195
0000203028;6.4165;-5.5881;-10.4315;0.0061;-0.0436;-0.0123
0000203036;6.6391;-5.5474;-10.4124;-0.0007;-0.0401;-0.0068
0000203044;6.5410;-5.5737;-10.4148;0.0103;-0.0473;-0.0113
0000203052;6.3422;-5.6048;-10.3669;0.0140;-0.0429;-0.0043
0000203060;6.4045;-5.6551;-10.4531;0.0180;-0.0473;-0.0096
0000203068;6.2680;-5.6862;-10.3573;0.0161;-0.0445;-0.0067
0000203076;6.1938;-5.7437;-10.3334;0.0097;-0.0378;-0.0024
0000203084;6.3853;-5.6431;-10.3142;0.0075;-0.0433;-0.0044
0000203092;6.2441;-5.5952;-10.4363;0.0171;-0.0505;-0.0051
0000203100;6.3135;-5.6240;-10.3501;0.0200;-0.0429;-0.0012
0000203108;6.4979;-5.5976;-10.3980;0.0288;-0.0396;0.0012
0000203116;6.2704;-5.7221;-10.3430;0.0386;-0.0446;-0.0044
0000203124;6.3063;-5.6862;-10.3908;0.0368;-0.0506;-0.0065
0000203132;6.3159;-5.6264;-10.4651;0.0348;-0.0444;-0.0025
0000203140;6.2489;-5.6048;-10.4363;0.0333;-0.0402;0.0000
0000203148;6.0693;-5.8897;-10.3286;0.0349;-0.0420;-0.0020
0000203156;6.3015;-5.4348;-10.4220;0.0314;-0.0344;0.0057
0000203164;6.0980;-5.7581;-10.2903;0.0356;-0.0356;-0.0007
0000203172;6.2106;-5.5809;-10.3813;0.0390;-0.0316;0.0011
0000203180;6.2177;-5.6455;-10.4483;0.0466;-0.0354;0.0039
0000203188;6.3063;-5.5258;-10.3477;0.0666;-0.0393;-0.0015
0000203196;6.0501;-5.6838;-10.4028;0.0763;-0.0369;0.0025
0000203204;6.2130;-5.5737;-10.3621;0.0902;-0.0382;0.0000
0000203212;6.1579;-5.6695;-10.3741;0.1057;-0.0406;-0.0064
0000203220;6.2201;-5.7245;-10.4531;0.1098;-0.0408;0.0008
0000203228;6.3470;-5.4444;-10.4698;0.1182;-0.0457;-0.0064
0000203236;6.0286;-5.8083;-10.4483;0.1184;-0.0386;-0.0029
0000203244;6.1411;-5.6910;-10.4196;0.1168;-0.0369;-0.0047
0000203252;5.9065;-5.8227;-10.3621;0.1190;-0.0334;-0.0031
0000203260;6.0908;-5.7269;-10.2903;0.1184;-0.0148;0.0067
0000203268;5.9496;-5.7293;-10.2759;0.1147;-0.0077;0.0040
0000203276;5.9089;-5.7533;-10.1993;0.1228;0.0044;0.0019
0000203284;6.1579;-5.5689;-10.1778;0.1287;0.0208;-0.0072
0000203292;6.0238;-5.8131;-9.9838;0.1396;0.0394;-0.0076
0000203300;6.0478;-5.6695;-9.9719;0.1515;0.0502;-0.0195
0000203308;6.0430;-5.6767;-9.9838;0.1609;0.0605;-0.0176
0000203316;6.1818;-5.7652;-10.0030;0.1636;0.0746;-0.0192
0000203324;6.1459;-5.7964;-9.9766;0.1717;0.0822;-0.0216
0000203332;6.2321;-5.8778;-9.9742;0.1772;0.0841;-0.0294
0000203340;6.4212;-5.8490;-9.9886;0.1849;0.0771;-0.0332
0000203348;6.5410;-5.8730;-10.0556;0.1760;0.0761;-0.0292
0000203356;6.4189;-5.9328;-10.1251;0.1789;0.0585;-0.0345
0000203364;6.6607;-5.8706;-10.2592;0.1671;0.0576;-0.0301
0000203372;6.5386;-5.8802;-10.2711;0.1492;0.0540;-0.0314
0000203380;6.6008;-5.8730;-10.3860;0.1371;0.0466;-0.0321
0000203388;6.4476;-6.0478;-10.4627;0.1238;0.0418;-0.0345
0000203396;6.4476;-6.0406;-10.4770;0.1116;0.0426;-0.0428
0000203464;6.5338;-6.1531;-10.3741;0.0537;0.0147;-0.0168
0000203473;6.6415;-6.0478;-10.3286;0.0521;0.0191;-0.0119
0000203482;6.5936;-6.1100;-10.4387;0.0609;0.0075;-0.0153
0000203491;6.6511;-6.1507;-10.4196;0.0601;0.0059;-0.0151
0000203500;6.7421;-5.9831;-10.4866;0.0518;0.0037;-0.0208
0000203509;6.6008;-6.1148;-10.6063;0.0406;0.0105;-0.0221
0000203518;6.4979;-6.2560;-10.4986;0.0258;0.0023;-0.0317
0000203527;6.4404;-6.1268;-10.5249;0.0075;0.0088;-0.0258
0000203536;6.6559;-5.9951;-10.4148;0.0040;-0.0027;-0.0360
0000203545;6.4811;-6.2153;-10.3406;0.0029;0.0065;-0.0297
0000203554;6.4572;-6.0430;-10.3549;0.0261;0.0099;-0.0324
0000203563;6.3973;-6.2417;-10.4675;0.0377;0.0153;-0.0297
0000203572;6.5434;-6.1507;-10.4722;0.0436;0.0160;-0.0220
0000203581;6.5314;-6.1603;-10.3621;0.0506;0.0109;-0.0184
0000203590;6.6056;-6.1986;-10.2592;0.0541;-0.0037;-0.0180
0000203599;6.5362;-6.1339;-10.1849;0.0521;-0.0033;-0.0100
0000203608;6.5434;-6.1316;-10.4172;0.0608;-0.0093;-0.0095
0000203617;6.5050;-6.1603;-10.5752;0.0593;-0.0097;-0.0072
0000203626;6.3997;-6.1555;-10.5225;0.0538;-0.0187;-0.0168
0000203635;6.4739;-6.2417;-10.6422;0.0396;-0.0220;-0.0177
0000203644;6.5841;-6.1675;-10.4962;0.0228;-0.0272;-0.0248
0000203653;6.5481;-6.1651;-10.5034;0.0032;-0.0264;-0.0324
0000203662;6.6008;-6.1387;-10.4794;-0.0053;-0.0269;-0.0325
0000203671;6.5817;-5.9424;-10.5441;-0.0052;-0.0344;-0.0412
0000203680;6.4596;-6.0741;-10.5153;-0.0068;-0.0252;-0.0306
0000203689;6.4212;-6.1244;-10.5058;0.0027;-0.0236;-0.0316
0000203698;6.5027;-6.1196;-10.4291;0.0036;-0.0157;-0.0285
0000203707;6.5242;-5.9807;-10.4914;0.0173;-0.0232;-0.0286
0000203716;6.3422;-6.2537;-10.3860;0.0168;-0.0156;-0.0249
0000203725;6.5242;-6.0118;-10.3214;0.0212;-0.0185;-0.0282
0000203734;6.4500;-6.1124;-10.3214;0.0215;-0.0148;-0.0229
0000203743;6.6056;-6.0861;-10.4555;0.0224;-0.0173;-0.0286
0000203752;6.5936;-6.1890;-10.5058;0.0292;-0.0226;-0.0310
0000203761;6.5697;-6.1339;-10.5058;0.0254;-0.0085;-0.0244
0000203770;6.3542;-6.3327;-10.5632;0.0256;-0.0145;-0.0340
0000203779;6.5721;-6.1316;-10.4483;0.0160;-0.0072;-0.0270
0000203788;6.5601;-6.2465;-10.4627;0.0143;-0.0097;-0.0233
0000203797;6.4596;-6.1794;-10.4698;0.0155;-0.0147;-0.0253
0000203806;6.6702;-6.1531;-10.4267;0.0127;-0.0156;-0.0213
0000203815;6.7253;-6.0549;-10.4507;0.0119;-0.0155;-0.0121
0000203824;6.7205;-6.0645;-10.4866;0.0093;-0.0132;-0.0116
0000203833;6.5697;-6.1627;-10.4124;0.0079;-0.0123;-0.0063
0000203842;6.7373;-6.0382;-10.3717;0.0073;-0.0107;-0.0084
0000203851;6.6104;-6.2225;-10.4315;0.0029;-0.0139;-0.0067
0000203860;6.7086;-6.0286;-10.4483;0.0097;-0.0128;-0.0119
0000203869;6.5194;-6.1746;-10.4483;0.0069;-0.0133;-0.0124
0000203878;6.5386;-6.2608;-10.4100;-0.0007;-0.0120;-0.0093
0000203887;6.6319;-6.1818;-10.4124;0.0041;-0.0129;-0.0083
0000203896;6.5625;-6.2537;-10.4866;-0.0001;-0.0117;-0.0071
0000203905;6.5362;-6.2776;-10.4291;0.0025;-0.0169;-0.0155
0000203914;6.5529;-6.2201;-10.3860;-0.0016;-0.0100;-0.0124
0000203923;6.4907;-6.3829;-10.3908;0.0008;-0.0132;-0.0127
0000203932;6.5050;-6.2417;-10.4435;0.0032;-0.0157;-0.0156
0000203941;6.6056;-6.0741;-10.5441;0.0025;-0.0105;-0.0109
0000203950;6.5625;-6.2249;-10.4579;0.0117;-0.0189;-0.0161
0000203959;6.6056;-6.1986;-10.4363;-0.0012;-0.0103;-0.0080
0000203968;6.4715;-6.3542;-10.3693;0.0036;-0.0221;-0.0173
0000203977;6.4691;-6.3997;-10.4148;0.0073;-0.0305;-0.0175
0000203986;6.5027;-6.2489;-10.5153;0.0036;-0.0244;-0.0125
0000203995;6.3758;-6.3518;-10.5201;0.0063;-0.0321;-0.0173
0000204004;6.6726;-6.2201;-10.5656;0.0055;-0.0320;-0.0155
0000204013;6.5625;-6.1794;-10.5129;-0.0087;-0.0253;-0.0093
0000204022;6.5912;-6.1675;-10.5153;-0.0193;-0.0265;-0.0067
0000204031;6.5888;-6.1148;-10.4148;-0.0229;-0.0334;-0.0080
0000204040;6.3686;-6.2441;-10.3693;-0.0300;-0.0257;-0.0039
0000204049;6.3829;-6.1555;-10.2663;-0.0107;-0.0276;-0.0056
0000204058;6.6367;-6.0861;-10.3573;0.0036;-0.0143;0.0003
0000204067;6.7349;-6.0262;-10.4866;0.0269;-0.0197;-0.0111
0000204076;6.4739;-6.2130;-10.4603;0.0195;-0.0029;-0.0015
0000204144;6.6702;-6.1603;-10.4531;0.0035;-0.0329;-0.0213
0000204153;6.4883;-6.3470;-10.3693;-0.0069;-0.0324;-0.0179
0000204162;6.6631;-6.1292;-10.4028;-0.0107;-0.0286;-0.0139
0000204171;6.5745;-6.2321;-10.4651;-0.0067;-0.0285;-0.0167
0000204180;6.7086;-6.2249;-10.4339;-0.0013;-0.0374;-0.0211
0000204189;6.4907;-6.1076;-10.4028;-0.0021;-0.0310;-0.0124
0000204198;6.7014;-6.2704;-10.4267;-0.0011;-0.0294;-0.0132
0000204207;6.6726;-6.1555;-10.3860;-0.0004;-0.0334;-0.0112
0000204216;6.5362;-6.2201;-10.3573;-0.0001;-0.0282;-0.0135
0000204225;6.6319;-6.1962;-10.5249;-0.0040;-0.0241;-0.0039
0000204234;6.5649;-6.2489;-10.4052;-0.0001;-0.0250;-0.0105
0000204243;6.8139;-6.2417;-10.4387;0.0087;-0.0213;-0.0100
0000204252;6.6224;-6.2082;-10.3406;0.0095;-0.0161;-0.0068
0000204261;6.6798;-6.2489;-10.4698;0.0164;-0.0240;-0.0161
0000204270;6.5027;-6.3135;-10.4938;0.0093;-0.0230;-0.0099
0000204279;6.4955;-6.2800;-10.4052;0.0012;-0.0237;-0.0107
0000204288;6.8067;-6.0765;-10.4579;-0.0029;-0.0280;-0.0112
0000204297;6.7349;-6.0956;-10.4387;-0.0096;-0.0265;-0.0103
0000204306;6.5888;-6.2465;-10.4435;-0.0099;-0.0322;-0.0096
0000204315;6.7109;-6.1387;-10.4722;-0.0037;-0.0264;-0.0081
0000204324;6.4715;-6.2991;-10.4675;-0.0016;-0.0357;-0.0116
0000204333;6.6990;-6.1723;-10.4651;-0.0025;-0.0322;-0.0121
0000204342;6.5960;-6.1890;-10.4076;-0.0059;-0.0401;-0.0147
0000204351;6.4931;-6.2872;-10.4842;-0.0085;-0.0334;-0.0096
0000204360;6.4979;-6.2465;-10.3789;-0.0036;-0.0333;-0.0139
0000204369;6.4979;-6.2082;-10.3908;-0.0119;-0.0272;-0.0084
0000204378;6.3494;-6.3901;-10.4196;-0.0059;-0.0353;-0.0115
0000204387;6.5601;-6.2082;-10.4459;-0.0108;-0.0213;-0.0095
0000204396;6.4596;-6.4380;-10.4866;-0.0109;-0.0217;-0.0095
0000204405;6.4667;-6.4069;-10.3956;-0.0147;-0.0254;-0.0141
0000204414;6.6224;-6.1866;-10.4698;-0.0128;-0.0197;-0.0077
0000204423;6.6487;-6.2369;-10.4459;-0.0108;-0.0203;-0.0133
0000204432;6.5434;-6.3398;-10.3645;-0.0120;-0.0187;-0.0089
0000204441;6.7947;-6.1339;-10.3908;-0.0081;-0.0277;-0.0171
0000204450;6.7516;-6.1842;-10.3717;-0.0136;-0.0237;-0.0120
0000204459;6.5793;-6.2896;-10.3477;-0.0035;-0.0341;-0.0197
0000204468;6.6295;-6.3494;-10.4028;-0.0059;-0.0226;-0.0137
0000204477;6.5817;-6.2608;-10.4315;-0.0007;-0.0290;-0.0192
0000204486;6.5984;-6.3614;-10.4291;-0.0017;-0.0341;-0.0157
0000204495;6.6487;-6.2369;-10.3884;0.0055;-0.0416;-0.0224
0000204504;6.8402;-6.1387;-10.4411;-0.0047;-0.0334;-0.0183
0000204513;6.5841;-6.2824;-10.5201;-0.0116;-0.0342;-0.0128
0000204522;6.6272;-6.1986;-10.5297;-0.0131;-0.0342;-0.0137
0000204531;6.5697;-6.2273;-10.6231;-0.0302;-0.0253;-0.0039
0000204540;6.5242;-6.2465;-10.4028;-0.0364;-0.0296;-0.0021
0000204549;6.3231;-6.4763;-10.4052;-0.0389;-0.0292;-0.0060
0000204558;6.5218;-6.2249;-10.2783;-0.0226;-0.0297;-0.0072
0000204567;6.7828;-6.0597;-10.3070;-0.0073;-0.0212;-0.0053
0000204576;6.6607;-6.1866;-10.3597;0.0183;-0.0193;-0.0109
0000204585;6.5745;-6.2465;-10.4818;0.0161;-0.0104;-0.0056
0000204594;6.5242;-6.2920;-10.5249;0.0077;-0.0193;-0.0107
0000204603;6.5769;-6.2608;-10.4076;-0.0117;-0.0200;-0.0016
0000204612;6.5912;-6.2513;-10.3621;-0.0093;-0.0306;-0.0148
0000204621;6.7588;-6.0621;-10.3214;0.0017;-0.0229;-0.0139
0000204630;6.7516;-6.1986;-10.4698;0.0081;-0.0179;-0.0121
0000204639;6.7780;-6.1794;-10.4746;0.0099;-0.0254;-0.0148
0000204648;6.6750;-6.2920;-10.3956;0.0085;-0.0397;-0.0216
0000204657;6.6679;-6.3638;-10.4507;-0.0133;-0.0341;-0.0145
0000204666;6.5003;-6.3279;-10.3741;-0.0161;-0.0381;-0.0217
0000204675;6.7133;-6.2560;-10.3908;-0.0209;-0.0312;-0.0113
0000204684;6.4763;-6.3422;-10.4675;-0.0157;-0.0321;-0.0159
0000204693;6.6798;-6.2249;-10.4124;-0.0027;-0.0337;-0.0137
0000204702;6.5505;-6.4117;-10.3908;0.0028;-0.0344;-0.0187
0000204711;6.7325;-6.2153;-10.3908;-0.0089;-0.0314;-0.0091
0000204720;6.6679;-6.2632;-10.4770;-0.0139;-0.0340;-0.0179
0000204729;6.5218;-6.4093;-10.5273;-0.0207;-0.0420;-0.0160
0000204738;6.7349;-6.3255;-10.3956;-0.0294;-0.0281;-0.0081
0000204747;6.4643;-6.3686;-10.4315;-0.0233;-0.0354;-0.0084
0000204756;6.6032;-6.1052;-10.4483;-0.0211;-0.0292;-0.0111
0000204865;6.6200;-6.1914;-10.3884;-0.0396;-0.0350;-0.0151
0000204874;6.7301;-6.1316;-10.4603;-0.0449;-0.0320;-0.0137
0000204883;6.6918;-6.1220;-10.4459;-0.0456;-0.0296;-0.0115
0000204892;6.5625;-6.1890;-10.4555;-0.0438;-0.0360;-0.0175
0000204901;6.5362;-6.3231;-10.3765;-0.0494;-0.0310;-0.0135
0000204910;6.6104;-6.2082;-10.4052;-0.0446;-0.0329;-0.0129
0000204919;6.6152;-6.1794;-10.3621;-0.0473;-0.0366;-0.0172
0000204928;6.4691;-6.2800;-10.3908;-0.0440;-0.0312;-0.0136
0000204937;6.5290;-6.2130;-10.4076;-0.0432;-0.0345;-0.0225
0000204946;6.5841;-6.2321;-10.4148;-0.0466;-0.0314;-0.0176
0000204955;6.5960;-6.1770;-10.4148;-0.0425;-0.0390;-0.0241
0000204964;6.4883;-6.2465;-10.4579;-0.0478;-0.0300;-0.0188
0000204973;6.5793;-6.2800;-10.3884;-0.0441;-0.0398;-0.0230
0000204982;6.6726;-6.1028;-10.4291;-0.0444;-0.0393;-0.0193
0000204991;6.5170;-6.2704;-10.3717;-0.0438;-0.0406;-0.0179
0000205000;6.6272;-6.1675;-10.4220;-0.0408;-0.0453;-0.0268
0000205009;6.7756;-6.0956;-10.4339;-0.0394;-0.0429;-0.0201
0000205018;6.6966;-6.1818;-10.4267;-0.0441;-0.0424;-0.0180
0000205027;6.6032;-6.2321;-10.5225;-0.0566;-0.0377;-0.0147
0000205036;6.5649;-6.3279;-10.4890;-0.0617;-0.0416;-0.0155
0000205045;6.5362;-6.2034;-10.3765;-0.0721;-0.0372;-0.0081
0000205054;6.7014;-6.0789;-10.3238;-0.0638;-0.0376;-0.0095
0000205063;6.7373;-6.0382;-10.2568;-0.0510;-0.0284;-0.0097
0000205072;6.5170;-6.2560;-10.2711;-0.0262;-0.0313;-0.0143
0000205081;6.5050;-6.1890;-10.4028;-0.0177;-0.0221;-0.0071
0000205090;6.3782;-6.3159;-10.4675;-0.0143;-0.0233;-0.0111
0000205099;6.5841;-6.1244;-10.4028;-0.0340;-0.0230;-0.0059
0000205108;6.5912;-6.2225;-10.2999;-0.0369;-0.0321;-0.0076
0000205117;6.5936;-6.1244;-10.3621;-0.0377;-0.0308;-0.0049
0000205126;6.7229;-6.1220;-10.5058;-0.0256;-0.0329;-0.0131
0000205135;6.6343;-6.1220;-10.4196;-0.0274;-0.0313;-0.0120
0000205144;6.6319;-6.2010;-10.4076;-0.0314;-0.0409;-0.0225
0000205153;6.8235;-6.0454;-10.4315;-0.0437;-0.0462;-0.0167
0000205162;6.5505;-6.0932;-10.3956;-0.0489;-0.0520;-0.0221
0000205171;6.6295;-6.0693;-10.3980;-0.0469;-0.0529;-0.0218
0000205180;6.5721;-6.1651;-10.3837;-0.0377;-0.0470;-0.0216
0000205189;6.5577;-6.2058;-10.4531;-0.0258;-0.0393;-0.0180
0000205198;6.5529;-6.3087;-10.4363;-0.0215;-0.0454;-0.0168
0000205207;6.5745;-6.1699;-10.4411;-0.0294;-0.0432;-0.0112
0000205216;6.4883;-6.2513;-10.4627;-0.0484;-0.0405;-0.0085
0000205225;6.5793;-6.1507;-10.4555;-0.0514;-0.0456;-0.0100
0000205234;6.5290;-6.1100;-10.4315;-0.0606;-0.0458;0.0023
0000205243;6.5625;-6.2752;-10.3884;-0.0566;-0.0501;-0.0015
0000205252;6.6511;-6.0047;-10.3645;-0.0402;-0.0446;-0.0068
0000205261;6.3925;-6.2991;-10.3406;-0.0328;-0.0302;0.0013
0000205270;6.7181;-6.1339;-10.4555;-0.0208;-0.0249;-0.0007
0000205279;6.5936;-6.1196;-10.4459;-0.0211;-0.0195;-0.0039
0000205288;6.7229;-6.0956;-10.3884;-0.0242;-0.0237;-0.0140
0000205297;6.7588;-6.0597;-10.4675;-0.0330;-0.0293;-0.0192
0000205306;6.7540;-5.9903;-10.4914;-0.0534;-0.0261;-0.0196
0000205315;6.6367;-6.1411;-10.3908;-0.0486;-0.0446;-0.0300
0000205324;6.7971;-5.9089;-10.4483;-0.0544;-0.0304;-0.0228
0000205333;6.5673;-5.9328;-10.4555;-0.0414;-0.0346;-0.0208
0000205342;6.7780;-5.9735;-10.4675;-0.0252;-0.0468;-0.0241
0000205351;6.6679;-6.0885;-10.4004;-0.0274;-0.0324;-0.0155
0000205360;6.4907;-6.1962;-10.4627;-0.0282;-0.0280;-0.0120
0000205369;6.4380;-6.0813;-10.3860;-0.0393;-0.0257;-0.0097
0000205378;6.4931;-6.0956;-10.5153;-0.0366;-0.0273;-0.0115
0000205387;6.4643;-6.1483;-10.4196;-0.0464;-0.0207;-0.0049
0000205396;6.6607;-6.1124;-10.4148;-0.0477;-0.0203;-0.0107
0000205405;6.6200;-6.2680;-10.3046;-0.0485;-0.0153;-0.0064
0000205414;6.5577;-6.2489;-10.3142;-0.0457;-0.0238;-0.0179
0000205423;6.6750;-6.2417;-10.3238;-0.0480;-0.0184;-0.0145
0000205432;6.7876;-6.0142;-10.3621;-0.0466;-0.0193;-0.0149
0000205441;6.7900;-6.0286;-10.2855;-0.0381;-0.0337;-0.0199
0000205450;6.4620;-6.1507;-10.3190;-0.0440;-0.0278;-0.0140
0000205459;6.5170;-6.0334;-10.3406;-0.0350;-0.0330;-0.0161
0000205468;6.7253;-6.0310;-10.4220;-0.0306;-0.0374;-0.0201
0000205534;6.4643;-6.1052;-10.4387;-0.0529;-0.0340;-0.0097
0000205543;6.4141;-6.1411;-10.3908;-0.0581;-0.0386;-0.0088
0000205552;6.6176;-5.9855;-10.3789;-0.0574;-0.0325;0.0001
0000205561;6.5864;-5.9017;-10.2783;-0.0430;-0.0410;-0.0063
0000205570;6.6439;-5.9951;-10.3238;-0.0217;-0.0274;-0.0032
0000205579;6.7301;-5.8251;-10.3430;-0.0091;-0.0328;-0.0071
0000205588;6.6702;-5.8945;-10.4172;-0.0043;-0.0236;-0.0052
0000205597;6.2896;-6.1938;-10.3549;-0.0213;-0.0230;-0.0021
0000205606;6.5170;-6.1603;-10.3430;-0.0268;-0.0329;-0.0027
0000205615;6.5505;-6.1866;-10.2999;-0.0289;-0.0310;-0.0039
0000205624;6.5841;-6.0573;-10.3884;-0.0087;-0.0406;-0.0128
0000205633;6.7516;-5.8802;-10.4052;-0.0059;-0.0400;-0.0156
0000205642;6.6798;-6.0262;-10.4315;-0.0060;-0.0418;-0.0135
0000205651;6.7277;-6.0525;-10.4770;-0.0076;-0.0480;-0.0165
0000205660;6.6128;-6.0358;-10.3406;-0.0196;-0.0429;-0.0121
0000205669;6.6295;-5.9616;-10.4579;-0.0203;-0.0485;-0.0209
0000205678;6.7133;-6.0741;-10.3765;-0.0192;-0.0461;-0.0153
0000205687;6.6343;-6.0765;-10.3741;-0.0161;-0.0448;-0.0164
0000205696;6.5098;-6.1316;-10.3310;-0.0169;-0.0412;-0.0108
0000205705;6.4811;-6.2034;-10.3334;-0.0152;-0.0349;-0.0053
0000205714;6.4380;-6.2656;-10.3837;-0.0209;-0.0373;-0.0059
0000205723;6.4524;-6.0885;-10.4148;-0.0250;-0.0308;-0.0015
0000205732;6.6798;-5.9783;-10.3142;-0.0169;-0.0330;-0.0071
0000205741;6.6032;-6.0501;-10.3358;-0.0156;-0.0260;-0.0067
0000205750;6.4739;-6.1316;-10.3573;-0.0040;-0.0354;-0.0105
0000205759;6.5888;-6.1052;-10.4244;-0.0019;-0.0293;-0.0053
0000205768;6.5170;-6.0071;-10.2232;0.0060;-0.0313;-0.0149
0000205777;6.5817;-6.1004;-10.2999;0.0012;-0.0228;-0.0084
0000205786;6.6008;-6.0501;-10.4028;0.0015;-0.0286;-0.0156
0000205795;6.6942;-6.0430;-10.4483;-0.0041;-0.0248;-0.0136
0000205804;6.4643;-6.0047;-10.3382;-0.0019;-0.0312;-0.0119
0000205813;6.5577;-5.9951;-10.2927;0.0011;-0.0265;-0.0115
0000205822;6.6942;-5.9113;-10.3382;0.0143;-0.0278;-0.0149
0000205830;6.5936;-6.1124;-10.3573;0.0188;-0.0298;-0.0173
0000205839;6.4643;-5.9903;-10.3358;0.0228;-0.0294;-0.0156
0000205847;6.5242;-6.0717;-10.3860;0.0207;-0.0246;-0.0116
0000205856;6.7612;-5.9568;-10.4459;0.0155;-0.0324;-0.0169
0000205865;6.8235;-5.8873;-10.4627;0.0053;-0.0268;-0.0127
0000205874;6.6918;-5.9879;-10.3980;-0.0020;-0.0278;-0.0125
0000205883;6.5218;-6.0406;-10.4818;-0.0045;-0.0277;-0.0056
0000205892;6.4236;-6.1459;-10.3142;-0.0016;-0.0261;-0.0064
0000205901;6.4643;-6.1363;-10.3573;-0.0007;-0.0250;-0.0124
0000205910;6.6726;-6.0525;-10.4459;0.0021;-0.0216;-0.0075
0000205919;6.4907;-6.0262;-10.3621;0.0051;-0.0228;-0.0136
