time;acc_x;acc_y;acc_z;gyro_x;gyro_y;gyro_z
0000303248;4.9081;2.8635;-2.2218;-0.0252;-0.3393;-0.0763
0000303257;4.9536;2.9521;-2.2338;-0.0481;-0.3208;-0.0626
0000303265;4.8339;2.9090;-2.1021;-0.0517;-0.3150;-0.0644
0000303273;4.7932;2.8994;-2.2458;-0.0616;-0.2998;-0.0628
0000303282;4.9656;3.0957;-2.2889;-0.0512;-0.2939;-0.0650
0000303290;4.9823;3.0430;-2.1093;-0.0494;-0.2805;-0.0608
0000303301;5.1116;3.0742;-2.1332;-0.0288;-0.2729;-0.0646
0000303309;4.6711;2.7557;-2.0877;-0.0326;-0.2578;-0.0545
0000303317;4.8626;2.8515;-1.9920;-0.0352;-0.2462;-0.0578
0000303370;4.7932;3.0981;-1.9728;-0.0694;-0.1970;-0.0654
0000303378;4.7166;2.9090;-2.0566;-0.0552;-0.1924;-0.0721
0000303389;4.8507;3.0646;-2.0183;-0.0326;-0.1944;-0.0774
0000303397;4.9704;3.2178;-2.0446;-0.0256;-0.1804;-0.0725
0000303408;4.9584;3.0430;-2.0782;-0.0193;-0.1745;-0.0553
0000303416;4.8267;2.9305;-2.0518;-0.0104;-0.1748;-0.0582
0000303427;4.8387;2.8347;-2.1237;-0.0100;-0.1687;-0.0450
0000303435;4.8004;2.9880;-2.1979;0.0009;-0.1740;-0.0444
0000303446;4.9153;2.8970;-2.2266;0.0069;-0.1808;-0.0454
0000303454;4.9823;3.0047;-2.3152;0.0052;-0.1876;-0.0482
0000303462;5.0901;3.0047;-2.3487;0.0077;-0.1958;-0.0568
0000303473;5.0374;2.8467;-2.4876;0.0061;-0.2312;-0.0629
0000303481;5.0374;3.0430;-2.4301;0.0093;-0.2434;-0.0517
0000303492;5.2002;3.0502;-2.2122;0.0008;-0.2502;-0.0485
0000303500;5.1164;2.8419;-2.1979;-0.0096;-0.2559;-0.0426
0000303511;5.0015;2.9233;-2.2697;-0.0108;-0.2554;-0.0473
0000303519;5.1739;3.1556;-2.1524;-0.0128;-0.2585;-0.0521
0000303530;4.9368;2.8491;-2.1141;-0.0148;-0.2697;-0.0683
0000303538;4.7166;2.9497;-2.0973;-0.0085;-0.2774;-0.0777
0000303546;4.8219;2.7725;-2.0542;-0.0099;-0.2719;-0.0794
0000303557;4.7549;2.7773;-2.1237;-0.0057;-0.2690;-0.0902
0000303565;4.5681;2.7677;-2.2027;0.0092;-0.2755;-0.1077
0000303618;4.8794;3.0526;-2.3774;-0.0205;-0.2842;-0.1199
0000303626;5.1332;3.1412;-2.2601;-0.0103;-0.2867;-0.1203
0000303637;5.0973;3.0502;-2.1859;0.0179;-0.3271;-0.1355
0000303645;5.2792;3.1436;-2.3415;0.0393;-0.3412;-0.1450
0000303656;5.3606;3.2848;-2.2721;0.0640;-0.3796;-0.1612
0000303664;5.1882;3.1364;-2.3080;0.0742;-0.3929;-0.1613
0000303675;4.8219;2.8276;-2.2482;0.0722;-0.4137;-0.1691
0000303683;4.7142;2.6336;-2.2841;0.0763;-0.4271;-0.1673
0000303691;4.5945;2.5762;-2.1955;0.0584;-0.4318;-0.1539
0000303702;4.4580;2.5809;-2.0901;0.0313;-0.4402;-0.1279
0000303710;4.1851;2.6121;-2.0159;0.0199;-0.4461;-0.1063
0000303721;4.4269;2.7725;-1.9393;0.0143;-0.4509;-0.0655
0000303729;4.4796;2.9233;-1.8364;0.0155;-0.4555;-0.0470
0000303740;4.7788;3.1723;-1.8555;0.0358;-0.4642;-0.0346
0000303748;4.9297;3.2010;-2.0039;0.0578;-0.4843;-0.0474
0000303759;4.9560;3.1029;-2.0853;0.0859;-0.5137;-0.0762
0000303767;4.9177;3.1627;-2.1620;0.0879;-0.5277;-0.0961
0000303775;4.8578;3.0358;-2.0399;0.0879;-0.5553;-0.1128
0000303786;4.8554;3.0167;-1.9321;0.0685;-0.5661;-0.1062
0000303794;4.7573;3.1125;-1.7837;0.0625;-0.5868;-0.0987
0000303805;4.9153;2.9760;-1.8052;0.0557;-0.6094;-0.0673
0000303813;4.9177;2.8946;-1.7717;0.0777;-0.6406;-0.0553
0000303866;4.7501;2.0327;-2.1715;-0.0137;-0.8471;0.0790
0000303874;4.4819;1.8699;-2.1093;-0.0534;-0.8887;0.1123
0000303885;4.5562;2.0997;-2.0399;-0.1049;-0.9304;0.1487
0000303893;4.7740;2.2218;-1.9992;-0.1272;-0.9677;0.1573
0000303901;4.5179;2.1955;-2.0614;-0.1404;-0.9955;0.1655
0000303912;4.3455;2.3990;-1.8723;-0.1613;-1.0311;0.1712
0000303920;4.4819;2.6073;-1.9201;-0.1749;-1.0616;0.1668
0000303931;4.5179;2.7078;-1.7478;-0.1868;-1.0789;0.1799
0000303939;4.5825;2.9951;-1.7861;-0.1809;-1.0981;0.1879
0000303950;4.4987;3.0885;-1.6257;-0.1579;-1.1185;0.2033
0000303958;4.1180;2.9473;-1.5467;-0.1238;-1.1393;0.2065
0000303969;4.4412;3.2561;-1.4006;-0.0633;-1.1656;0.2338
0000303977;4.3670;3.1963;-1.2761;-0.0125;-1.1891;0.2443
0000303985;4.2952;3.1771;-1.2594;0.0268;-1.1967;0.2599
0000303996;4.1587;2.9185;-1.3312;0.0786;-1.2139;0.2789
0000304004;4.1779;2.8778;-1.2953;0.0935;-1.2367;0.2946
0000304015;4.2689;2.9329;-1.2067;0.1014;-1.2537;0.3060
0000304023;4.2306;2.8252;-1.3168;0.0926;-1.2713;0.3102
0000304034;4.4939;2.8395;-1.3001;0.1027;-1.2766;0.3429
0000304042;4.3167;2.6145;-1.3336;0.1138;-1.2894;0.3750
0000304053;4.2329;2.7725;-1.1851;0.1195;-1.3158;0.4050
0000304061;4.2832;2.9401;-1.1684;0.1139;-1.3261;0.4238
0000304069;4.2114;2.9377;-1.1325;0.1195;-1.3420;0.4430
0000304122;4.2042;2.7485;-0.9912;0.1652;-1.4396;0.5580
0000304130;3.9600;2.6887;-1.0487;0.1400;-1.4601;0.5797
0000304141;3.8451;2.6432;-0.9361;0.1083;-1.4974;0.6117
0000304149;3.9648;2.5809;-0.8547;0.0967;-1.5148;0.6435
0000304160;4.3742;2.8706;-0.8667;0.1483;-1.5358;0.6912
0000304168;4.6136;3.2058;-1.2546;0.2277;-1.5410;0.7153
0000304176;4.9967;3.7134;-1.4940;0.3277;-1.5587;0.7076
0000304187;5.3319;4.3048;-1.6712;0.4034;-1.5412;0.6757
0000304195;5.6599;4.6112;-2.0135;0.4378;-1.5435;0.6326
0000304206;6.0023;4.8219;-2.5474;0.4607;-1.5896;0.5568
0000304214;6.1866;4.9847;-2.7605;0.4876;-1.6726;0.4863
0000304225;6.4093;4.9416;-2.7701;0.5300;-1.7653;0.3948
0000304233;6.4165;4.7094;-2.1979;0.5796;-1.8070;0.3547
0000304244;6.1268;4.2377;-1.3455;0.6579;-1.8082;0.3629
0000304252;5.6216;3.4979;-0.7757;0.7112;-1.7948;0.3944
0000304260;5.3917;3.0885;-0.6464;0.7572;-1.7455;0.4305
0000304271;4.8626;2.4397;-0.9409;0.7947;-1.6543;0.5049
0000304279;4.4317;1.9776;-1.3886;0.8022;-1.5853;0.5633
0000304290;3.9744;1.6759;-2.1284;0.7552;-1.4673;0.6031
0000304298;4.0318;1.5347;-2.4995;0.6969;-1.3652;0.6145
0000304309;4.2353;1.0487;-2.7581;0.6090;-1.2534;0.6209
0000304317;4.8483;1.1349;-2.9975;0.5399;-1.1678;0.6046
0000304325;5.4372;1.0487;-2.9880;0.4599;-1.0794;0.5738
0000304378;8.3893;3.9049;-1.4150;0.0396;-0.9864;0.2593
0000304386;8.2121;4.8076;-1.3408;-0.0401;-0.9858;0.2575
0000304397;7.6495;6.2920;-1.5203;-0.1086;-0.9655;0.2615
0000304405;6.8235;6.9336;-1.5874;-0.1107;-0.9554;0.2495
0000304416;5.7772;7.0701;-1.7023;0.0191;-0.8527;0.2269
0000304424;5.4540;6.9599;-1.3599;0.1643;-0.7754;0.2395
0000304435;5.2457;5.9376;-1.0678;0.3817;-0.6799;0.3028
0000304443;5.1164;4.9943;-1.1372;0.5427;-0.6231;0.3535
0000304451;5.5138;4.5250;-1.1085;0.6332;-0.5797;0.4061
0000304462;6.3734;3.5219;-1.4389;0.6943;-0.5403;0.4636
0000304470;6.5697;3.0718;-1.5826;0.6963;-0.5033;0.5073
0000304481;6.9001;2.3583;-1.8100;0.6623;-0.4820;0.5634
0000304489;7.3310;2.1572;-1.9058;0.6177;-0.4786;0.5895
0000304500;7.2784;1.8794;-2.0111;0.5333;-0.4810;0.6215
0000304508;7.3358;1.7813;-2.0830;0.4611;-0.4823;0.6404
0000304516;7.2784;1.8723;-2.1524;0.3890;-0.4818;0.6506
0000304527;7.0820;1.8603;-2.2889;0.2966;-0.4786;0.6472
0000304535;6.8738;1.8364;-2.3080;0.2330;-0.4862;0.6181
0000304546;6.8690;1.9201;-2.0446;0.1543;-0.4839;0.5632
0000304554;6.7828;1.9561;-1.8004;0.1035;-0.4840;0.5204
0000304608;6.9145;3.4860;-1.4772;0.3112;-0.4595;0.3381
0000304616;6.6008;3.1771;-1.3958;0.3158;-0.4545;0.3032
0000304627;6.3614;2.7318;-1.5347;0.3412;-0.4477;0.2220
0000304635;6.2848;2.6025;-1.9465;0.3636;-0.4092;0.1592
0000304643;6.2872;2.3655;-2.0662;0.3407;-0.3904;0.1136
0000304654;6.4524;2.1284;-2.1165;0.2502;-0.3742;0.0618
0000304662;6.7109;2.0662;-2.2601;0.1695;-0.3788;0.0201
0000304673;7.0820;2.4277;-2.4205;0.0790;-0.4028;-0.0462
0000304681;7.0102;2.4756;-2.2098;0.0274;-0.4382;-0.1057
0000304692;6.9719;2.4900;-1.9369;-0.0215;-0.4880;-0.1680
0000304700;7.1156;2.5379;-1.8603;-0.0381;-0.5141;-0.1964
0000304711;7.3502;2.7438;-1.5802;-0.0381;-0.5666;-0.2138
0000304719;7.0270;2.3894;-1.4054;-0.0261;-0.5970;-0.2254
0000304727;7.0773;2.2218;-1.3336;-0.0139;-0.6266;-0.2426
0000304738;7.0126;2.3511;-1.4293;-0.0401;-0.6354;-0.2673
0000304746;6.8833;2.3894;-1.5921;-0.0629;-0.6596;-0.3026
0000304757;6.4835;2.4995;-1.9417;-0.1142;-0.6799;-0.3493
0000304765;6.2225;2.5570;-2.2098;-0.1320;-0.6883;-0.4009
0000304776;5.7197;2.6480;-2.7126;-0.1432;-0.6945;-0.4606
0000304784;5.4324;2.8180;-2.9449;-0.1482;-0.7120;-0.5020
0000304795;5.1236;2.9688;-3.1460;-0.1553;-0.7032;-0.5113
0000304803;4.9440;3.0718;-3.3040;-0.1644;-0.6781;-0.4820
0000304811;5.0398;3.3567;-3.6966;-0.1816;-0.6187;-0.4262
0000304864;5.1715;2.8323;-3.8786;-0.3433;-0.4222;-0.1747
0000304872;5.3726;2.3966;-3.5650;-0.3431;-0.4608;-0.1553
0000304883;5.7078;1.8555;-3.1795;-0.3307;-0.4900;-0.1228
0000304891;5.8873;1.6712;-2.9880;-0.3100;-0.5165;-0.0945
0000304902;6.0358;1.5371;-2.9113;-0.2666;-0.5002;-0.0577
0000304910;5.7413;1.6975;-3.0765;-0.2280;-0.4778;-0.0478
0000304921;5.0470;2.0423;-3.3447;-0.2278;-0.4447;-0.0829
0000304929;4.4508;2.7916;-3.2322;-0.2926;-0.3653;-0.1090
0000304940;3.1508;3.3782;-3.2322;-0.4044;-0.2445;-0.1751
0000304948;2.5786;4.1300;-3.2729;-0.4652;-0.1387;-0.2312
0000304956;2.1237;4.9344;-3.2681;-0.4846;-0.0474;-0.3030
0000304967;1.9680;6.0238;-3.3016;-0.4537;0.0484;-0.3900
0000304975;2.1476;6.3111;-3.1819;-0.3673;0.0733;-0.4197
0000304986;3.3974;6.1268;-3.0167;-0.1568;0.0822;-0.4121
0000304994;4.3742;5.7724;-2.8228;0.0274;0.0679;-0.4139
0000305005;5.4468;4.9249;-2.7940;0.2943;0.0177;-0.4247
0000305013;5.8490;4.3455;-2.9066;0.4493;-0.0300;-0.4209
0000305024;6.2800;3.2801;-3.0311;0.5701;-0.0949;-0.3876
0000305032;6.6679;2.7581;-3.0167;0.5978;-0.1575;-0.3664
0000305040;6.5745;1.7837;-2.9712;0.5769;-0.2057;-0.3427
0000305051;6.3973;1.0846;-2.7797;0.4772;-0.2597;-0.3260
0000305059;6.1411;0.4669;-2.5043;0.3766;-0.2805;-0.3223
0000305112;3.4764;1.7861;-2.6935;-0.3023;-0.1244;-0.2160
0000305120;3.5937;2.2386;-2.6432;-0.2968;-0.0991;-0.1354
0000305131;3.9624;2.3200;-2.1284;-0.2376;-0.0481;-0.0225
0000305139;4.2210;2.5690;-1.7957;-0.1707;0.0047;0.0602
0000305150;4.9464;2.6647;-1.6735;-0.0661;0.0540;0.1459
0000305158;5.2241;2.8802;-1.7957;0.0097;0.0973;0.2026
0000305166;5.7700;2.9688;-1.9058;0.0725;0.1138;0.2364
0000305177;5.7700;2.8132;-2.0566;0.1220;0.1406;0.2515
0000305185;5.9664;2.4948;-2.0039;0.1235;0.1608;0.2443
0000305196;5.6431;2.4756;-1.8771;0.1034;0.1708;0.2033
0000305204;5.2122;2.3846;-1.9968;0.0570;0.1908;0.1655
0000305215;4.3383;2.5163;-1.9656;-0.0159;0.2395;0.1398
0000305223;4.0462;2.6025;-1.9345;-0.0581;0.2723;0.1263
0000305234;3.8188;2.9760;-1.9489;-0.0902;0.3455;0.1150
0000305242;3.7661;3.6703;-2.0806;-0.0922;0.4066;0.1240
0000305250;3.6966;4.2377;-2.4349;-0.0693;0.4439;0.1244
0000305261;3.6105;5.1619;-2.9521;0.0135;0.4507;0.0979
0000305269;3.6440;5.4971;-3.2729;0.1130;0.4438;0.0866
0000305280;4.3598;5.3319;-3.2226;0.2927;0.4052;0.0621
0000305288;4.9823;4.8243;-2.9377;0.4339;0.3906;0.0546
0000305299;5.7892;4.0127;-2.7964;0.6109;0.3746;0.0444
0000305307;5.9903;3.5267;-2.9066;0.7105;0.3601;0.0317
0000305315;6.6655;3.1747;-3.0023;0.7775;0.3373;0.0225
0000305368;5.8203;1.4916;-3.1747;0.5312;0.1063;0.0677
0000305376;5.3702;1.3240;-3.1460;0.4668;0.0853;0.0942
0000305387;5.2816;1.7214;-3.1460;0.4173;0.0674;0.1306
0000305395;4.7836;1.4724;-3.0718;0.3988;0.0642;0.1532
0000305406;4.9153;1.8699;-3.2274;0.4016;0.0681;0.1705
0000305414;4.8794;2.4397;-3.3040;0.4078;0.0811;0.1789
0000305422;4.8291;2.6624;-3.2681;0.4305;0.0886;0.1635
0000305433;5.2433;3.1005;-3.4572;0.4706;0.1155;0.1486
0000305441;5.5593;3.4285;-3.5027;0.4828;0.1240;0.1258
0000305452;5.9137;3.5841;-3.5195;0.5007;0.1073;0.0741
0000305460;6.0525;3.6631;-3.5243;0.5045;0.0953;0.0608
0000305471;6.0190;3.5386;-3.4812;0.5173;0.0646;0.0574
0000305479;5.9831;3.3447;-3.4333;0.5324;0.0365;0.0536
0000305487;6.0382;3.3974;-3.5267;0.5570;0.0105;0.0601
0000305498;6.1244;3.1460;-3.3902;0.5832;-0.0200;0.0654
0000305506;5.9328;2.8754;-3.3112;0.5982;-0.0377;0.0718
0000305517;5.7174;2.3439;-3.3303;0.6011;-0.0574;0.0867
0000305525;5.5545;1.9178;-3.3471;0.6019;-0.0694;0.0873
0000305536;5.1451;1.8220;-3.5051;0.5744;-0.0754;0.0863
0000305544;4.9823;1.7310;-3.5027;0.5396;-0.0749;0.0785
0000305552;4.7070;1.7957;-3.4429;0.4822;-0.0695;0.0714
0000305563;4.6184;2.0016;-3.5889;0.3826;-0.0340;0.0774
0000305571;4.8722;2.1979;-3.5674;0.3288;-0.0064;0.0822
0000305624;5.4995;2.2122;-3.4812;0.4555;0.1159;0.1033
0000305632;5.5402;1.9992;-3.5338;0.4557;0.1210;0.0843
0000305643;5.5354;1.9656;-3.5147;0.4409;0.1120;0.0662
0000305651;5.4875;1.8603;-3.4141;0.4487;0.1009;0.0476
0000305659;5.5402;1.9680;-3.1508;0.4582;0.1142;0.0504
0000305670;4.8985;1.5969;-2.4445;0.4486;0.1683;0.0782
0000305678;5.1116;1.5036;-1.9010;0.4201;0.2250;0.1256
0000305689;5.1739;1.3024;-1.6975;0.3369;0.2807;0.1585
0000305697;5.2050;1.2186;-1.9369;0.2783;0.3080;0.1635
0000305708;4.9919;1.1372;-2.2122;0.2096;0.3435;0.1408
0000305716;4.9488;1.0534;-2.1500;0.1310;0.3716;0.1320
0000305727;5.1140;1.1803;-2.1021;0.0197;0.4486;0.1548
0000305735;5.3582;1.4676;-2.1404;-0.0286;0.4838;0.1735
0000305743;5.3630;1.6185;-1.8818;-0.0520;0.4527;0.1448
0000305754;5.8059;2.1691;-1.7310;-0.0081;0.3986;0.1079
0000305762;5.9831;2.5379;-1.8411;0.0386;0.3761;0.0931
0000305773;6.4955;2.4253;-1.8747;0.0813;0.3469;0.0658
0000305781;6.7181;2.0303;-1.9297;0.0954;0.3359;0.0353
0000305792;6.7373;1.7382;-2.3655;0.0777;0.3585;-0.0101
0000305800;6.3255;1.7023;-2.7390;0.0265;0.3854;-0.0132
0000305808;5.5809;1.4102;-2.7797;-0.0256;0.4259;0.0064
0000305819;4.1132;1.0391;-2.6384;-0.1271;0.5119;0.0441
0000305827;3.4931;0.9122;-2.3990;-0.1791;0.5720;0.0613
0000305881;5.3630;-2.1644;2.4780;-0.4902;1.0389;-0.0240
0000305889;5.6072;-2.0207;2.5235;-0.4691;1.0717;-0.1132
0000305900;5.6431;-1.8699;0.9984;-0.4275;1.0790;-0.2266
0000305908;5.0829;-1.7693;-0.5411;-0.4473;1.0563;-0.2874
0000305919;4.4604;-1.5897;-1.1277;-0.6602;1.0066;-0.2854
0000305927;4.4843;-1.4198;0.1006;-0.9502;0.9341;-0.2425
0000305935;5.0159;-0.9385;1.3958;-1.2085;0.8583;-0.1480
0000305946;6.0310;0.4501;2.4565;-1.4975;0.8272;0.0461
0000305954;6.9145;1.2067;2.7821;-1.5989;0.8701;0.1917
0000305965;8.1954;2.5067;3.0861;-1.5044;0.9618;0.3487
0000305973;8.4420;3.3878;2.8587;-1.2665;1.0256;0.3375
0000305984;7.9440;4.4891;1.5155;-0.8047;1.0898;0.1272
0000305992;6.6870;4.5897;-0.1149;-0.4129;1.1403;-0.1431
0000306000;5.0494;4.5849;-1.9944;-0.0622;1.2029;-0.3957
0000306011;3.7613;4.0127;-3.9624;0.3593;1.2148;-0.6431
0000306019;3.7565;2.9808;-4.9632;0.5385;1.1522;-0.6650
0000306030;5.2672;0.3567;-4.8698;0.6775;1.0724;-0.5295
0000306038;6.3183;-1.3886;-4.4532;0.7068;1.0236;-0.3881
0000306049;7.7692;-2.3056;-5.5258;0.7525;0.9469;-0.2034
0000306057;8.7700;-2.0494;-7.2089;0.8134;0.9361;-0.0432
0000306068;10.2304;-1.0726;-10.2639;1.1378;0.8621;0.1340
0000306076;11.5209;-0.6177;-12.1147;1.4272;0.7357;0.2038
0000306084;12.4929;-0.4262;-13.4722;1.6254;0.5105;0.2113
0000306138;7.1802;-5.0278;-3.5578;0.5970;-0.8892;-0.2029
0000306146;6.7301;-4.4819;-1.7526;0.1375;-0.7731;-0.0087
0000306157;5.3798;-4.4029;-1.3862;-0.2818;-0.4101;0.2573
0000306165;4.3072;-3.7972;-1.6903;-0.4209;-0.1354;0.3753
0000306176;2.6695;-2.4876;-1.9752;-0.4880;0.2146;0.3279
0000306184;1.5802;-1.2019;-1.6735;-0.6332;0.5205;0.1216
0000306195;0.0120;0.8715;-1.2857;-0.8332;1.0852;-0.4895
0000306203;-1.1827;1.9393;-1.3815;-0.8769;1.4849;-1.1265
0000306214;-2.6169;4.1037;-0.8475;-0.6694;1.9688;-1.7765
0000306222;-2.8204;5.2577;0.5986;-0.4331;2.2104;-1.8948
0000306230;-2.7821;5.7437;2.3487;-0.1482;2.4216;-1.5300
0000306241;-2.9928;5.5785;1.3384;0.9455;2.4624;-0.4640
0000306249;-3.2585;9.2249;-9.7516;3.4442;2.0967;0.3615
0000306260;-1.4126;27.4352;-33.4494;4.3656;1.5465;1.0273
0000306268;4.0079;50.1920;-38.2258;4.3656;0.3941;2.0953
0000306279;26.0800;56.6660;-48.7052;3.6074;0.3698;4.1621
0000306287;19.1392;35.8771;-11.9183;1.4975;0.1035;3.5887
0000306298;18.0499;10.3908;-5.3319;2.7776;0.0059;2.3714
0000306306;17.3771;11.0540;-5.1523;4.0690;0.3854;1.1365
0000306314;10.9032;12.6725;-5.5091;4.3656;0.2669;0.6948
0000306325;8.5425;9.4954;-7.1084;4.3656;-0.3289;1.6126
0000306333;10.8745;6.3039;-4.5418;4.3656;-1.0216;2.9579
0000306387;7.9272;1.3982;-0.8930;4.3656;-1.9445;-1.0223
0000306395;5.2816;-0.1844;-3.5171;4.3656;-1.2929;-1.7164
0000306406;3.9768;-3.1388;-5.4803;4.3656;-0.9309;-2.0596
0000306414;3.4955;-5.9328;-6.8474;4.3656;-0.8881;-1.8403
0000306425;3.3758;-9.1291;-8.5329;4.3656;-0.8807;-1.0195
0000306433;3.1412;-11.5209;-9.0788;4.3656;-0.6955;-0.1451
0000306441;2.9975;-13.0747;-8.8897;4.3656;-0.4194;0.7017
0000306452;3.5985;-13.1394;-7.7644;4.3656;-0.0037;1.5354
0000306460;3.2130;-13.1585;-6.5745;4.3656;0.0602;1.7283
0000306471;3.5554;-12.7324;-6.3686;4.2769;-0.1490;1.6202
0000306479;4.9033;-12.1099;-5.8682;3.9215;-0.2220;1.4076
0000306490;6.9719;-9.8545;-4.1396;3.2141;-0.1203;1.0515
0000306498;7.1204;-9.2249;-3.5961;2.7939;0.0811;0.8279
0000306509;6.3734;-9.4116;-2.2290;2.6456;0.4916;0.5167
0000306517;5.1092;-9.2560;-2.3679;2.8511;0.7714;0.3191
0000306525;3.5338;-9.3829;-2.5905;3.2333;0.9633;0.1809
0000306536;2.7246;-9.0381;-0.6776;3.6016;1.2355;0.1026
0000306544;3.1077;-9.0597;0.3496;3.7052;1.4713;0.2176
0000306555;3.6105;-8.9423;0.6321;3.8656;1.6936;0.5339
0000306563;4.1468;-9.0549;0.7446;3.9203;1.6317;0.8315
0000306574;5.3774;-9.4044;-0.0790;4.1050;1.3443;1.2200
0000306582;6.8307;-9.5648;-0.1700;4.3579;1.0853;1.2721
0000306636;15.4139;-27.2484;-14.6525;4.3656;0.1455;-4.3657
0000306644;16.0100;-44.5681;-22.2589;4.3656;0.4703;-4.3657
0000306652;18.0786;-47.5512;-15.3325;4.3656;-0.2124;-4.3657
0000306663;20.7362;-38.3336;11.7100;3.4183;-1.8746;-1.3643
0000306671;21.9117;-31.2300;21.3850;1.0481;-1.3400;0.4547
0000306682;16.9198;-27.4088;15.9214;-2.4142;-0.0149;1.3057
0000306690;13.1849;-28.4096;9.4763;-3.7010;0.0846;0.8856
0000306701;9.8497;-24.9212;4.6615;-4.3657;0.2665;-0.0230
0000306709;7.6351;-21.5287;-0.2825;-4.3657;0.4751;-0.3082
0000306720;5.2696;-16.8504;-0.3926;-4.3657;0.5682;-0.1492
0000306728;4.6017;-13.8864;-3.6583;-4.3657;0.6458;0.1142
0000306739;4.3503;-11.5041;-0.1221;-4.3657;0.7406;0.4403
0000306747;5.1739;-10.0485;-0.9888;-4.3657;0.8589;0.6732
0000306758;7.0294;-8.7317;-3.3279;-4.3657;0.7901;0.8371
0000306766;9.2320;-7.4627;-1.0463;-4.3657;0.8551;0.8748
0000306774;10.4196;-6.6655;-3.3495;-4.3657;0.8047;0.8126
0000306785;12.8497;-3.9049;-4.4149;-4.3657;0.9503;0.8272
0000306793;14.4490;-1.3431;-13.5847;-4.3657;1.3692;0.7574
0000306804;14.3173;0.1700;-18.7538;-4.3657;1.2752;0.1490
0000306812;14.5951;-1.7789;-17.1281;-3.9659;0.8304;-0.5568
0000306823;12.1218;-3.6943;0.0168;-2.3349;0.5255;-0.7265
0000306831;10.1610;-3.9648;-3.0430;-1.4280;0.5145;-0.5180
0000306885;15.2918;-6.0406;-15.5384;0.6584;1.1073;0.1070
0000306893;13.2040;-7.6279;-12.0069;0.9778;0.8569;-0.0834
0000306904;11.4610;-9.0956;-13.6661;1.0897;0.3235;-0.2036
0000306912;10.6111;-10.1418;-6.8905;1.1130;0.0011;-0.1892
0000306920;10.0748;-10.6877;-5.6360;1.0248;-0.3528;-0.1755
0000306931;9.6175;-10.6350;-4.6232;0.7027;-0.6929;-0.1184
0000306939;9.5960;-10.3166;-5.4516;0.2541;-0.7646;-0.1402
0000306950;10.3477;-10.1682;-8.7963;-0.5806;-0.6163;-0.2193
0000306958;10.9702;-9.9503;-13.8720;-1.1763;-0.1904;-0.3019
0000306969;11.0995;-9.6103;-16.0076;-1.7637;0.4891;-0.2858
0000306977;9.7372;-8.3510;-18.8639;-2.0407;0.4105;-0.2109
0000306988;9.6534;-7.3981;-13.3166;-1.8405;0.1234;-0.0510
0000306996;9.0932;-6.0310;-10.2951;-1.6109;-0.0600;0.0298
0000307007;8.5976;-5.3103;-6.7205;-1.3017;-0.3099;0.0710
0000307015;8.5856;-4.6902;-6.0142;-1.1731;-0.4398;0.0290
0000307026;9.6893;-3.3734;-8.2241;-1.1107;-0.5508;-0.0466
0000307034;10.8242;-2.8898;-12.6055;-1.0336;-0.5268;-0.1234
0000307042;11.5161;-2.6600;-16.7259;-0.7945;-0.3492;-0.2142
0000307053;11.4898;-3.1388;-18.3635;-0.3762;0.0207;-0.2995
0000307061;10.0652;-3.8690;-15.2966;-0.0893;0.1058;-0.2659
0000307072;8.7149;-4.7669;-10.0102;0.1824;0.0310;-0.1069
0000307080;8.2672;-4.9991;-9.0740;0.2673;-0.1260;0.0020
0000307134;10.7595;-7.5106;-13.6900;-0.3351;-0.4454;0.0136
0000307142;9.9934;-7.7596;-12.9766;-0.3978;-0.4066;-0.0173
0000307153;8.8011;-7.5609;-11.2791;-0.3962;-0.3600;-0.0088
0000307161;8.3007;-7.2281;-10.4291;-0.4049;-0.2864;0.0228
0000307172;8.0828;-6.9384;-9.7803;-0.4751;-0.1966;0.0400
0000307180;7.8099;-6.5841;-9.1794;-0.5612;-0.1571;0.0386
0000307191;7.2401;-6.1866;-8.6455;-0.6660;-0.1001;0.0316
0000307199;7.0820;-5.8754;-8.3079;-0.6827;-0.0289;0.0171
0000307207;6.9647;-5.6072;-8.1379;-0.6488;0.0253;-0.0156
0000307218;7.4867;-4.8435;-8.6503;-0.5060;0.0774;-0.0449
0000307226;8.1451;-4.6855;-9.6941;-0.3609;0.0941;-0.0645
0000307237;9.7923;-4.5873;-11.8968;-0.1904;0.1042;-0.0449
0000307245;10.8481;-4.5155;-13.0269;-0.1318;0.0889;-0.0434
0000307256;11.9351;-5.1212;-12.6773;-0.1860;0.0789;-0.0481
0000307264;11.7388;-5.7030;-11.2216;-0.2361;0.0361;-0.0596
0000307275;10.4483;-5.9759;-9.2967;-0.2543;-0.0554;-0.0246
0000307283;9.4810;-6.0214;-8.2696;-0.2020;-0.1226;0.0100
0000307294;8.3773;-6.1627;-7.5010;-0.0725;-0.2069;0.0509
0000307302;7.8362;-6.2441;-7.7476;0.0578;-0.2430;0.0648
0000307313;7.9272;-6.4787;-9.3613;0.2162;-0.2461;0.0594
0000307321;8.5665;-6.6798;-10.7476;0.2526;-0.2237;0.0644
0000307329;9.3925;-6.8426;-11.7771;0.2104;-0.2110;0.0652
0000307379;9.3541;-5.5354;-8.3893;-0.4485;-0.4149;0.0667
0000307387;8.5808;-5.3893;-8.2863;-0.3790;-0.4335;0.0694
0000307398;8.2839;-5.3558;-8.8035;-0.2403;-0.4269;0.0596
0000307406;8.1547;-5.3127;-9.6774;-0.1239;-0.3729;0.0417
0000307417;8.3199;-5.5761;-11.2575;-0.0200;-0.2623;0.0000
0000307425;8.6670;-5.9855;-11.9135;-0.0284;-0.2036;-0.0254
0000307436;8.6239;-6.6367;-11.6023;-0.1479;-0.1791;-0.0745
0000307444;8.8370;-6.6487;-10.7284;-0.2606;-0.1765;-0.0918
0000307455;8.5449;-6.4236;-9.8785;-0.3814;-0.1254;-0.0795
0000307463;8.3701;-6.1531;-9.3829;-0.4355;-0.0797;-0.0365
0000307471;8.4348;-5.7557;-8.9711;-0.4413;-0.0843;0.0019
0000307482;8.5090;-5.3558;-9.1339;-0.3480;-0.0933;0.0402
0000307490;8.6000;-5.1978;-9.8593;-0.2406;-0.0789;0.0348
0000307501;9.1866;-5.0302;-11.0253;-0.1335;-0.0622;0.0195
0000307509;9.5074;-5.0709;-11.4467;-0.1034;-0.0642;0.0144
0000307520;9.4164;-5.4109;-11.0205;-0.0755;-0.1013;-0.0031
0000307528;9.2584;-5.4995;-10.3525;-0.0789;-0.1244;-0.0116
0000307539;9.0549;-5.7197;-9.6127;-0.0963;-0.1335;-0.0081
0000307547;8.7556;-5.6120;-9.3661;-0.1075;-0.1223;0.0137
0000307558;8.6479;-5.5306;-9.5912;-0.0889;-0.0890;0.0362
0000307566;8.7724;-5.6527;-10.0724;-0.0710;-0.0890;0.0468
0000307620;8.7173;-5.7197;-9.4858;-0.1751;-0.2217;0.0381
0000307628;8.5688;-5.5450;-9.3733;-0.2037;-0.1875;0.0438
0000307636;8.4994;-5.2912;-9.6917;-0.2073;-0.1512;0.0505
0000307647;8.5880;-4.9991;-10.2256;-0.1956;-0.1258;0.0590
0000307655;8.3606;-5.2720;-10.4220;-0.1745;-0.1418;0.0476
0000307666;8.6862;-5.2050;-10.6039;-0.1372;-0.1639;0.0230
0000307674;8.7340;-5.3486;-10.3501;-0.1195;-0.1652;0.0133
0000307685;8.8394;-5.5881;-10.2855;-0.1204;-0.1460;-0.0033
0000307693;8.5305;-5.8299;-10.0413;-0.1514;-0.1339;-0.0043
0000307704;8.0972;-5.9448;-9.3470;-0.2109;-0.1214;0.0067
0000307712;8.1235;-5.8658;-9.2153;-0.2384;-0.1079;0.0197
0000307723;8.0038;-5.6671;-9.5241;-0.2621;-0.0843;0.0394
0000307731;8.4779;-5.4396;-10.0126;-0.2531;-0.0829;0.0377
0000307739;8.7484;-5.3750;-10.5560;-0.2425;-0.0878;0.0300
0000307750;9.2081;-5.2864;-10.6997;-0.2465;-0.1386;0.0220
0000307758;9.5577;-5.2074;-10.6446;-0.2523;-0.1660;0.0192
0000307769;9.3996;-5.5091;-10.1227;-0.3071;-0.1687;0.0133
0000307777;9.0597;-5.8562;-9.3901;-0.3624;-0.1729;-0.0009
0000307788;8.9136;-5.6096;-8.8897;-0.4241;-0.1917;-0.0119
0000307796;8.6622;-5.5833;-8.6455;-0.4267;-0.2038;-0.0091
0000307807;8.3486;-5.1116;-9.1028;-0.3840;-0.2110;-0.0073
0000307815;8.4180;-4.6855;-9.6654;-0.3283;-0.1997;-0.0165
0000307869;8.9376;-4.9584;-10.2089;-0.1974;-0.2330;0.0044
0000307877;8.9687;-5.0996;-9.6606;-0.2132;-0.2322;0.0137
0000307888;8.6622;-5.0111;-9.4547;-0.1933;-0.2328;0.0465
0000307896;8.5425;-4.8028;-9.6917;-0.1490;-0.2322;0.0706
0000307904;8.1475;-4.9177;-9.6295;-0.0893;-0.2308;0.0717
0000307915;7.7500;-4.8985;-9.9982;-0.0005;-0.2012;0.0546
0000307923;7.7452;-5.0254;-10.1562;0.0520;-0.1948;0.0296
0000307934;7.6998;-5.2936;-10.4363;0.0697;-0.1628;0.0217
0000307942;7.7835;-5.4444;-10.5967;0.0482;-0.1444;0.0310
0000307953;7.9583;-5.6072;-10.1203;-0.0084;-0.1904;0.0289
0000307961;8.0565;-5.8706;-9.7755;-0.0646;-0.2213;0.0305
0000307972;8.4491;-5.6551;-9.3637;-0.1248;-0.2290;0.0442
0000307980;8.6143;-5.4372;-9.1818;-0.1352;-0.2114;0.0703
0000307991;8.4060;-5.4109;-9.3158;-0.0954;-0.1907;0.0782
0000307999;8.2361;-5.1954;-9.8258;-0.0667;-0.1659;0.0757
0000308007;8.2001;-4.9704;-10.3334;-0.0289;-0.1577;0.0530
0000308018;8.1235;-5.0350;-10.9080;0.0109;-0.1577;0.0244
0000308026;8.1283;-5.0302;-11.1737;0.0208;-0.1603;0.0141
0000308037;7.9990;-5.3343;-11.0468;0.0113;-0.1859;-0.0151
0000308045;8.2384;-5.4420;-10.6638;-0.0204;-0.2121;-0.0077
0000308056;8.2528;-5.4348;-10.0604;-0.0488;-0.2321;0.0141
0000308064;8.2672;-5.1236;-9.8833;-0.0530;-0.2182;0.0433
0000308118;8.5665;-4.8961;-11.7029;0.1471;-0.1923;-0.0161
0000308126;8.6766;-5.0182;-11.4467;0.0869;-0.2061;-0.0269
0000308137;8.2097;-5.2481;-10.7595;-0.0193;-0.2433;-0.0161
0000308145;7.7381;-5.3223;-10.1754;-0.0847;-0.2450;-0.0112
0000308156;7.3933;-4.9081;-9.6869;-0.1311;-0.2108;-0.0047
0000308164;7.0916;-4.5945;-9.5553;-0.1108;-0.1931;-0.0215
0000308172;7.0150;-4.2856;-9.4954;-0.0718;-0.1483;-0.0272
0000308183;7.0126;-4.2713;-9.5840;0.0096;-0.0843;-0.0432
0000308191;7.2616;-4.1899;-9.7252;0.0648;-0.0453;-0.0506
0000308202;7.6950;-4.2713;-10.0317;0.0974;-0.0099;-0.0578
0000308210;7.9655;-4.5011;-10.1993;0.0894;-0.0029;-0.0695
0000308221;8.2456;-4.7429;-10.1131;0.0444;-0.0109;-0.0783
0000308229;8.0469;-4.9440;-10.0485;0.0029;-0.0180;-0.0626
0000308240;7.8338;-5.1380;-10.0149;-0.0264;-0.0364;-0.0436
0000308248;7.7859;-5.1284;-10.0030;-0.0281;-0.0436;-0.0189
0000308260;7.6279;-4.9680;-10.0078;-0.0075;-0.0520;0.0099
0000308270;7.4843;-4.8267;-10.1586;0.0285;-0.0516;0.0124
0000308282;7.5082;-4.6567;-10.2113;0.0729;-0.0292;0.0152
0000308291;8.0804;-4.2473;-10.2711;0.0843;-0.0200;0.0072
0000308300;8.3055;-4.3120;-10.2951;0.0707;-0.0097;0.0012
0000308312;8.2791;-4.6735;-10.0221;0.0373;-0.0091;-0.0175
0000308321;8.2432;-4.6687;-10.0030;0.0080;0.0004;-0.0238
0000308378;7.7883;-5.6264;-10.3597;0.0289;0.0616;-0.0602
0000308387;8.0302;-5.7533;-10.4339;0.0340;0.0408;-0.0644
0000308399;8.3725;-5.5929;-10.3310;0.0135;0.0127;-0.0662
0000308408;8.3534;-5.5905;-10.1035;-0.0205;0.0053;-0.0553
0000308419;8.5114;-5.0661;-10.0245;-0.0333;-0.0035;-0.0653
0000308428;8.0732;-5.0661;-9.8545;-0.0437;0.0047;-0.0675
0000308440;7.8410;-4.8650;-9.9671;-0.0298;0.0208;-0.0822
0000308449;7.7093;-4.8076;-10.0533;-0.0068;0.0384;-0.0898
0000308458;7.7572;-4.9871;-10.0796;0.0169;0.0536;-0.0975
0000308469;7.8889;-5.1308;-10.2161;0.0452;0.0755;-0.0959
0000308478;8.1690;-5.2289;-10.3142;0.0538;0.0737;-0.0902
0000308490;8.3007;-5.4971;-10.3980;0.0450;0.0659;-0.0612
0000308499;8.4539;-5.5569;-10.3286;0.0334;0.0520;-0.0480
0000308510;8.4228;-5.5186;-10.2041;0.0124;0.0358;-0.0203
0000308519;8.3175;-5.4300;-10.0389;-0.0019;0.0201;-0.0117
0000308531;8.1355;-5.1667;-10.0963;-0.0165;0.0181;0.0000
0000308540;8.0469;-4.7692;-10.1131;-0.0127;0.0167;-0.0127
0000308595;8.4539;-5.1739;-10.2711;-0.0076;-0.0063;-0.0060
0000308604;8.4635;-5.3486;-10.1993;-0.0236;-0.0121;0.0163
0000308613;8.6910;-5.3941;-10.1586;-0.0429;-0.0201;0.0250
0000308625;8.5904;-5.3558;-10.2280;-0.0549;-0.0394;0.0337
0000308634;8.4803;-5.1691;-10.2328;-0.0373;-0.0565;0.0218
0000308645;8.2025;-5.0829;-10.1299;-0.0304;-0.0663;0.0024
0000308654;8.1283;-5.0230;-10.0724;-0.0217;-0.0637;-0.0069
0000308666;7.9847;-4.9201;-10.1466;-0.0171;-0.0556;-0.0188
0000308675;7.8075;-5.1595;-10.2041;-0.0129;-0.0485;-0.0241
0000308686;8.1092;-5.0518;-10.2568;-0.0240;-0.0432;-0.0195
0000308695;8.1499;-5.1619;-10.1011;-0.0301;-0.0433;-0.0116
0000308707;8.3965;-5.1715;-10.0987;-0.0342;-0.0382;0.0052
0000308716;8.1977;-5.1667;-10.2376;-0.0332;-0.0366;0.0183
0000308727;8.2145;-5.2816;-10.1347;-0.0188;-0.0430;0.0269
0000308736;8.2384;-5.1547;-10.0652;-0.0087;-0.0533;0.0218
0000308745;8.2337;-5.1404;-10.1011;0.0048;-0.0485;0.0261
0000308757;8.1714;-5.1499;-10.1778;0.0167;-0.0573;0.0117
0000308766;8.2121;-5.1571;-10.0772;0.0020;-0.0566;0.0087
0000308777;8.0493;-5.1212;-9.9719;-0.0241;-0.0632;-0.0135
0000308785;8.0517;-5.0302;-9.9910;-0.0360;-0.0585;-0.0278
0000308796;8.1834;-4.9464;-9.9934;-0.0526;-0.0498;-0.0288
0000308804;8.0038;-5.0446;-10.1251;-0.0530;-0.0420;-0.0290
