time;acc_x;acc_y;acc_z;gyro_x;gyro_y;gyro_z
0000464687;6.0071;2.5857;1.8507;-0.0466;-1.3965;-0.5733
0000464696;5.9759;2.5235;1.9130;-0.0477;-1.4044;-0.5753
0000464704;5.9496;2.6025;2.0063;-0.0490;-1.3896;-0.5629
0000464712;5.7868;2.4995;1.8723;-0.0541;-1.3937;-0.5640
0000464720;5.9975;2.5618;1.9034;-0.0638;-1.3947;-0.5621
0000464728;6.0190;2.6839;2.0566;-0.0789;-1.3905;-0.5461
0000464736;6.0190;2.7031;2.1572;-0.0930;-1.3908;-0.5335
0000464744;6.2082;2.8659;2.1691;-0.0929;-1.3972;-0.5383
0000464752;6.1675;2.9880;2.1763;-0.0847;-1.3923;-0.5279
0000464760;6.2058;3.1915;2.2865;-0.0586;-1.3964;-0.5297
0000464768;6.1028;3.3136;2.2769;-0.0240;-1.3955;-0.5377
0000464776;6.2321;3.5267;2.4229;0.0103;-1.3907;-0.5469
0000464784;6.2944;3.4644;2.2649;0.0655;-1.4080;-0.5632
0000464792;6.0837;3.1364;2.3032;0.1272;-1.4356;-0.5840
0000464800;6.4859;2.9904;2.1668;0.1751;-1.4582;-0.5853
0000464808;6.3901;2.6743;1.9441;0.2021;-1.4783;-0.5939
0000464816;6.3758;2.6073;1.9130;0.2116;-1.5123;-0.5985
0000464824;6.3087;2.3607;1.7693;0.1931;-1.5159;-0.5937
0000464832;6.1076;2.1045;1.5227;0.1575;-1.5234;-0.5842
0000464840;6.1316;1.9632;1.4102;0.1235;-1.5402;-0.5657
0000464848;6.0837;1.9273;1.4198;0.0686;-1.5430;-0.5444
0000464856;5.8035;1.7071;1.2857;0.0064;-1.5461;-0.5255
0000464864;5.9975;1.8483;1.3862;-0.0568;-1.5398;-0.5088
0000464872;5.9496;1.8723;1.3886;-0.1330;-1.5143;-0.4926
0000464880;5.8730;1.8531;1.4581;-0.1879;-1.5054;-0.4910
0000464888;5.8299;1.9345;1.4916;-0.2406;-1.4742;-0.4916
0000464896;5.7964;2.1045;1.5443;-0.2706;-1.4364;-0.4868
0000464904;5.6240;2.1979;1.5060;-0.2689;-1.3987;-0.5031
0000464912;5.6575;2.4086;1.4269;-0.2517;-1.3674;-0.5093
0000464920;5.4684;2.3272;1.3168;-0.2260;-1.3118;-0.5076
0000464928;5.3510;2.3750;1.3336;-0.2002;-1.2640;-0.5165
0000464936;5.2409;2.2098;1.1253;-0.1723;-1.2275;-0.5339
0000464944;5.2122;1.9776;0.8930;-0.1400;-1.1806;-0.5301
0000464952;5.3391;1.8340;0.7733;-0.1227;-1.1354;-0.5375
0000464960;5.1427;1.6879;0.5698;-0.1186;-1.0860;-0.5409
0000464968;5.0805;1.6424;0.3926;-0.1236;-1.0483;-0.5537
0000464976;4.9249;1.5490;0.3807;-0.1450;-0.9950;-0.5534
0000464984;4.8411;1.7190;0.2298;-0.1645;-0.9446;-0.5664
0000464992;4.7884;1.8603;0.0622;-0.1807;-0.8759;-0.5708
0000465000;4.5945;2.0710;0.1149;-0.1837;-0.8068;-0.5630
0000465008;4.6783;2.2434;0.0359;-0.1861;-0.7228;-0.5247
0000465016;4.9321;2.6911;0.1987;-0.1816;-0.6336;-0.4876
0000465024;5.0925;2.7725;0.2203;-0.1824;-0.5568;-0.4489
0000465032;4.8578;3.0071;0.4741;-0.2117;-0.4703;-0.4251
0000465040;4.9967;3.3806;0.7326;-0.2482;-0.3986;-0.4217
0000465048;4.8052;3.7134;0.9122;-0.2890;-0.3226;-0.4183
0000465056;4.8052;4.0534;1.0463;-0.3164;-0.2495;-0.3961
0000465064;4.7884;4.4053;1.3384;-0.3393;-0.1811;-0.3641
0000465072;4.8507;4.9560;1.7454;-0.3696;-0.1267;-0.3247
0000465080;4.8674;4.8961;2.2170;-0.3982;-0.0983;-0.2826
0000465088;5.0111;4.9129;2.5355;-0.4191;-0.0887;-0.2446
0000465096;5.5665;4.9297;2.8443;-0.4138;-0.0990;-0.1919
0000465104;6.1651;4.9632;2.9688;-0.3752;-0.1178;-0.1431
0000465112;6.7253;5.1356;3.2441;-0.3143;-0.1587;-0.0911
0000465120;6.8354;5.0182;3.3303;-0.2349;-0.2118;-0.0353
0000465128;6.9336;4.9728;3.4477;-0.1386;-0.2563;0.0063
0000465136;6.6966;4.6759;3.5338;-0.0200;-0.3107;0.0288
0000465144;6.5457;4.4819;3.3399;0.1206;-0.3524;0.0577
0000465152;6.2944;4.3551;3.0574;0.2188;-0.3627;0.1088
0000465160;6.2680;4.0007;2.6695;0.2794;-0.3649;0.1655
0000465168;5.9903;3.4237;2.5139;0.3130;-0.3524;0.2136
0000465176;6.0334;3.2226;2.3272;0.3288;-0.3172;0.2482
0000465184;5.7126;2.8994;2.1356;0.3240;-0.2727;0.2671
0000465192;5.7437;2.5474;1.9201;0.3000;-0.2218;0.2832
0000465200;5.8514;2.3248;1.6855;0.2577;-0.1743;0.2799
0000465208;5.8706;2.0399;1.6807;0.1907;-0.1179;0.2735
0000465216;5.9256;1.9393;1.7358;0.1003;-0.0621;0.2622
0000465224;5.8323;2.0806;1.8292;0.0095;-0.0129;0.2399
0000465232;5.8227;2.3367;1.9154;-0.0644;0.0509;0.2257
0000465240;5.5067;2.5091;1.9489;-0.0769;0.1096;0.2097
0000465248;5.4636;2.5809;2.0327;-0.0608;0.1819;0.2065
0000465256;5.4779;2.8778;2.0662;-0.0028;0.2493;0.2060
0000465277;5.6743;2.7509;1.8507;0.1547;0.4394;0.2288
0000465285;5.5929;2.4900;1.7358;0.1990;0.4987;0.2377
0000465293;5.5498;2.3918;1.6640;0.2112;0.5717;0.2529
0000465301;5.6144;2.3032;1.3719;0.2028;0.6305;0.2551
0000465309;5.5330;2.0470;1.3431;0.1805;0.6900;0.2649
0000465317;5.5905;2.0782;1.1875;0.1374;0.7436;0.2645
0000465325;5.4420;2.1189;1.2115;0.0810;0.8056;0.2737
0000465333;5.4540;2.1668;1.1875;0.0248;0.8639;0.2787
0000465341;5.5234;2.3224;1.2546;-0.0135;0.9148;0.2778
0000465349;5.4205;2.6312;1.4126;-0.0470;0.9545;0.2774
0000465357;5.5545;2.9616;1.5227;-0.0819;0.9980;0.2851
0000465365;5.5522;3.2848;1.5897;-0.0942;1.0291;0.2996
0000465373;5.3534;3.4668;1.6712;-0.0899;1.0519;0.3160
0000465381;5.5210;3.7254;1.7861;-0.0807;1.0677;0.3420
0000465389;5.5234;3.8331;1.8842;-0.0585;1.0850;0.3636
0000465397;5.5641;3.8092;1.9082;-0.0278;1.1040;0.3921
0000465405;5.7485;3.6919;1.8387;0.0043;1.1095;0.4138
0000465413;6.0238;3.7397;1.9106;0.0333;1.1229;0.4347
0000465421;6.2201;3.4572;1.8387;0.0654;1.1337;0.4357
0000465429;6.2106;3.1675;1.8292;0.0953;1.1354;0.4382
0000465437;6.4069;3.0526;1.7214;0.1166;1.1403;0.4322
0000465445;6.2489;2.8323;1.7023;0.1347;1.1454;0.4207
0000465453;6.2752;2.7988;1.6376;0.1494;1.1447;0.4143
0000465461;6.1746;2.7246;1.5490;0.1709;1.1407;0.4009
0000465469;5.9376;2.7222;1.5107;0.1724;1.1542;0.3949
0000465477;6.0454;2.8491;1.3671;0.1828;1.1583;0.3837
0000465485;5.9304;2.7940;1.3671;0.1869;1.1700;0.3734
0000465493;5.8466;2.7246;1.1205;0.1929;1.1916;0.3628
0000465501;5.6503;2.5833;1.0870;0.2002;1.2081;0.3493
0000465509;5.6958;2.4157;0.9768;0.2061;1.2264;0.3319
0000465517;5.8203;2.3104;1.0127;0.2057;1.2412;0.3156
0000465525;5.7820;2.1596;0.9553;0.1956;1.2604;0.3047
0000465533;5.4731;2.0351;0.9290;0.1867;1.2805;0.2903
0000465541;5.5138;2.1069;0.9122;0.1535;1.2935;0.2859
0000465549;5.3678;2.1620;1.0271;0.1035;1.3027;0.2802
0000465557;5.2337;2.3870;1.1277;0.0521;1.3071;0.2767
0000465565;5.3223;2.5283;1.2522;0.0049;1.2941;0.2746
0000465573;5.3534;2.8276;1.3120;-0.0436;1.2858;0.2903
0000465581;5.7269;3.1364;1.4317;-0.0826;1.2697;0.3132
0000465589;5.9448;3.0813;1.5467;-0.0954;1.2518;0.3400
0000465597;6.4021;3.4572;1.3336;-0.0486;1.2498;0.4151
0000465605;6.5888;3.6655;1.3599;0.0313;1.2405;0.4600
0000465613;6.8594;3.7709;1.2594;0.1116;1.2352;0.4703
0000465621;6.7133;3.6895;1.3096;0.1808;1.2376;0.4590
0000465629;6.3805;3.6200;1.2665;0.2290;1.2426;0.4602
0000465637;6.0047;3.6703;1.2139;0.2506;1.2400;0.4711
0000465645;5.9951;3.6966;1.2330;0.2641;1.2287;0.4690
0000465653;6.2968;3.6152;1.3120;0.2731;1.2111;0.4631
0000465661;6.4500;3.6727;1.3838;0.2875;1.2055;0.4481
0000465669;6.5721;3.4572;1.2689;0.3150;1.2109;0.4243
0000465677;6.4260;3.4884;1.4102;0.3688;1.2085;0.3846
0000465685;6.3279;3.4285;1.3862;0.4257;1.1904;0.3540
0000465693;6.1004;3.1915;1.5179;0.4616;1.1590;0.3324
0000465701;6.2704;3.2657;1.6424;0.4735;1.1214;0.3158
0000465709;6.4069;3.0143;1.6376;0.4764;1.0774;0.3146
0000465717;6.3734;2.6719;1.5826;0.4894;1.0269;0.3239
0000465725;6.8211;2.7007;1.4988;0.5073;0.9702;0.3119
0000465733;6.9456;2.5642;1.4078;0.5116;0.9289;0.2922
0000465741;6.9695;2.2266;1.3455;0.5116;0.8879;0.2522
0000465749;6.9791;1.9896;1.0247;0.4871;0.8540;0.2014
0000465757;7.0533;2.0111;0.9481;0.4327;0.8194;0.1482
0000465765;7.0126;1.8172;0.7661;0.3768;0.7822;0.0999
0000465773;7.0318;1.8842;0.7446;0.3162;0.7385;0.0586
0000465781;6.8977;1.9345;0.6991;0.2550;0.6963;0.0258
0000465789;6.8450;2.1524;0.7087;0.2165;0.6531;0.0056
0000465797;6.7469;2.4062;0.6656;0.1891;0.6270;0.0021
0000465805;6.8307;2.8156;0.6153;0.1899;0.5941;0.0015
0000465813;6.6918;3.1747;0.6536;0.2145;0.5677;-0.0148
0000465821;6.7900;3.6943;0.5962;0.2577;0.5293;-0.0390
0000465829;6.9719;4.2234;0.5914;0.2956;0.4976;-0.0573
0000465837;6.6391;4.3359;0.5148;0.3377;0.4555;-0.0787
0000465845;6.6248;4.4915;0.6321;0.3729;0.4162;-0.0873
0000465853;6.6056;4.2665;0.6967;0.3876;0.3665;-0.0938
0000465861;6.6511;3.7565;0.7638;0.3878;0.3087;-0.1022
0000465869;6.6559;3.3854;0.9385;0.3575;0.2605;-0.1071
0000465877;6.7804;2.9425;0.7973;0.3036;0.2130;-0.1227
0000465943;5.9185;2.2218;1.6544;-0.0770;-0.2549;-0.3006
0000465951;6.1411;2.4732;1.8627;-0.0843;-0.2982;-0.2801
0000465959;6.1675;2.7342;1.8004;-0.0846;-0.3200;-0.2547
0000465967;6.0047;3.2154;1.6807;-0.0654;-0.3453;-0.2441
0000465975;5.8682;3.4907;1.7526;-0.0345;-0.3664;-0.2313
0000465983;5.5162;3.7086;1.6783;0.0191;-0.3721;-0.2184
0000465991;5.3175;3.8930;1.6759;0.1007;-0.3918;-0.2189
0000465999;4.8842;4.0055;1.6185;0.1821;-0.4049;-0.2145
0000466007;4.9249;3.8331;1.3934;0.2522;-0.4227;-0.2053
0000466015;5.1523;3.7972;1.1971;0.3086;-0.4537;-0.2062
0000466023;5.2409;3.2968;0.9673;0.3517;-0.4815;-0.1892
0000466031;5.5115;2.8802;0.7638;0.3567;-0.4942;-0.1581
0000466039;5.4444;2.3535;0.7039;0.3399;-0.5196;-0.1176
0000466047;5.5569;1.9800;0.6009;0.2860;-0.5533;-0.0853
0000466055;5.6192;1.7262;0.4932;0.2158;-0.5862;-0.0446
0000466063;5.7197;1.7190;0.5938;0.1388;-0.6363;-0.0201
0000466071;5.8323;1.5802;0.6847;0.0711;-0.6853;0.0153
0000466079;6.0166;1.6783;0.7494;0.0097;-0.7282;0.0537
0000466087;5.9807;1.6712;0.7733;-0.0362;-0.7759;0.0819
0000466095;6.3805;2.0375;0.7685;-0.0606;-0.8115;0.1009
0000466103;6.2680;2.1883;0.7733;-0.0726;-0.8552;0.1116
0000466111;6.4524;2.5666;0.7566;-0.0750;-0.8964;0.1187
0000466119;6.6295;2.8371;0.6249;-0.0779;-0.9249;0.1443
0000466127;6.8881;3.1795;0.4788;-0.0733;-0.9735;0.1484
0000466135;7.2161;3.3255;0.4405;-0.0529;-1.0220;0.1535
0000466143;7.3765;3.5243;0.4070;-0.0484;-1.0569;0.1619
0000466151;7.4412;3.5171;0.2610;-0.0470;-1.1066;0.1592
0000466159;7.5034;3.4931;0.3950;-0.0524;-1.1750;0.1347
0000466167;7.2449;3.5195;0.5219;-0.0553;-1.2303;0.1123
0000466175;6.8953;3.3854;0.7207;-0.0640;-1.2748;0.0870
0000466183;6.4643;3.4093;0.6440;-0.0702;-1.3141;0.0544
0000466191;6.1076;3.3902;0.6871;-0.0701;-1.3538;0.0159
0000466199;5.7485;3.5195;0.5938;-0.0885;-1.3694;-0.0317
0000466207;5.4324;3.6631;0.3711;-0.1065;-1.3928;-0.1092
0000466215;5.2313;3.7900;0.2011;-0.1254;-1.4242;-0.1864
0000466223;4.8650;3.4668;0.3472;-0.1424;-1.4285;-0.2237
0000466231;4.9656;3.4692;0.3926;-0.1569;-1.4289;-0.2150
0000466239;5.2433;3.3567;0.4932;-0.1663;-1.3855;-0.1895
0000466247;5.3175;3.0670;0.4118;-0.1460;-1.3612;-0.1673
0000466255;5.4372;2.8395;0.3831;-0.1196;-1.3182;-0.1339
0000466263;5.4037;2.3439;0.2538;-0.0898;-1.2713;-0.1142
0000466271;5.5976;2.2434;0.0575;-0.0457;-1.2504;-0.0991
0000466279;5.6958;1.9752;-0.0383;-0.0064;-1.2356;-0.0717
0000466287;5.7700;1.9968;-0.1197;0.0127;-1.2103;-0.0462
0000466295;5.4588;1.8028;-0.1628;-0.0180;-1.1570;-0.0080
0000466303;5.3798;1.8914;-0.2227;-0.0753;-1.1022;0.0341
0000466311;5.3726;2.1189;-0.1437;-0.1388;-1.0436;0.0925
0000466319;5.0805;2.8228;-0.2873;-0.1945;-0.9755;0.1696
0000466327;4.8578;3.4453;-0.1413;-0.2304;-0.9121;0.2399
0000466335;5.1451;4.3838;-0.0144;-0.2406;-0.8523;0.3000
0000466343;5.1308;4.8291;0.3974;-0.2368;-0.7946;0.3427
0000466351;5.5019;5.2122;0.6776;-0.2016;-0.7489;0.3635
0000466359;5.5713;5.1404;0.7685;-0.1483;-0.6936;0.3641
0000466367;5.5522;5.1332;0.9409;-0.0747;-0.6571;0.3349
0000466375;6.0262;5.1451;0.8643;0.0080;-0.6054;0.3134
0000466383;5.9400;4.4556;0.5722;0.0947;-0.5702;0.3026
0000466391;6.1699;3.9193;0.3256;0.1717;-0.5175;0.3067
0000466399;6.4452;3.5554;0.0192;0.2181;-0.4478;0.3098
0000466407;6.5960;3.0550;-0.4357;0.2499;-0.3798;0.2924
0000466415;6.6942;2.6001;-0.7254;0.2473;-0.2935;0.2507
0000466423;6.7516;2.3894;-0.7829;0.2252;-0.2172;0.1933
0000466431;6.6726;2.0901;-0.8332;0.1876;-0.1635;0.1207
0000466439;6.4069;1.8220;-0.6393;0.1147;-0.0934;0.0628
0000466447;6.3207;1.5012;-0.2849;0.0538;-0.0357;0.0149
0000466455;6.5625;1.6712;0.0646;0.0020;0.0025;-0.0203
0000466463;6.7516;1.8771;0.3543;-0.0462;0.0357;-0.0450
0000466471;7.1874;2.2913;0.7087;-0.0777;0.0480;-0.0705
0000466479;7.2975;2.7126;0.8428;-0.0913;0.0556;-0.0810
0000466487;7.6662;3.1795;1.2067;-0.0718;0.0481;-0.0718
0000466495;7.5776;3.4812;1.5012;-0.0430;0.0336;-0.0316
0000466503;7.7069;3.9648;1.4820;-0.0069;0.0063;0.0368
0000466511;7.8147;3.9959;1.5490;0.0012;-0.0232;0.1131
0000466519;8.1379;3.9935;1.3240;-0.0101;-0.0691;0.1781
0000466585;7.3885;1.9704;1.2234;0.2108;-0.3640;-0.1178
0000466593;6.9863;1.5706;1.1013;0.2538;-0.3640;-0.2024
0000466601;6.7325;1.2929;0.8164;0.2855;-0.3464;-0.2759
0000466609;6.6990;1.3120;0.5626;0.2943;-0.3320;-0.3545
0000466617;6.7181;1.2210;0.1867;0.2777;-0.3102;-0.4283
0000466625;6.4165;1.0750;-0.1724;0.2224;-0.2883;-0.4796
0000466633;6.2249;1.2210;-0.4262;0.1440;-0.2814;-0.5160
0000466641;6.1339;1.6616;-0.5339;0.0301;-0.2649;-0.5259
0000466649;5.8179;2.2649;-0.4549;-0.0922;-0.2634;-0.5235
0000466657;5.2696;2.8036;-0.2011;-0.2085;-0.2506;-0.4892
0000466665;5.0829;3.7134;-0.0072;-0.3052;-0.2547;-0.4314
0000466673;4.7190;4.6017;0.3639;-0.3612;-0.2585;-0.3295
0000466681;4.6448;5.6431;0.5698;-0.3828;-0.2407;-0.1869
0000466689;4.7022;6.2106;0.7590;-0.3571;-0.2144;-0.0374
0000466697;5.0996;6.3183;1.1013;-0.2791;-0.1849;0.0766
0000466705;5.6024;5.7030;1.2450;-0.1541;-0.1295;0.1418
0000466713;6.0621;4.7309;1.2258;-0.0183;-0.0822;0.1659
0000466721;6.5003;3.8786;1.0080;0.0997;-0.0461;0.1490
0000466729;6.6391;2.9185;0.7757;0.1732;-0.0131;0.1268
0000466737;6.7636;2.1452;0.5315;0.2144;0.0024;0.0917
0000466745;6.7540;1.4629;0.2514;0.1968;0.0265;0.0529
0000466753;6.8307;1.1085;0.1030;0.1672;0.0306;-0.0003
0000466761;6.8331;1.2115;-0.1867;0.1094;0.0509;-0.0450
0000466769;6.5697;1.3647;-0.3352;0.0433;0.0617;-0.0874
0000466777;6.2560;1.6089;-0.1484;-0.0143;0.0810;-0.1278
0000466785;6.0621;1.9082;-0.0287;-0.0713;0.0853;-0.1525
0000466793;6.4787;2.5498;0.1915;-0.1159;0.1033;-0.1605
0000466801;6.2513;3.0167;0.3998;-0.1564;0.1124;-0.1502
0000466809;6.2872;3.5267;0.6057;-0.1791;0.1046;-0.1480
0000466817;6.3518;3.8044;0.6967;-0.2001;0.0961;-0.1215
0000466825;6.2177;3.9624;0.9170;-0.1961;0.0859;-0.1011
0000466833;6.3805;4.0534;1.0008;-0.1636;0.0749;-0.0770
0000466841;6.3758;4.0294;1.0511;-0.1172;0.0630;-0.0521
0000466849;6.6224;4.0917;0.9912;-0.0646;0.0480;-0.0333
0000466857;6.5266;3.7972;0.8475;-0.0230;0.0500;-0.0128
0000466865;6.4811;3.5793;0.7470;0.0160;0.0441;-0.0008
0000466873;6.3638;3.3327;0.6345;0.0385;0.0486;0.0119
0000466881;6.3207;3.0646;0.4717;0.0490;0.0553;0.0204
0000466889;6.4572;2.9066;0.4669;0.0538;0.0569;0.0273
0000466897;6.6319;2.6791;0.4381;0.0525;0.0606;0.0337
0000466905;6.6272;2.5402;0.3831;0.0382;0.0634;0.0446
0000466913;6.7804;2.7701;0.2394;0.0131;0.0609;0.0400
0000466921;6.6535;2.5307;0.2825;-0.0081;0.0472;0.0280
0000466929;6.9073;2.7605;0.3496;-0.0224;0.0400;0.0032
0000466937;6.9336;2.8611;0.5100;-0.0298;0.0345;-0.0151
0000466945;6.8833;2.9808;0.5914;-0.0207;0.0284;-0.0366
0000466953;7.1970;3.4381;0.6776;0.0004;0.0083;-0.0502
0000466961;6.8570;3.2250;0.6728;0.0132;0.0004;-0.0489
0000466969;6.5481;3.1077;0.7278;0.0232;-0.0108;-0.0366
0000466977;6.5410;3.0765;0.7757;0.0361;-0.0216;-0.0364
0000466985;6.6152;3.3854;0.7159;0.0365;-0.0211;-0.0294
0000466993;6.5170;3.2848;0.7374;0.0392;-0.0137;-0.0218
0000467001;6.3255;3.3016;0.6440;0.0536;-0.0093;-0.0284
0000467009;6.3494;3.3998;0.6105;0.0702;-0.0048;-0.0312
0000467017;6.3638;3.2585;0.4381;0.0794;0.0172;-0.0232
0000467025;6.3686;3.0981;0.4046;0.0809;0.0397;-0.0161
0000467033;6.3087;2.8778;0.3543;0.0869;0.0560;-0.0128
0000467041;6.5314;2.8611;0.3926;0.0717;0.0851;-0.0081
0000467049;6.7612;2.7773;0.3472;0.0521;0.0974;-0.0244
0000467057;6.9767;2.7318;0.3974;0.0228;0.1120;-0.0372
0000467065;7.1730;2.6911;0.4573;-0.0017;0.1154;-0.0593
0000467073;7.0629;2.4924;0.5674;-0.0262;0.1170;-0.0739
0000467081;7.2880;2.6552;0.6081;-0.0464;0.1007;-0.0978
0000467089;7.1299;2.5857;0.7685;-0.0594;0.0747;-0.1182
0000467097;7.1467;2.6695;0.8930;-0.0685;0.0572;-0.1254
0000467105;6.8833;2.4995;1.1085;-0.0702;0.0372;-0.1282
0000467113;6.9073;2.4349;1.1732;-0.0733;0.0211;-0.1291
0000467121;6.6942;2.6456;1.2234;-0.0813;0.0088;-0.1187
0000467129;6.7062;2.8515;1.3886;-0.0671;-0.0124;-0.1098
0000467137;6.5793;2.9688;1.3288;-0.0711;-0.0027;-0.0850
0000467145;6.4931;3.0430;1.3791;-0.0685;0.0105;-0.0616
0000467153;6.1794;3.1891;1.3408;-0.0706;0.0286;-0.0413
0000467161;6.1268;3.2848;1.4605;-0.0514;0.0566;-0.0313
0000467228;6.3973;3.2226;0.8332;0.2241;0.3873;-0.0665
0000467236;6.7852;2.9137;0.8045;0.2649;0.3665;-0.0625
0000467244;7.1922;2.6624;0.6273;0.2922;0.3459;-0.0420
0000467252;7.5417;2.5833;0.3639;0.3179;0.3208;0.0028
0000467260;7.6016;2.6264;0.1604;0.3360;0.2630;0.0504
0000467268;7.8051;2.6456;0.0838;0.3268;0.1884;0.1027
0000467276;7.7524;2.4924;0.0814;0.3032;0.1078;0.1507
0000467284;7.6614;2.3631;-0.0287;0.2774;0.0063;0.1980
0000467292;7.6471;2.0159;-0.0646;0.2759;-0.0757;0.2407
0000467300;7.9990;2.0686;-0.1125;0.2966;-0.1447;0.2714
0000467308;8.1092;1.8459;-0.2442;0.3212;-0.2038;0.2786
0000467316;8.1451;1.8651;-0.3184;0.3126;-0.2345;0.2691
0000467324;8.3007;2.1428;-0.4046;0.2754;-0.2774;0.2273
0000467332;8.2672;2.6408;-0.3759;0.2030;-0.3042;0.1749
0000467340;8.1211;2.9975;-0.3400;0.0962;-0.3231;0.1123
0000467348;7.8937;3.3519;0.0192;-0.0242;-0.3543;0.0422
0000467356;7.5250;3.6751;0.2370;-0.1246;-0.3817;-0.0156
0000467364;6.9911;3.7182;0.4118;-0.1804;-0.4100;-0.0799
0000467372;6.8690;3.8499;0.9409;-0.1885;-0.4375;-0.1150
0000467380;6.4404;3.7397;1.1612;-0.1735;-0.4739;-0.1424
0000467388;6.1244;3.3447;1.5826;-0.1447;-0.5180;-0.1621
0000467396;6.0956;2.9449;1.8364;-0.1194;-0.5722;-0.1565
0000467404;6.1148;2.5738;2.1931;-0.1006;-0.6001;-0.1180
0000467412;6.0406;2.0734;2.3104;-0.0632;-0.6237;-0.0671
0000467420;5.9831;1.9609;2.4852;-0.0059;-0.6314;-0.0125
0000467428;5.9496;2.3176;2.5474;0.0448;-0.6293;0.0258
0000467436;6.1507;2.7246;2.5857;0.1287;-0.6217;0.0432
0000467444;6.0693;3.0909;2.4972;0.2198;-0.5899;0.0646
0000467452;6.4476;4.0773;2.4660;0.2878;-0.5392;0.0819
0000467460;6.3734;4.2689;2.3607;0.3580;-0.4810;0.0794
0000467468;6.7493;4.6902;2.3152;0.4454;-0.4374;0.0510
0000467476;7.1228;4.6639;2.0973;0.5217;-0.3757;0.0128
0000467484;7.3143;4.4867;1.7142;0.6026;-0.3420;-0.0438
0000467492;7.2137;4.1132;1.7837;0.6600;-0.3230;-0.1054
0000467500;6.9791;3.6009;1.3982;0.6564;-0.3027;-0.1612
0000467508;6.9671;3.0430;1.2785;0.6290;-0.3039;-0.2356
0000467516;6.6272;2.4181;1.2641;0.5514;-0.3016;-0.2904
0000467524;6.5218;1.8268;1.1444;0.4818;-0.2939;-0.3281
0000467532;6.4260;1.6975;1.1636;0.4521;-0.2998;-0.3496
0000467540;6.2896;1.8004;1.2498;0.4153;-0.2978;-0.3391
0000467548;6.4404;2.1141;1.2594;0.3613;-0.3191;-0.3178
0000467556;6.4907;2.3296;1.3743;0.3260;-0.3489;-0.2882
0000467564;6.6607;2.6959;1.5036;0.3150;-0.3850;-0.2715
0000467572;6.5625;2.8204;1.8459;0.3508;-0.4166;-0.2494
0000467580;6.9145;3.0885;2.0279;0.4066;-0.4365;-0.2314
0000467588;6.4979;2.9616;2.2625;0.5009;-0.4631;-0.2308
0000467596;6.6415;3.2250;2.3463;0.5853;-0.4640;-0.2252
0000467604;6.3135;3.0311;2.2434;0.6636;-0.4694;-0.2236
0000467612;6.1866;3.1220;2.1931;0.7392;-0.4643;-0.2256
0000467620;6.3015;3.2298;2.2075;0.8064;-0.4445;-0.2278
0000467628;6.3662;3.0574;1.9369;0.8560;-0.4203;-0.2402
0000467636;6.2608;2.8443;1.8268;0.9081;-0.4060;-0.2906
0000467644;6.5266;2.5857;1.5586;0.9417;-0.3814;-0.3311
0000467652;6.6631;2.2338;1.4198;0.9601;-0.3565;-0.3616
0000467660;6.8953;2.1835;1.2546;0.9609;-0.3420;-0.3720
0000467668;6.9719;2.0758;1.1444;0.9701;-0.3250;-0.3745
0000467676;6.9791;2.2984;0.8332;0.9872;-0.2967;-0.3465
0000467684;6.6080;2.7414;0.6393;1.0485;-0.2859;-0.3477
0000467692;6.2345;3.2657;0.6871;1.1463;-0.2834;-0.3511
0000467700;6.0454;3.9002;0.7566;1.2295;-0.2775;-0.3673
0000467708;5.7844;4.1707;0.9960;1.2979;-0.2726;-0.3980
0000467716;5.8658;3.8283;1.2594;1.3558;-0.2803;-0.4450
0000467724;6.0956;3.2441;1.3408;1.4024;-0.2663;-0.4812
0000467732;6.5362;2.6121;1.3575;1.4404;-0.2409;-0.5013
0000467740;6.6343;1.8818;0.7159;1.4921;-0.2328;-0.5279
0000467748;6.8881;1.3024;0.4070;1.5072;-0.2317;-0.5324
0000467756;7.1778;0.8188;0.0359;1.5083;-0.2598;-0.5392
0000467764;7.3239;0.6081;-0.1939;1.4386;-0.2731;-0.5132
0000467772;7.3478;0.2083;-0.3519;1.3993;-0.2875;-0.5236
0000467780;7.1874;0.0766;-0.7997;1.3595;-0.2902;-0.5626
0000467788;6.8211;0.1939;-0.8045;1.2730;-0.2920;-0.6001
0000467796;6.2106;-0.0670;-0.5267;1.2004;-0.3034;-0.6456
0000467804;5.5258;-0.2562;0.0575;1.1423;-0.2819;-0.6616
0000467873;5.3223;1.8220;1.8028;1.1387;0.2244;-0.4250
0000467881;5.0518;1.1133;1.9058;1.2552;0.2541;-0.4058
0000467889;4.4149;0.7326;1.2857;1.4843;0.2682;-0.4094
0000467897;4.1779;0.4357;0.2825;1.6968;0.2607;-0.3785
0000467905;4.6974;0.3543;-1.1636;1.8808;0.2531;-0.2822
0000467913;6.2273;0.9984;-2.4612;1.9104;0.2475;-0.1390
0000467921;8.6263;1.8818;-3.2968;1.8214;0.1763;0.0589
0000467929;10.7859;2.4325;-3.3327;1.5500;0.0985;0.2553
0000467937;12.3541;2.1045;-2.5762;1.1582;-0.1359;0.2922
0000467945;12.5073;0.9146;-1.2953;0.7814;-0.4794;0.1207
0000467953;10.7356;-0.5722;0.0790;0.5974;-0.7184;-0.0412
0000467961;8.9663;-1.6065;2.1404;0.5144;-0.9093;-0.1114
0000467969;7.7381;-2.1021;2.8635;0.4563;-1.0437;-0.1426
0000467977;7.5705;-1.7190;2.6169;0.4575;-1.1451;-0.1350
0000467985;7.7165;-0.6847;1.4557;0.4791;-1.1992;-0.1232
0000467993;8.3917;0.3903;0.1987;0.5520;-1.2588;-0.0974
0000468001;8.4946;0.8356;-0.4741;0.6351;-1.2634;-0.0469
0000468009;8.4874;0.7973;-0.8021;0.7080;-1.2402;-0.0161
0000468017;7.7883;0.0192;-0.5722;0.7008;-1.2273;0.0093
0000468025;7.0078;-0.9768;-0.7374;0.5828;-1.2171;0.0064
0000468033;6.7086;-1.5395;-0.8164;0.4030;-1.2674;0.0060
0000468041;6.9384;-2.2242;-0.8045;0.1844;-1.3364;-0.0177
0000468049;8.1882;-1.6017;-0.9409;-0.0905;-1.3887;-0.0629
0000468057;8.8418;-1.0989;-0.8188;-0.3352;-1.5054;-0.1595
0000468065;9.4451;-0.1604;-0.6488;-0.4663;-1.6253;-0.3074
0000468073;9.3398;0.4046;-0.3112;-0.4271;-1.7367;-0.5151
0000468081;8.4827;0.9529;0.0479;-0.2393;-1.8465;-0.7681
0000468089;7.3023;1.0223;0.3759;-0.0008;-1.8734;-1.0126
0000468097;6.1699;0.4094;0.6704;0.2164;-1.8859;-1.2056
0000468105;5.2241;-0.2634;0.5100;0.3849;-1.9601;-1.3420
0000468113;4.8866;-0.9720;0.2203;0.4816;-2.0977;-1.4261
0000468121;4.9584;-1.6185;-0.2945;0.4946;-2.1992;-1.4537
0000468129;5.2241;-1.8172;-1.1612;0.4598;-2.2693;-1.4373
0000468137;5.6934;-2.1189;-1.9369;0.3861;-2.3299;-1.3570
0000468145;6.3853;-1.8818;-2.5929;0.3256;-2.3637;-1.3010
0000468153;6.8067;-1.8771;-2.6240;0.2711;-2.4331;-1.2953
0000468161;6.9049;-2.4397;-1.9058;0.1787;-2.5245;-1.3235
0000468169;6.5170;-3.3950;-1.0965;0.0453;-2.6500;-1.4196
0000468177;6.0286;-4.2162;-0.5363;-0.0645;-2.7813;-1.5434
0000468185;5.5689;-5.1978;0.3041;-0.1993;-2.9020;-1.6766
0000468193;5.6240;-5.9592;-0.1077;-0.2618;-3.0098;-1.7385
0000468201;5.9999;-6.5410;-0.3089;-0.1268;-3.0483;-1.8222
0000468209;6.3375;-6.8211;1.2833;-0.0902;-3.1625;-2.0238
0000468217;7.7405;-6.2584;2.9951;-0.3114;-3.2618;-2.3054
0000468225;9.1291;-4.9919;5.1044;-0.8335;-3.2943;-2.5394
0000468233;10.2424;-2.9568;6.6272;-1.4461;-3.3412;-2.6217
0000468241;13.0508;2.0255;3.6607;-1.5330;-2.9211;-2.3948
0000468249;10.6614;11.4419;1.0343;-0.8651;-2.6016;-2.2204
0000468257;0.3639;22.4911;-3.0933;0.4806;-2.7566;-3.3137
0000468265;-8.1379;20.3627;-1.1612;2.7161;-2.0543;-4.3657
0000468273;-9.7875;8.8538;5.0996;4.3656;-0.8164;-4.3657
0000468281;-9.7252;-0.2993;9.7300;4.3656;0.3200;-4.3657
0000468289;-9.0070;-5.5713;5.3917;4.3656;0.6937;-4.3657
0000468297;-7.6327;-10.3453;-0.9601;4.3656;0.7553;-4.3657
0000468305;-5.0853;-14.1952;-4.8459;4.3656;1.1551;-4.3657
0000468313;-2.3415;-17.1736;-9.3589;4.3656;1.0838;-4.3070
0000468321;1.6281;-18.3156;-10.4100;4.3656;0.3088;-3.2945
0000468329;0.9409;-17.9086;-10.9319;4.3656;0.0982;-2.5985
0000468337;-6.6487;-17.2646;-12.8736;3.9468;0.0898;-2.1418
0000468345;-20.8535;-16.3404;-29.7096;2.0880;1.3555;-2.2336
0000468353;-58.6532;-9.2153;-67.2507;0.4911;2.9561;-3.7752
0000468361;-78.4532;74.4070;-53.1609;1.3456;2.0041;-4.3657
0000468369;-40.7086;25.5629;-38.7645;1.2176;3.1012;-4.3657
0000468377;-47.4818;19.5630;-37.4836;1.5863;3.9118;-4.3657
0000468385;-41.2880;-19.3787;-19.2350;0.5232;3.3273;-2.1938
0000468393;-28.6299;-15.6868;-9.1770;-1.2684;2.8809;-0.1054
0000468401;-14.8895;-9.8569;-6.7756;-2.8602;2.7587;0.9665
0000468409;-3.5769;-5.9592;-7.9871;-3.8197;2.2900;1.6623
0000468417;0.4166;-4.8626;-6.3782;-3.8151;1.4366;2.0532
0000468425;3.0119;-4.5921;-4.1970;-3.2241;0.8676;2.2203
0000468433;5.6360;-3.3926;-2.7581;-2.2067;0.5701;2.2866
0000468499;4.4053;-4.5179;-8.5162;0.7220;-2.1364;-0.0958
0000468507;0.6991;-6.0023;-6.3255;1.0208;-2.2501;-0.5685
0000468515;-3.0143;-7.7237;-5.9424;1.2914;-1.9962;-0.7528
0000468523;-6.0310;-9.2177;-5.5761;1.3254;-1.4079;-0.7745
0000468531;-8.4731;-10.6925;-4.6448;1.1221;-0.7341;-0.7979
0000468539;-11.1306;-11.9112;-4.8842;0.7176;-0.0401;-0.8260
0000468547;-12.4714;-13.0699;-6.5625;0.1376;0.5237;-0.6903
0000468555;-10.4722;-6.4787;-4.9991;-0.4566;0.8159;-0.3962
0000468563;-6.0118;-11.3557;-2.2817;-0.8993;1.2187;-0.1599
0000468571;-2.7318;-10.0006;-1.2378;-1.0015;1.5164;0.0540
0000468579;-0.5794;-7.9224;-3.6631;-0.8888;1.6148;0.2538
0000468587;0.8547;-5.8921;-5.2744;-0.6965;1.5540;0.4503
0000468595;1.7406;-4.8507;-5.3917;-0.4958;1.4252;0.6121
0000468603;1.6328;-4.5274;-5.6192;-0.2573;1.2891;0.6812
0000468611;0.7063;-5.6455;-7.3119;-0.0159;1.2044;0.6558
0000468619;-0.9601;-7.9535;-5.4420;0.2322;1.0977;0.5848
0000468627;-2.1117;-9.5098;-4.6184;0.2726;1.0283;0.3740
0000468635;-0.7015;-10.6111;-4.2521;0.1656;0.9783;0.0941
0000468643;1.2234;-10.9894;-3.7254;0.0392;0.8359;-0.1176
0000468651;2.9233;-10.8314;-3.0765;-0.0624;0.6243;-0.2298
0000468659;4.8315;-10.0556;-3.2250;-0.2153;0.3492;-0.2629
0000468667;6.1028;-9.8569;-2.5642;-0.3453;0.1142;-0.1913
0000468675;5.3127;-9.1674;-3.7828;-0.5187;-0.1022;-0.0970
0000468683;2.9568;-9.3158;-2.1213;-0.5790;-0.2515;0.0092
0000468691;-0.2825;-8.7532;-3.5434;-0.6193;-0.3087;0.0624
0000468699;-0.9290;-8.8011;-1.9728;-0.6178;-0.1819;0.0561
0000468707;-1.6735;-8.5066;-0.3567;-0.6295;0.0785;0.0568
0000468715;-0.7015;-1.7166;-1.9034;-0.6475;0.3384;0.0617
0000468723;-2.0063;-8.1930;-2.4684;-0.6512;0.3487;-0.0378
0000468731;-0.5531;-8.7915;-4.0558;-0.5684;0.1580;-0.1478
0000468739;0.0192;-8.3725;-5.0733;-0.5344;-0.1543;-0.3206
0000468747;-0.9505;-6.8426;-6.9480;-0.5817;-0.4803;-0.5315
0000468755;-3.2585;-5.0518;-9.8450;-0.6123;-0.7067;-0.6923
0000468763;-6.5003;-3.7182;-12.2368;-0.4755;-0.8188;-0.7745
0000468771;-9.4715;-2.5833;-13.6302;-0.1010;-0.8186;-0.7727
0000468779;-12.3230;-2.5642;-13.4530;0.3476;-0.7036;-0.7044
0000468787;-13.8816;-3.7350;-12.5097;0.7003;-0.4742;-0.5970
0000468795;-14.7483;-5.3606;-10.4746;0.9213;-0.1708;-0.4738
0000468803;-14.2599;-7.4053;-9.4523;0.9574;0.1038;-0.3491
0000468811;-12.6653;-8.6431;-9.2392;0.8014;0.3312;-0.2380
0000468819;-9.9216;-9.1004;-9.3422;0.5177;0.5088;-0.1055
0000468827;-6.8905;-8.6766;-8.7436;0.2008;0.6664;0.0418
0000468835;-4.6328;-7.8769;-8.1068;-0.0276;0.7324;0.1236
0000468843;-3.1101;-6.7876;-7.5298;-0.2061;0.8286;0.2254
0000468851;-1.7166;-5.7174;-6.3925;-0.2558;0.8581;0.2922
0000468859;-1.0223;-4.8195;-5.5091;-0.2626;0.8908;0.3250
0000468867;-0.2777;-4.1252;-5.3822;-0.2414;0.8748;0.3476
0000468875;0.5339;-3.3782;-5.0135;-0.1998;0.8476;0.3607
0000468883;1.0965;-2.9066;-4.7309;-0.1727;0.8195;0.3833
0000468891;1.4126;-2.7773;-4.2880;-0.1310;0.7541;0.3946
0000468899;1.9417;-2.7342;-3.9289;-0.0945;0.6751;0.3950
0000468907;2.3032;-2.8778;-3.4309;-0.0332;0.5897;0.3738
0000468915;2.7438;-2.8036;-3.6655;0.0602;0.4870;0.3325
0000468923;2.8898;-2.9568;-3.8595;0.1740;0.3714;0.2711
0000468931;2.9497;-2.9856;-4.2497;0.2850;0.2374;0.2172
0000468939;2.7821;-2.7390;-4.8890;0.3718;0.1128;0.1395
0000468947;2.5139;-2.6671;-5.0254;0.4218;0.0117;0.0759
0000468955;1.9369;-2.5570;-5.2505;0.4485;-0.0773;0.0192
0000468963;2.0016;-2.7533;-5.0709;0.4583;-0.0943;0.0087
0000468971;1.6424;-2.7581;-6.0166;0.4887;-0.0690;0.0446
0000468979;1.2067;-2.8754;-6.3183;0.5605;-0.0582;0.0783
0000468987;-0.1173;-3.1268;-7.7237;0.6174;-0.0207;0.1162
0000468995;-0.8882;-4.0773;-7.1323;0.6747;-0.0052;0.1138
0000469003;-1.7980;-4.9632;-7.2592;0.6674;0.0260;0.0918
0000469011;-2.2769;-5.6599;-7.6447;0.5642;0.0681;0.0641
0000469019;-2.2458;-6.0980;-7.1826;0.4048;0.1187;0.0596
0000469027;-2.6719;-6.3518;-7.4124;0.1843;0.2017;0.0759
0000469035;-2.8802;-5.8634;-7.5537;-0.0934;0.3032;0.1378
0000469043;-2.5977;-4.7453;-7.5944;-0.3517;0.4104;0.2185
0000469051;-2.4205;-3.5626;-8.0732;-0.5244;0.5219;0.3215
0000469118;2.3487;-0.0192;-7.3310;0.0536;0.2954;-0.2036
0000469126;1.0582;-0.3807;-8.2600;0.2486;0.1208;-0.3044
0000469134;-0.1173;-1.1971;-8.2265;0.4835;0.0089;-0.2879
0000469142;-0.2466;-2.0255;-8.6910;0.6388;-0.0843;-0.2064
0000469150;-0.1508;-3.3806;-8.3366;0.6286;-0.1340;-0.1130
0000469158;0.2705;-4.3215;-8.1499;0.4996;-0.1224;-0.0402
0000469166;0.6560;-5.2625;-7.7907;0.3349;-0.0942;-0.0189
0000469174;1.0080;-6.1124;-7.6040;0.1450;-0.0577;-0.0141
0000469182;1.1157;-6.4835;-7.4220;-0.0085;-0.0544;-0.0420
0000469190;1.1995;-6.5410;-7.3981;-0.1403;-0.0458;-0.0722
0000469198;1.3527;-5.9352;-7.1730;-0.2454;-0.0500;-0.0873
0000469206;1.5395;-5.4037;-7.3310;-0.3150;-0.0436;-0.0790
0000469214;1.4557;-4.7046;-7.5369;-0.3195;-0.0514;-0.0608
0000469222;1.2761;-3.9911;-8.0613;-0.2481;-0.0922;-0.0508
0000469230;1.0367;-3.4261;-8.6215;-0.1502;-0.1556;-0.0594
0000469238;0.8691;-2.9401;-9.1123;-0.0469;-0.2169;-0.0661
0000469246;0.6033;-3.1316;-9.2296;0.0330;-0.2765;-0.0641
0000469254;0.3304;-3.5099;-8.6718;0.0781;-0.3114;-0.0514
0000469262;0.2777;-4.0989;-7.8865;0.0520;-0.2883;-0.0135
0000469270;-0.0455;-4.7956;-7.1204;-0.0092;-0.2325;0.0121
0000469278;0.0814;-5.0661;-6.6966;-0.0894;-0.1621;0.0309
0000469286;0.0670;-5.2361;-6.6200;-0.1617;-0.0951;0.0286
0000469294;0.0479;-4.9775;-7.1587;-0.2245;-0.0662;0.0004
0000469302;-0.2705;-4.8028;-7.6303;-0.2490;-0.0985;-0.0545
0000469310;-0.4932;-4.1970;-8.0373;-0.2635;-0.1480;-0.0986
0000469318;-0.9433;-3.6224;-8.0541;-0.2509;-0.2044;-0.1259
0000469326;-1.1588;-2.9640;-7.8602;-0.1951;-0.2530;-0.1541
0000469334;-1.4485;-2.6552;-7.7141;-0.1118;-0.2619;-0.1664
0000469342;-1.7430;-2.6145;-7.4412;-0.0205;-0.2486;-0.1797
0000469350;-1.7669;-2.7126;-7.3622;0.0589;-0.2164;-0.1852
0000469358;-1.8316;-3.1173;-7.2305;0.0949;-0.1643;-0.1820
0000469366;-1.6520;-3.4357;-7.2185;0.0954;-0.1292;-0.1721
0000469374;-1.4461;-4.0749;-7.1323;0.0881;-0.0990;-0.1591
0000469382;-1.1325;-4.2377;-7.0868;0.0674;-0.0833;-0.1367
0000469390;-0.5315;-4.1492;-6.9839;0.0476;-0.0735;-0.1019
0000469398;-0.1508;-4.1372;-6.9456;0.0163;-0.0738;-0.0581
0000469406;-0.0886;-4.0606;-7.0054;-0.0105;-0.0705;-0.0091
0000469414;0.1700;-3.6871;-7.0485;-0.0316;-0.0568;0.0385
0000469422;0.2825;-3.3974;-7.0246;-0.0334;-0.0462;0.0786
0000469430;0.1077;-3.3184;-7.1371;-0.0226;-0.0416;0.0994
0000469438;-0.2490;-3.2657;-7.0557;-0.0107;-0.0252;0.1231
0000469446;-0.4022;-3.3878;-7.1036;0.0045;-0.0187;0.1291
0000469454;-0.5411;-3.4596;-7.0581;0.0317;-0.0167;0.1180
0000469462;-0.3017;-3.4213;-6.9767;0.0556;-0.0252;0.1115
0000469470;-0.1532;-3.7086;-7.0270;0.0721;-0.0209;0.0986
0000469478;-0.1676;-3.8571;-7.0222;0.0873;-0.0337;0.0790
0000469486;-0.3519;-4.1252;-7.0916;0.0789;-0.0378;0.0726
0000469494;-0.4166;-4.3191;-7.1419;0.0592;-0.0380;0.0506
0000469502;-0.4453;-4.3431;-7.2712;0.0400;-0.0442;0.0270
0000469510;-0.6153;-4.2617;-7.4244;0.0097;-0.0333;0.0036
0000469518;-0.6584;-4.1539;-7.4340;-0.0068;-0.0207;-0.0334
0000469526;-0.7494;-4.0534;-7.5082;-0.0160;-0.0032;-0.0546
0000469534;-0.8523;-3.8427;-7.5082;-0.0168;0.0144;-0.0661
0000469542;-0.7733;-3.7278;-7.5872;-0.0108;0.0336;-0.0814
0000469550;-0.7709;-3.5434;-7.4029;-0.0065;0.0514;-0.0753
0000469558;-0.5842;-3.5698;-7.4843;-0.0171;0.0786;-0.0775
0000469566;-0.6249;-3.6009;-7.4172;-0.0317;0.1014;-0.0606
0000469574;-0.5339;-3.5410;-7.4124;-0.0429;0.1091;-0.0590
0000469582;-0.2777;-3.6152;-7.3095;-0.0572;0.1250;-0.0412
0000469590;-0.2011;-3.7781;-7.2999;-0.0652;0.1279;-0.0344
0000469598;-0.0455;-3.7828;-7.2472;-0.0657;0.1155;-0.0346
0000469606;0.1772;-3.9289;-7.1826;-0.0689;0.1167;-0.0296
0000469614;0.1556;-3.8331;-7.2065;-0.0671;0.1005;-0.0304
0000469622;0.2442;-3.8523;-7.2592;-0.0562;0.0797;-0.0438
0000469630;0.1101;-3.8547;-7.2903;-0.0433;0.0593;-0.0517
0000469638;0.0287;-3.7254;-7.2784;-0.0464;0.0541;-0.0504
0000469646;0.0311;-3.6344;-7.2329;-0.0489;0.0404;-0.0538
0000469654;-0.1173;-3.6129;-7.2137;-0.0414;0.0438;-0.0549
0000469662;-0.3519;-3.6823;-7.2975;-0.0406;0.0533;-0.0520
0000469670;-0.2035;-3.5027;-7.3215;-0.0270;0.0509;-0.0564
0000469762;0.1053;-3.8618;-7.4603;-0.0282;0.0437;-0.0071
0000469772;0.0790;-3.8379;-7.4555;-0.0365;0.0404;-0.0095
0000469781;0.0886;-3.6536;-7.4148;-0.0348;0.0369;-0.0100
0000469790;0.0790;-3.5817;-7.5441;-0.0357;0.0368;-0.0075
0000469799;0.0335;-3.6152;-7.5872;-0.0250;0.0256;-0.0095
0000469808;-0.0239;-3.6679;-7.5489;-0.0192;0.0183;-0.0136
0000469817;0.0455;-3.7062;-7.5082;-0.0100;0.0100;-0.0155
0000469826;0.1101;-3.6224;-7.4747;-0.0072;0.0109;-0.0116
0000469835;0.1604;-3.6512;-7.5585;-0.0047;-0.0004;-0.0095
0000469844;0.1437;-3.9289;-7.5968;-0.0155;0.0012;-0.0069
0000469853;0.0503;-3.9145;-7.4699;-0.0147;-0.0028;-0.0077
0000469862;0.0335;-3.8810;-7.5393;-0.0273;-0.0041;-0.0023
0000469871;-0.0479;-3.8762;-7.5106;-0.0208;-0.0107;-0.0125
0000469880;0.0192;-3.6392;-7.3957;-0.0294;-0.0071;-0.0127
0000469889;-0.0215;-3.6943;-7.4244;-0.0260;-0.0045;-0.0192
0000469898;0.2274;-3.3878;-7.5441;-0.0117;-0.0140;-0.0215
0000469907;-0.0934;-3.5650;-7.6064;-0.0081;-0.0149;-0.0221
0000469916;-0.1891;-3.7972;-7.5848;0.0043;-0.0193;-0.0242
0000469925;0.0000;-3.7110;-7.6303;0.0060;-0.0292;-0.0226
0000469934;-0.1963;-3.8954;-7.5178;0.0081;-0.0289;-0.0213
0000469943;-0.2203;-3.9935;-7.5346;0.0041;-0.0244;-0.0115
0000469952;-0.3639;-3.9241;-7.5537;0.0044;-0.0293;-0.0156
0000469961;-0.2945;-3.9528;-7.5393;-0.0128;-0.0165;-0.0004
0000469970;-0.1987;-3.9241;-7.5441;-0.0265;-0.0133;-0.0064
0000469979;-0.3735;-3.9816;-7.4962;-0.0278;-0.0120;-0.0028
0000469988;-0.3567;-3.9002;-7.4962;-0.0316;-0.0081;-0.0076
0000469997;-0.0622;-3.7158;-7.5130;-0.0278;-0.0075;-0.0060
0000470006;0.0838;-3.6655;-7.5322;-0.0180;-0.0088;-0.0108
0000470015;-0.1748;-3.8618;-7.4699;-0.0084;-0.0057;-0.0083
0000470024;-0.0192;-3.8235;-7.4579;-0.0057;-0.0041;-0.0119
0000470033;-0.0599;-3.8499;-7.4124;-0.0057;-0.0128;-0.0169
0000470042;-0.1221;-3.9385;-7.5513;-0.0104;-0.0096;-0.0188
0000470051;-0.1987;-3.8714;-7.5920;-0.0264;-0.0039;-0.0117
0000470060;-0.1652;-3.7852;-7.5705;-0.0233;-0.0115;-0.0165
0000470069;-0.1628;-3.6727;-7.6255;-0.0207;-0.0064;-0.0068
0000470078;-0.3160;-3.7709;-7.5705;-0.0079;-0.0124;-0.0116
0000470087;-0.0407;-3.6655;-7.5513;-0.0049;-0.0084;-0.0135
0000470096;-0.0934;-3.6416;-7.5082;0.0037;-0.0060;-0.0111
0000470105;-0.0287;-3.7158;-7.4196;-0.0053;0.0040;-0.0109
0000470114;-0.1149;-3.8595;-7.5729;-0.0037;-0.0009;-0.0157
0000470123;0.0144;-3.8762;-7.4891;-0.0104;-0.0033;-0.0181
0000470132;0.0215;-3.6943;-7.4388;-0.0220;0.0009;-0.0201
0000470141;-0.0407;-3.7876;-7.4579;-0.0160;0.0012;-0.0305
0000470150;0.1939;-3.7158;-7.4340;-0.0056;0.0060;-0.0195
0000470159;-0.1532;-3.8547;-7.4627;0.0083;0.0024;-0.0196
0000470168;-0.2107;-3.9648;-7.5561;0.0087;-0.0031;-0.0204
0000470177;-0.0383;-3.7397;-7.7021;-0.0021;0.0036;-0.0140
0000470186;-0.2442;-3.8499;-7.6351;-0.0117;0.0057;-0.0089
0000470195;-0.1173;-3.6895;-7.6016;-0.0164;0.0053;-0.0063
0000470204;-0.1628;-3.8211;-7.5489;-0.0300;0.0091;-0.0103
0000470213;0.0096;-3.7589;-7.5968;-0.0261;0.0043;-0.0225
0000470222;-0.0311;-3.7565;-7.6423;-0.0265;0.0019;-0.0264
0000470231;-0.0622;-3.9002;-7.6591;-0.0139;-0.0029;-0.0284
0000470240;-0.1915;-3.9624;-7.6231;-0.0065;-0.0129;-0.0314
0000470249;0.0622;-3.6799;-7.6686;-0.0105;-0.0087;-0.0240
0000470258;0.0311;-3.7828;-7.6112;-0.0141;-0.0165;-0.0241
0000470267;-0.0982;-3.8810;-7.6830;-0.0232;-0.0141;-0.0254
0000470276;-0.0311;-3.8403;-7.6734;-0.0372;-0.0064;-0.0132
0000470285;-0.0862;-3.7757;-7.5322;-0.0385;-0.0113;-0.0173
0000470294;-0.2179;-3.9002;-7.5585;-0.0372;-0.0133;-0.0147
0000470303;-0.1532;-3.8259;-7.5729;-0.0285;-0.0073;-0.0112
0000470312;-0.1628;-3.8116;-7.6303;-0.0272;-0.0060;-0.0103
0000470321;-0.0383;-3.7397;-7.6040;-0.0143;-0.0128;-0.0135
0000470330;0.1484;-3.7709;-7.5920;-0.0265;-0.0115;0.0004
0000470339;0.1963;-3.7709;-7.5920;-0.0254;-0.0204;-0.0099
0000470348;0.0910;-3.7828;-7.6471;-0.0322;-0.0148;-0.0069
0000470357;0.3711;-3.5937;-7.5848;-0.0293;-0.0204;-0.0120
0000470366;0.0527;-3.7469;-7.4723;-0.0246;-0.0183;-0.0041
0000470375;-0.0646;-3.8834;-7.5609;-0.0249;-0.0197;-0.0080
0000470443;-0.2227;-3.8618;-7.5968;-0.0390;-0.0188;-0.0043
0000470451;-0.1125;-3.7804;-7.7045;-0.0261;-0.0310;-0.0019
0000470459;-0.0670;-3.7397;-7.7045;-0.0308;-0.0273;0.0021
0000470467;-0.2298;-3.7876;-7.6686;-0.0274;-0.0297;0.0031
